sub_id,Trial,RT,Resp,Error,Fix_onset,Disp_onset,block,repeat,tid,tloc,d_setsize,quad1,quad2,quad3,quad4,loc1,loc2,loc3,loc4,loc5,loc6,loc7,loc8,loc9,loc10,loc11,loc12,loc13,loc14,loc15,loc16,loc17,loc18,loc19,loc20,loc21,loc22,loc23,loc24,loc25,loc26,loc27,loc28,loc29,loc30,loc31,loc32,loc33,loc34,loc35,loc36
18,1,1592.23251015646,0,0,466352.361435513,466353.408473508,1,0,0,1,31,179155923,217729731,184623584,248362031,-3110020,21800319,40211719,11000909,0,30410609,30010219,31500209,11111919,22001009,30400809,30811219,21500309,10201009,31511219,40101819,21201219,10001119,41501219,31700009,40401109,40000419,0,20910419,0,0,10110409,41411419,10701719,41102009,21711519,30111309,30411709,21311009,40300919,11300419
18,2,774.766369373538,1,0,466356.043757644,466357.090730966,1,1,1,30,3,11810519,30902228,0,4081080,0,0,11810519,0,0,0,0,0,0,0,20201719,0,10700509,0,0,0,0,0,0,0,0,0,0,0,0,0,0,0,0,-4081080,0,0,0,0,0,0
18,3,708.741329959594,0,0,466358.867160268,466359.937720917,1,0,0,13,19,82512437,108326824,61813727,123655374,0,0,40311309,30700719,0,0,0,11500409,0,21101109,10410019,10100909,-4180041,11002019,0,30911709,10111009,10510009,0,0,20401009,30200809,11211909,0,0,0,0,20310009,32000709,40110119,10211819,0,0,10110909,10911809,0
18,4,684.606202528812,0,0,466361.784739356,466362.831765417,1,0,0,34,3,21900609,0,20811709,41961449,0,0,0,0,0,21900609,0,0,0,0,0,0,0,0,0,0,0,0,0,0,0,0,0,20811709,0,0,0,0,0,0,0,0,0,-1060130,40901319,0
18,5,652.195954229683,1,0,466364.714073997,466365.761097749,1,0,1,35,9,42510418,73113328,41801718,88173927,11400109,0,0,0,31110309,0,0,0,0,0,0,0,41501319,0,0,0,0,31612009,0,0,0,0,21601609,0,0,20200109,0,0,0,0,31111319,0,31211309,21701219,-4150080,0
18,6,687.931495311204,0,0,466367.596351396,466368.643379381,1,1,0,32,19,156835064,113743275,123224666,99491717,0,41110109,20702009,12011209,0,30200809,21410209,31400719,0,0,20310319,0,10410209,0,40910119,30110819,0,12001809,0,42001019,0,10711319,0,0,30312019,40200309,0,0,11510509,0,31000109,-4060061,20910819,32010219,0,0
18,7,681.593113054987,0,0,466370.419806759,466371.466843214,1,1,0,7,9,44840779,62012618,42813038,104932756,0,0,0,40710619,0,0,-4130160,0,0,40401909,21610709,0,0,0,0,0,0,0,0,0,0,0,21602019,0,21211019,0,0,0,0,11311009,41411609,0,0,42010119,0,10200019
18,8,635.042478796095,1,0,466373.196213349,466374.243236715,1,1,1,11,31,157959302,207437783,267860721,185560093,21601519,22000609,20211009,31111119,10500609,11911209,30511609,0,10111619,40511319,-2090200,40511219,11210809,31500409,0,10801409,40710509,30101909,31101209,40011409,40310809,20101119,11810409,21111619,41501409,41011619,20901119,10701219,40610619,30712009,31411909,41112009,0,10310809,0,20701519
18,9,800.328162149526,1,0,466375.902023487,466376.949053398,1,0,1,31,19,113124156,193737984,115014685,93956377,0,0,20511209,40700609,0,31901219,0,20011119,0,0,40300409,0,20211209,41011519,31311919,30801319,0,30101609,0,41101009,10500619,10512019,0,30900119,22000919,0,0,10901209,0,0,-2051031,30301009,10101809,40601319,0,0
18,10,814.713383384515,1,0,466378.925478774,466379.97250137,1,0,1,3,31,209628033,208438912,169350832,251629522,41700019,31410809,-2191040,21611709,31302019,30011709,0,21200109,30200619,32011909,21000519,20011309,0,40101419,22002019,40200709,11410609,21700419,22001819,21401019,21411619,11501409,20910419,0,30911109,20911819,20301619,0,30501519,41802009,21501819,41001009,12001719,21110409,42000019,41711019
18,11,619.269473303575,0,0,466381.843050163,466382.890075454,1,1,0,33,31,178068801,259036892,146367512,168444785,20110009,10001709,21010209,31201009,11901009,12011809,30411409,21211019,20210619,41500709,41300309,31801309,40712009,30000809,0,11411209,41810519,20500019,11311309,21000509,30510109,30411319,0,10201119,10410519,10811419,21711209,21500109,0,40600709,0,10701009,-3120011,41810109,30611619,20101219
18,12,658.410379022826,1,0,466384.584157372,466385.631177659,1,0,1,14,9,71724447,73363129,42022228,31512328,0,0,0,41401319,10112019,0,0,20211109,0,31112009,41201119,0,0,-1050001,0,0,0,0,0,11410309,0,0,30611919,0,0,0,0,0,0,0,0,11510719,0,20001609,0,0
18,13,485.063998145051,0,0,466387.384080072,466388.431109213,1,1,0,16,0,0,0,0,0,0,0,0,0,0,0,0,0,0,0,0,0,0,0,0,-40210091,0,0,0,0,0,0,0,0,0,0,0,0,0,0,0,0,0,0,0,0
18,14,648.563847586047,0,0,466390.101657697,466391.148693383,1,1,0,18,9,31901619,52583198,52920618,123234256,0,0,0,0,0,0,0,31901619,0,0,20411019,0,0,0,0,30101009,0,-2071170,41810609,0,0,0,0,11110009,0,0,0,0,0,20601209,0,20711619,41910319,0,0,40011109
18,15,578.325025504455,0,0,466392.948653424,466393.995681409,1,1,0,23,19,165216874,96443055,105635356,42813727,30210009,30401219,0,40601009,0,11900819,0,30201809,21902009,21310009,20510009,0,0,12001919,0,0,30710309,11910809,20601819,10610709,0,0,-2021191,20301119,30400009,0,21700509,0,11801809,0,0,0,0,20300209,0,10711709
18,16,554.838172276504,0,0,466395.772101858,466396.819129074,1,1,0,8,31,179447144,259860931,256151011,146709374,10811519,30411519,40400209,21501009,20410019,20001419,0,-4100141,31811309,11801519,21711809,41311519,30301309,21210019,40810819,41711109,10801609,40201219,21111919,40511609,20101209,30602009,30711409,20911209,41600119,20000809,30600719,21701209,21101019,30601609,0,0,40701709,0,21902009,10701819
18,17,581.425886019133,0,0,466398.548511142,466399.595540283,1,1,0,4,19,155834556,134246056,85845384,145637645,0,41610019,41100809,-1121110,0,40402009,0,31600609,0,40910619,31211909,0,21311809,0,0,40811719,0,0,11900019,0,20001209,0,21111519,11110909,11710719,10011009,0,20711909,41210909,0,32001809,20201009,0,0,0,31512009
18,18,452.270328707527,1,0,466401.336729874,466402.383698576,1,0,1,6,3,53151518,31511319,0,0,0,0,21110209,0,30010109,-2031200,0,0,0,0,31511319,0,0,0,0,0,0,0,0,0,0,0,0,0,0,0,0,0,0,0,0,0,0,0,0,0
18,19,667.052367643919,1,0,466404.018961154,466405.065984905,1,0,1,20,31,114726645,259768441,203657693,180457841,0,30211509,11700209,0,21411809,20001709,0,0,31401409,20311009,41611219,41510919,40811709,11810019,41910909,11001619,10000119,40800919,30710709,-4110081,11402019,10910919,41802009,30200209,31200409,21410519,21910819,32000319,31610719,20411209,10701209,11011119,11501019,31201009,10410719,21610519
18,20,553.350298199803,1,0,466406.783591788,466407.830625163,1,1,1,15,3,41612638,12021289,0,0,0,0,30311519,0,0,0,0,0,11301119,0,0,10000209,0,0,-2021080,0,0,0,0,0,0,0,0,0,0,0,0,0,0,0,0,0,0,0,0,0
18,21,551.304230641108,0,0,466409.43059221,466410.477618271,1,0,0,26,19,115924755,82622937,96324837,155156593,0,0,11410909,31901919,40510909,10801009,0,0,21300009,30811119,0,0,0,0,30611809,21200009,0,0,0,10510119,0,0,21211219,41301709,0,-3201181,20100609,10510809,0,30102009,20811919,20710619,30510909,10800109,31710219,0
18,22,410.391195677221,1,0,466412.230517605,466413.277547515,1,0,1,29,0,0,0,0,0,0,0,0,0,0,0,0,0,0,0,0,0,0,0,0,0,0,0,0,0,0,0,0,0,0,0,0,0,-21811801,0,0,0,0,0,0,0
18,23,486.342838441487,0,0,466414.771634515,466415.818664041,1,0,0,27,9,103513846,0,24773038,73934237,0,32001519,20101709,0,0,0,0,20700409,30710209,0,0,0,0,0,0,0,0,0,0,0,11700519,0,0,0,10001519,0,-3071000,22011819,0,0,0,31711409,0,0,20211009,0
18,24,434.288417221978,1,0,466417.465682942,466418.512703228,1,1,1,10,3,82812228,2101141,10111909,0,0,0,0,41410309,0,0,41401919,0,0,-2101141,0,0,0,0,0,0,0,0,0,0,0,10111909,0,0,0,0,0,0,0,0,0,0,0,0,0,0
18,25,381.89099583542,1,0,466420.148006227,466421.195008036,1,0,1,17,3,11801009,3021180,0,72111728,0,0,0,0,0,0,0,0,11801009,0,0,0,0,0,0,0,-3021180,0,0,0,0,0,0,0,0,0,0,0,0,0,31811119,0,0,40300609,0,0
18,26,517.76104234159,1,0,466422.594976315,466423.642001221,1,1,1,36,9,74724956,73812247,20900509,11182179,40801519,11011919,0,0,0,11400409,0,0,11511109,0,42000619,0,0,21600209,10211419,0,0,0,0,0,0,0,0,0,0,0,20900509,0,10111009,0,0,0,0,0,0,-1071170
18,27,440.076690283604,0,0,466439.041640359,466440.088645247,2,0,0,20,3,0,40401819,41591180,21501209,0,0,0,0,0,0,0,0,0,0,0,40401819,0,0,0,0,0,0,40500019,-1091161,0,0,0,0,0,0,0,0,21501209,0,0,0,0,0,0,0
18,28,571.918890113011,0,0,466441.629792569,466442.676886768,2,0,0,27,19,145406265,186937592,87464049,101732966,41500719,20801309,31201409,0,0,0,11801509,40101319,0,10500009,21211819,41301309,11600009,40511809,0,10500609,40811109,10500919,0,0,0,0,0,41811309,0,41601709,-4051031,31101119,0,0,0,0,30410619,20210309,0,20010919
18,29,533.607960212976,0,0,466444.323873718,466445.370881685,2,1,0,7,9,44840779,62012618,42813038,104932756,0,0,0,40710619,0,0,-4130160,0,0,40401909,21610709,0,0,0,0,0,0,0,0,0,0,0,21602019,0,21211019,0,0,0,0,11311009,41411609,0,0,42010119,0,10200019
18,30,533.002031734213,1,0,466447.088487798,466448.135514629,2,1,1,4,19,155834556,134246056,85845384,145637645,0,41610019,41100809,-1121110,0,40402009,0,31600609,0,40910619,31211909,0,21311809,0,0,40811719,0,0,11900019,0,20001209,0,21111519,11110909,11710719,10011009,0,20711909,41210909,0,32001809,20201009,0,0,0,31512009
18,31,467.647594341543,0,0,466449.770828792,466450.817823671,2,0,0,3,9,33232749,62711418,41010609,75135355,0,0,-2121040,0,0,0,0,31111709,0,21910309,0,0,0,0,0,0,40801109,0,0,0,0,0,0,0,0,0,41010609,0,12000809,20311509,0,0,0,21411119,11301309,10110609
18,32,494.843283027876,0,0,466452.417809582,466453.46459569,2,1,0,11,31,157959302,207437783,267860721,185560093,21601519,22000609,20211009,31111119,10500609,11911209,30511609,0,10111619,40511319,-2090200,40511219,11210809,31500409,0,10801409,40710509,30101909,31101209,40011409,40310809,20101119,11810409,21111619,41501409,41011619,20901119,10701219,40610619,30712009,31411909,41112009,0,10310809,0,20701519
18,33,735.302096465603,1,0,466455.147111193,466456.194142259,2,0,1,1,19,75365068,114324337,162246365,168456512,-2141031,0,0,40311709,0,21910319,0,11002009,0,0,0,0,41200919,0,0,0,31111509,42011909,40400419,20711609,0,0,40511509,30311009,0,0,30311819,11210109,20711619,10601609,41110209,11200419,40300019,11811119,21511409,0
18,34,565.76836889144,1,0,466457.970617756,466459.017595312,2,0,1,14,19,133923066,148636816,135926365,143534945,0,0,30901519,40910209,0,41800119,20311219,0,0,41010609,31411309,0,0,-2190161,11101009,21911819,0,41011909,0,40711109,0,21701309,10810819,0,21901409,40801719,0,0,0,0,40310509,30301509,31811509,31100609,10010809,0
18,35,612.424097547773,1,0,466460.688155731,466461.735184486,2,0,1,35,3,0,40700619,51612018,2101040,0,0,0,0,0,0,0,0,0,40700619,0,0,0,0,0,0,0,0,0,0,20411609,0,0,0,0,0,31200409,0,0,0,0,0,0,0,-2101040,0
18,36,435.28120580595,1,0,466463.476325572,466464.523153404,2,0,1,17,31,196334083,110277804,260329831,228540321,41210309,0,11900319,21400419,20511209,0,20110509,41101009,40100309,11001809,0,42001819,0,21710619,11910119,10611719,-2131110,10910609,41601219,11710609,11401319,31701519,41510809,30301119,30101309,30401319,31600609,10901009,10902009,21500919,40300509,10501509,11211009,41411219,41411519,40400619
18,37,525.143823644612,0,0,466465.981945814,466467.029171088,2,1,0,33,31,178068801,259036892,146367512,168444785,20110009,10001709,21010209,31201009,11901009,12011809,30411409,21211019,20210619,41500709,41300309,31801309,40712009,30000809,0,11411209,41810519,20500019,11311309,21000509,30510109,30411319,0,10201119,10410519,10811419,21711209,21500109,0,40600709,0,10701009,-3120011,41810109,30611619,20101219
18,38,535.125476366375,0,0,466468.746786055,466469.793812501,2,0,0,34,3,0,52901738,41100409,2071190,0,0,0,0,0,0,0,0,0,31001119,21900619,0,0,0,0,0,0,0,41100409,0,0,0,0,0,0,0,0,0,0,0,0,0,0,-2071190,0,0
18,39,377.366549742874,1,0,466471.440829092,466472.487877866,2,1,1,30,3,11810519,30902228,0,4081080,0,0,11810519,0,0,0,0,0,0,0,20201719,0,10700509,0,0,0,0,0,0,0,0,0,0,0,0,0,0,0,0,-4081080,0,0,0,0,0,0
18,40,449.498224828858,0,0,466473.934952663,466474.981937918,2,1,0,23,19,165216874,96443055,105635356,42813727,30210009,30401219,0,40601009,0,11900819,0,30201809,21902009,21310009,20510009,0,0,12001919,0,0,30710309,11910809,20601819,10610709,0,0,-2021191,20301119,30400009,0,21700509,0,11801809,0,0,0,0,20300209,0,10711709
18,41,445.966592931654,1,0,466476.605442249,466477.652450602,2,0,1,26,0,0,0,0,0,0,0,0,0,0,0,0,0,0,0,0,0,0,0,0,0,0,0,0,0,0,0,0,0,0,-21800701,0,0,0,0,0,0,0,0,0,0
18,42,510.53494005464,0,0,466479.181835057,466480.228866122,2,0,0,13,9,52323318,66052049,122723557,32403028,0,21011809,0,0,0,0,0,31311509,0,31800309,0,0,-3050031,0,0,0,0,31201709,0,0,41011619,41010919,40701019,0,0,0,0,10901109,0,0,21501919,0,0,0,0,0
18,43,452.810428920202,1,0,466481.793534944,466482.84056293,2,1,1,18,9,31901619,52583198,52920618,123234256,0,0,0,0,0,0,0,31901619,0,0,20411019,0,0,0,0,30101009,0,-2071170,41810609,0,0,0,0,11110009,0,0,0,0,0,20601209,0,20711619,41910319,0,0,40011109
18,44,402.134937932715,1,0,466484.369994735,466485.416973061,2,1,1,10,3,82812228,2101141,10111909,0,0,0,0,41410309,0,0,41401919,0,0,-2101141,0,0,0,0,0,0,0,0,0,0,0,10111909,0,0,0,0,0,0,0,0,0,0,0,0,0,0
18,45,532.639013486914,0,0,466486.946364061,466487.993455565,2,0,0,6,31,170105584,259547321,158167703,160048602,0,21801019,22010609,40300019,30611519,-2060081,11810309,31202009,10310019,31710909,42001109,20411509,10900509,31600009,40401319,31601219,20010019,30910719,0,32010819,11010319,40311709,21710509,0,10311919,31211009,11601419,0,20001509,22011009,21701209,30811419,10301209,11700619,22011419,21510209
18,46,847.278385946993,0,0,466489.710997389,466490.758027685,2,1,0,32,19,156835064,113743275,123224666,99491717,0,41110109,20702009,12011209,0,30200809,21410209,31400719,0,0,20310319,0,10410209,0,40910119,30110819,0,12001809,0,42001019,0,10711319,0,0,30312019,40200309,0,0,11510509,0,31000109,-4060061,20910819,32010219,0,0
18,47,579.834072501399,0,0,466492.734455755,466493.781489901,2,0,0,26,31,208658922,164325713,219525303,250658121,31602009,0,31712019,20601219,31011219,20110109,41811119,10710419,21100809,40200009,0,20501119,10000819,0,20801309,21910919,10400219,40511319,31810109,40501919,0,30500209,41210219,31310219,31411619,-1170190,11610819,21510409,40701809,21411019,11701409,31500019,40711809,30000319,12011009,41110319
18,48,768.29979516333,0,0,466495.416742855,466496.463775845,2,1,0,36,9,74724956,73812247,20900509,11182179,40801519,11011919,0,0,0,11400409,0,0,11511109,0,42000619,0,0,21600209,10211419,0,0,0,0,0,0,0,0,0,0,0,20900509,0,10111009,0,0,0,0,0,0,-1071170
18,49,635.070580930915,1,0,466498.346091739,466499.393110871,2,0,1,31,9,186434965,11410409,43023138,45922299,41901619,41801109,0,20411019,0,41311109,0,0,41010109,0,0,0,0,0,11410409,0,0,0,0,0,0,21112019,0,0,0,21911119,0,0,41911209,0,-4011090,0,0,0,0,0
18,50,527.631056378596,1,0,466501.087189325,466502.134295073,2,1,1,8,31,179447144,259860931,256151011,146709374,10811519,30411519,40400209,21501009,20410019,20001419,0,-4100141,31811309,11801519,21711809,41311519,30301309,21210019,40810819,41711109,10801609,40201219,21111919,40511609,20101209,30602009,30711409,20911209,41600119,20000809,30600719,21701209,21101019,30601609,0,0,40701709,0,21902009,10701819
18,51,531.028721830808,1,0,466503.745969168,466504.792991764,2,1,1,15,3,41612638,12021289,0,0,0,0,30311519,0,0,0,0,0,11301119,0,0,10000209,0,0,-2021080,0,0,0,0,0,0,0,0,0,0,0,0,0,0,0,0,0,0,0,0,0
18,52,393.245804414619,1,0,466506.45179663,466507.498813067,2,1,1,16,0,0,0,0,0,0,0,0,0,0,0,0,0,0,0,0,0,0,0,0,-40210091,0,0,0,0,0,0,0,0,0,0,0,0,0,0,0,0,0,0,0,0
18,53,483.477958943695,0,0,466522.110261575,466523.157267233,3,1,0,10,3,82812228,2101141,10111909,0,0,0,0,41410309,0,0,41401919,0,0,-2101141,0,0,0,0,0,0,0,0,0,0,0,10111909,0,0,0,0,0,0,0,0,0,0,0,0,0,0
18,54,535.021151939873,0,0,466524.686659002,466525.73367467,3,1,0,36,9,74724956,73812247,20900509,11182179,40801519,11011919,0,0,0,11400409,0,0,11511109,0,42000619,0,0,21600209,10211419,0,0,0,0,0,0,0,0,0,0,0,20900509,0,10111009,0,0,0,0,0,0,-1071170
18,55,376.4634312829,1,0,466527.451290791,466528.498327631,3,0,1,12,0,0,0,0,0,0,0,0,0,0,0,0,0,0,0,0,-30911901,0,0,0,0,0,0,0,0,0,0,0,0,0,0,0,0,0,0,0,0,0,0,0,0
18,56,581.206073344219,0,0,466530.086566073,466531.133552868,3,1,0,8,31,179447144,259860931,256151011,146709374,10811519,30411519,40400209,21501009,20410019,20001419,0,-4100141,31811309,11801519,21711809,41311519,30301309,21210019,40810819,41711109,10801609,40201219,21111919,40511609,20101209,30602009,30711409,20911209,41600119,20000809,30600719,21701209,21101019,30601609,0,0,40701709,0,21902009,10701819
18,57,515.509405639023,1,0,466532.745284322,466533.792326167,3,0,1,3,9,73082208,0,52801718,136123575,0,0,-1060180,0,40511819,0,0,0,31510209,0,0,0,0,0,0,0,0,0,0,0,0,31101209,0,21700509,0,0,0,30800009,11410719,0,41501219,0,0,31810009,0,20601619
18,58,451.475303445477,0,0,466535.380523803,466536.427360159,3,0,0,20,9,81632247,61811428,64931869,50622538,30711109,40510619,10410519,0,0,0,0,0,0,0,0,0,20600009,0,0,0,41211419,0,0,-2011051,41710209,0,0,0,0,21210609,0,0,0,0,10011719,0,0,0,0,40610819
18,59,524.123677052557,1,0,466537.921651107,466538.968674088,3,0,1,13,19,115626085,95975147,143414675,185035485,31611319,0,10301509,0,10310219,21701319,0,0,41701719,21902019,20011619,10900619,-3060081,0,0,40100809,0,0,0,0,40000919,21001919,20800119,0,40001109,21610609,0,41111619,30510709,0,41500319,0,31810919,0,0,40101919
18,60,349.758304422721,0,0,466540.509837964,466541.55686826,3,1,0,15,3,41612638,12021289,0,0,0,0,30311519,0,0,0,0,0,11301119,0,0,10000209,0,0,-2021080,0,0,0,0,0,0,0,0,0,0,0,0,0,0,0,0,0,0,0,0,0
18,61,537.422153458465,1,0,466543.039220494,466544.086216528,3,1,1,11,31,157959302,207437783,267860721,185560093,21601519,22000609,20211009,31111119,10500609,11911209,30511609,0,10111619,40511319,-2090200,40511219,11210809,31500409,0,10801409,40710509,30101909,31101209,40011409,40310809,20101119,11810409,21111619,41501409,41011619,20901119,10701219,40610619,30712009,31411909,41112009,0,10310809,0,20701519
18,62,706.145153264515,1,0,466545.674415704,466546.721451004,3,0,1,31,9,104035646,31100009,50911318,64032169,0,0,11810509,0,41811609,0,20111709,30301819,0,0,0,0,0,0,0,31100009,0,0,0,20411209,30500109,0,0,0,0,0,0,0,0,0,-1121031,21700119,41211019,0,0,0
18,63,657.193517428823,1,0,466548.474349568,466549.521381403,3,1,1,33,31,178068801,259036892,146367512,168444785,20110009,10001709,21010209,31201009,11901009,12011809,30411409,21211019,20210619,41500709,41300309,31801309,40712009,30000809,0,11411209,41810519,20500019,11311309,21000509,30510109,30411319,0,10201119,10410519,10811419,21711209,21500109,0,40600709,0,10701009,-3120011,41810109,30611619,20101219
18,64,462.678903189953,1,0,466551.250841234,466552.297786068,3,0,1,35,19,167548384,76032846,104443146,164584265,21101809,0,21811319,30101219,0,12011209,42011009,0,40511819,11101709,0,0,0,0,21710219,11310509,0,31910409,30910609,0,41811209,20911119,0,0,0,0,10810209,40001519,20900309,41210319,30710119,0,0,30710909,-1051090,0
18,65,383.213336812332,0,0,466553.921290783,466554.96831184,3,0,0,27,3,40611119,31612528,1020050,0,0,0,40611119,0,0,0,0,0,0,0,0,0,0,0,0,21300919,0,10311609,0,0,0,0,0,0,0,0,-1020050,0,0,0,0,0,0,0,0,0
18,66,593.954825482797,1,0,466556.46239807,466557.509439529,3,1,1,4,19,155834556,134246056,85845384,145637645,0,41610019,41100809,-1121110,0,40402009,0,31600609,0,40910619,31211909,0,21311809,0,0,40811719,0,0,11900019,0,20001209,0,21111519,11110909,11710719,10011009,0,20711909,41210909,0,32001809,20201009,0,0,0,31512009
18,67,319.215875526425,1,0,466559.297654796,466560.556231545,3,1,1,23,19,165216874,96443055,105635356,42813727,30210009,30401219,0,40601009,0,11900819,0,30201809,21902009,21310009,20510009,0,0,12001919,0,0,30710309,11910809,20601819,10610709,0,0,-2021191,20301119,30400009,0,21700509,0,11801809,0,0,0,0,20300209,0,10711709
18,68,569.710369163658,1,0,466561.932877338,466562.979916103,3,0,1,14,31,220058611,189846463,207518622,159026313,30110719,11211609,22012019,42001709,21210909,20500509,21600119,21110909,30300109,21500109,10411209,0,42001919,-2000060,31610619,30311219,41610119,10401209,40101919,11301119,0,41001219,11800119,21610419,30901509,10301909,40500409,31700319,0,31801519,10400519,21810519,30701619,11100309,21511509,0
18,69,692.079449654557,0,0,466564.650464203,466565.697488724,3,0,0,6,31,168028813,207855663,220571731,260355702,10311609,30201819,40400319,31312009,31700409,-3100010,10701319,10301319,0,11900409,30810409,30710809,41300209,21010809,0,41911309,0,30211709,10310209,22001109,32011609,41911809,40811919,10410819,30301419,11500919,21311919,30500509,41500909,11910719,41911009,30310309,0,30910419,31500509,41811319
18,70,452.617948467378,0,0,466567.532761234,466568.579785371,3,0,0,17,19,154937175,147636365,96045065,84833876,0,40201819,0,0,41401719,21011709,11111819,41210109,0,0,11302019,30100419,40611809,31610409,31810609,0,-2201100,0,0,21601119,0,32011609,11310519,10710109,0,20411709,0,11211319,41111219,0,0,0,21311319,0,0,11200019
18,71,586.894256528467,1,0,466570.191508741,466571.238601015,3,1,1,32,19,156835064,113743275,123224666,99491717,0,41110109,20702009,12011209,0,30200809,21410209,31400719,0,0,20310319,0,10410209,0,40910119,30110819,0,12001809,0,42001019,0,10711319,0,0,30312019,40200309,0,0,11510509,0,31000109,-4060061,20910819,32010219,0,0
18,72,570.85062348051,0,0,466572.944388441,466573.991424126,3,0,0,1,3,4170000,33111928,0,11310209,-4170000,0,0,0,0,0,0,0,0,0,0,0,0,21111019,0,0,0,12000909,0,0,0,0,0,0,0,0,0,11310209,0,0,0,0,0,0,0,0
18,73,431.172158278059,1,1,466575.697291624,466576.744315761,3,0,0,34,3,32120628,21811419,0,4111011,0,21710609,0,0,0,0,0,0,10410019,0,0,0,0,21811419,0,0,0,0,0,0,0,0,0,0,0,0,0,0,0,0,0,0,0,-4111011,0,0
18,74,635.914800339378,1,0,466578.238444721,466579.28544114,3,0,1,26,31,226836711,205338093,187218374,231649631,40611709,21300809,31300019,10110409,41301319,10201019,20410809,21600209,30000409,11101809,30311719,0,0,20911119,20100809,41310809,41600519,40001309,20600909,30101909,21111409,41201509,40711609,0,0,-3180020,30311009,11200809,10510419,32001309,41501519,11601319,41911809,31500719,21010209,30411519
18,75,596.686508506536,1,0,466581.073644088,466582.120657061,3,1,1,30,3,11810519,30902228,0,4081080,0,0,11810519,0,0,0,0,0,0,0,20201719,0,10700509,0,0,0,0,0,0,0,0,0,0,0,0,0,0,0,0,-4081080,0,0,0,0,0,0
18,76,936.608961957973,0,0,466583.779507352,466584.826501461,3,1,0,7,9,44840779,62012618,42813038,104932756,0,0,0,40710619,0,0,-4130160,0,0,40401909,21610709,0,0,0,0,0,0,0,0,0,0,0,21602019,0,21211019,0,0,0,0,11311009,41411609,0,0,42010119,0,10200019
18,77,518.274580244906,0,0,466586.908795336,466587.955830251,3,1,0,18,9,31901619,52583198,52920618,123234256,0,0,0,0,0,0,0,31901619,0,0,20411019,0,0,0,0,30101009,0,-2071170,41810609,0,0,0,0,11110009,0,0,0,0,0,20601209,0,20711619,41910319,0,0,40011109
18,78,399.790910654701,0,0,466589.52052294,466590.567540532,3,1,0,16,0,0,0,0,0,0,0,0,0,0,0,0,0,0,0,0,0,0,0,0,-40210091,0,0,0,0,0,0,0,0,0,0,0,0,0,0,0,0,0,0,0,0
18,79,432.097989425529,0,0,466603.932010791,466604.979016449,4,1,0,16,0,0,0,0,0,0,0,0,0,0,0,0,0,0,0,0,0,0,0,0,-40210091,0,0,0,0,0,0,0,0,0,0,0,0,0,0,0,0,0,0,0,0
18,80,640.785326366313,1,0,466606.614251695,466607.661298159,4,0,1,31,19,134542436,176545273,113922766,78296036,31010709,20710409,0,41011209,0,0,0,41810109,0,11211209,0,10000309,31510609,0,41401609,21710019,20010409,40701109,42010719,0,0,0,40100909,11511019,0,0,20300119,0,11401809,11900919,-3180170,0,41511819,0,0,10301319
18,81,582.617725187447,1,0,466609.40244271,466610.449465306,4,1,1,33,31,178068801,259036892,146367512,168444785,20110009,10001709,21010209,31201009,11901009,12011809,30411409,21211019,20210619,41500709,41300309,31801309,40712009,30000809,0,11411209,41810519,20500019,11311309,21000509,30510109,30411319,0,10201119,10410519,10811419,21711209,21500109,0,40600709,0,10701009,-3120011,41810109,30611619,20101219
18,82,531.573826563545,1,0,466612.049451987,466613.096475738,4,0,1,20,3,11911219,41802528,4041071,0,0,0,11911219,0,0,0,0,0,0,0,0,10501609,0,0,31300919,0,0,0,0,-4041071,0,0,0,0,0,0,0,0,0,0,0,0,0,0,0,0
18,83,619.9712571688,1,0,466614.825854727,466615.872877323,4,1,1,36,9,74724956,73812247,20900509,11182179,40801519,11011919,0,0,0,11400409,0,0,11511109,0,42000619,0,0,21600209,10211419,0,0,0,0,0,0,0,0,0,0,0,20900509,0,10111009,0,0,0,0,0,0,-1071170
18,84,618.198896874674,0,0,466617.578735582,466618.625772037,4,1,0,11,31,157959302,207437783,267860721,185560093,21601519,22000609,20211009,31111119,10500609,11911209,30511609,0,10111619,40511319,-2090200,40511219,11210809,31500409,0,10801409,40710509,30101909,31101209,40011409,40310809,20101119,11810409,21111619,41501409,41011619,20901119,10701219,40610619,30712009,31411909,41112009,0,10310809,0,20701519
18,85,460.648234118707,0,0,466620.40224792,466621.449235485,4,0,0,17,19,186826193,118574537,195838274,43610528,41300409,11810009,42001719,40010709,20201419,21500909,10001019,0,0,31000819,21801509,31700409,0,0,30001609,0,-4070191,0,30011709,40901519,20901019,31912009,0,0,40910609,31201409,0,0,0,0,11710209,0,31900319,0,0,0
18,86,687.021447636653,1,0,466623.072734426,466624.119756637,4,1,1,7,9,44840779,62012618,42813038,104932756,0,0,0,40710619,0,0,-4130160,0,0,40401909,21610709,0,0,0,0,0,0,0,0,0,0,0,21602019,0,21211019,0,0,0,0,11311009,41411609,0,0,42010119,0,10200019
18,87,541.353374777827,0,0,466625.990316209,466627.037356128,4,0,0,27,31,158317612,165839573,149863073,216049812,10900209,20900619,11501009,0,20601619,31602009,10400009,40601219,11810919,11701409,0,0,31011319,30501809,40301109,11811709,10510609,30001609,10901919,30212019,31811719,11101809,31711919,11010409,10211919,11711309,-1190051,30701409,41810019,0,30901509,20410619,20111419,11112019,30700909,30301909
18,88,558.358255308121,0,0,466628.778496059,466629.82552828,4,1,0,30,3,11810519,30902228,0,4081080,0,0,11810519,0,0,0,0,0,0,0,20201719,0,10700509,0,0,0,0,0,0,0,0,0,0,0,0,0,0,0,0,-4081080,0,0,0,0,0,0
18,89,412.661310459953,1,0,466631.554914968,466632.602004932,4,1,1,23,19,165216874,96443055,105635356,42813727,30210009,30401219,0,40601009,0,11900819,0,30201809,21902009,21310009,20510009,0,0,12001919,0,0,30710309,11910809,20601819,10610709,0,0,-2021191,20301119,30400009,0,21700509,0,11801809,0,0,0,0,20300209,0,10711709
18,90,565.006531134713,0,0,466634.154884325,466635.201893063,4,1,0,4,19,155834556,134246056,85845384,145637645,0,41610019,41100809,-1121110,0,40402009,0,31600609,0,40910619,31211909,0,21311809,0,0,40811719,0,0,11900019,0,20001209,0,21111519,11110909,11710719,10011009,0,20711909,41210909,0,32001809,20201009,0,0,0,31512009
18,91,533.238012809306,1,0,466636.978323905,466638.02535574,4,0,1,3,31,148639883,219360001,290960751,156524794,21111809,10901409,-1110010,21601609,31411319,20201809,0,30400809,11901109,10100909,41311209,10411409,31911809,40400519,31600609,10901009,12011219,30711309,31010519,31810809,21511819,40700419,41511819,40600519,40001909,11801019,32011919,0,40501019,41601119,10910409,11210319,11401019,0,40900909,0
18,92,523.977391887456,0,0,466639.613565695,466640.66059907,4,1,0,18,9,31901619,52583198,52920618,123234256,0,0,0,0,0,0,0,31901619,0,0,20411019,0,0,0,0,30101009,0,-2071170,41810609,0,0,0,0,11110009,0,0,0,0,0,20601209,0,20711619,41910319,0,0,40011109
18,93,513.850223913323,0,0,466642.201748702,466643.248791702,4,1,0,8,31,179447144,259860931,256151011,146709374,10811519,30411519,40400209,21501009,20410019,20001419,0,-4100141,31811309,11801519,21711809,41311519,30301309,21210019,40810819,41711109,10801609,40201219,21111919,40511609,20101209,30602009,30711409,20911209,41600119,20000809,30600719,21701209,21101019,30601609,0,0,40701709,0,21902009,10701819
18,94,691.53549982002,1,0,466644.778165763,466645.825201448,4,0,1,34,9,50822118,20400819,144314976,35500888,0,20511509,0,0,0,30310609,0,0,0,0,0,0,0,0,0,0,0,20400819,0,40601719,0,0,0,41210819,30501819,32000619,0,11100109,0,0,0,0,20200719,-4200060,0,0
18,95,559.822646784596,0,0,466647.601636525,466648.648725719,4,0,0,13,31,246277211,158325103,134738284,230173051,10301509,20710119,30711109,30710209,31011419,30410309,31300209,41111319,20011009,30100519,10211209,20000119,-2100020,21400409,12000009,22000809,40512009,0,20212019,20501319,21200519,20511909,20711709,31600809,0,0,0,20112009,32011419,40111119,30200819,21001019,12012019,31311619,21702019,21711009
18,96,429.450997791719,1,0,466650.225107748,466651.272140739,4,1,1,15,3,41612638,12021289,0,0,0,0,30311519,0,0,0,0,0,11301119,0,0,10000209,0,0,-2021080,0,0,0,0,0,0,0,0,0,0,0,0,0,0,0,0,0,0,0,0,0
18,97,662.670357036404,1,0,466652.836823804,466653.88385333,4,0,1,6,3,85173378,0,0,31501009,41401209,0,0,0,0,-2171060,0,41601109,0,0,0,0,0,0,0,0,0,0,0,0,0,0,0,0,0,0,0,0,0,0,31501009,0,0,0,0,0
18,98,423.72316372348,1,0,466655.742666588,466656.78968264,4,1,1,10,3,82812228,2101141,10111909,0,0,0,0,41410309,0,0,41401919,0,0,-2101141,0,0,0,0,0,0,0,0,0,0,0,10111909,0,0,0,0,0,0,0,0,0,0,0,0,0,0
18,99,491.476292780135,0,0,466658.424966776,466659.471978978,4,0,0,35,3,31710819,32001809,21101609,2151091,0,0,0,0,31710819,0,0,0,0,0,0,32001809,0,0,0,0,0,0,0,0,0,0,0,0,0,21101609,0,0,0,0,0,0,0,0,-2151091,0
18,100,398.714559793007,0,0,466660.97782692,466662.02486068,4,0,0,28,0,0,0,0,0,0,0,0,0,0,0,0,0,0,0,0,0,0,0,0,0,0,0,0,0,0,0,0,0,0,0,0,-30800491,0,0,0,0,0,0,0,0
18,101,537.409834680147,1,0,466663.471891207,466664.518932282,4,1,1,32,19,156835064,113743275,123224666,99491717,0,41110109,20702009,12011209,0,30200809,21410209,31400719,0,0,20310319,0,10410209,0,40910119,30110819,0,12001809,0,42001019,0,10711319,0,0,30312019,40200309,0,0,11510509,0,31000109,-4060061,20910819,32010219,0,0
18,102,528.96841079928,1,0,466666.236556872,466667.283573309,4,0,1,14,9,81902038,4101021,41820928,116346465,0,40501619,0,0,0,0,41400419,0,0,0,0,0,0,-4101021,0,0,0,0,0,0,0,0,10910119,0,0,0,30910809,30912009,11200719,0,41312019,21911609,0,0,11010109,0
18,103,382.731365622021,0,0,466668.82473372,466669.871768636,4,0,0,26,9,101044046,72723157,44812080,20510619,0,20410019,30410709,40012009,0,0,10211309,0,0,0,11010019,20811619,40901519,0,0,0,0,0,0,0,0,0,0,0,0,-3011171,41800909,0,20510619,0,0,0,0,0,0,0
18,104,834.059211541899,0,0,466671.401139232,466672.448183771,4,0,0,1,19,88755328,155447104,86425465,143326075,-4130081,0,11801719,0,32011509,0,40812019,0,0,31210619,0,30301919,0,20011119,41211019,10711719,0,22000709,0,0,0,21800409,0,10201919,21410009,21101809,11911319,40201719,0,0,0,20111719,0,40001509,31500819,11510309
18,105,430.582013155799,1,0,466679.271570997,466680.318613611,5,1,1,30,3,11810519,30902228,0,4081080,0,0,11810519,0,0,0,0,0,0,0,20201719,0,10700509,0,0,0,0,0,0,0,0,0,0,0,0,0,0,0,0,-4081080,0,0,0,0,0,0
18,106,394.728289043996,1,0,466681.824534695,466682.871497623,5,0,1,34,0,0,0,0,0,0,0,0,0,0,0,0,0,0,0,0,0,0,0,0,0,0,0,0,0,0,0,0,0,0,0,0,0,0,0,0,0,0,-21500191,0,0
18,107,439.855337666813,0,0,466684.330301026,466685.377326702,5,1,0,11,31,157959302,207437783,267860721,185560093,21601519,22000609,20211009,31111119,10500609,11911209,30511609,0,10111619,40511319,-2090200,40511219,11210809,31500409,0,10801409,40710509,30101909,31101209,40011409,40310809,20101119,11810409,21111619,41501409,41011619,20901119,10701219,40610619,30712009,31411909,41112009,0,10310809,0,20701519
18,108,530.952884524595,1,0,466686.883187348,466687.930219953,5,0,1,3,31,226766653,168848393,216049202,201251232,41010819,30810019,-1021111,40501119,31101219,31400709,10000419,20010219,20911019,20411609,0,21711809,11800319,0,21111419,31210719,41800809,20801709,32001419,21201809,30910209,20112009,20700119,0,40410709,30611409,20101519,21700209,11312019,40312019,41302019,31200119,11901619,21712009,21811219,0
18,109,533.824308309704,1,0,466689.624334978,466690.671341021,5,1,1,36,9,74724956,73812247,20900509,11182179,40801519,11011919,0,0,0,11400409,0,0,11511109,0,42000619,0,0,21600209,10211419,0,0,0,0,0,0,0,0,0,0,0,20900509,0,10111009,0,0,0,0,0,0,-1071170
18,110,537.802109960467,1,0,466692.365442187,466693.412465938,5,0,1,26,31,229962621,227547512,129169404,274947422,20801709,42000909,20012009,31912009,31001209,11810819,41211619,11111819,20100519,40910609,11300819,40400819,31501319,41610409,10011009,0,20711009,31101519,11311709,0,0,20202019,42001519,11101819,11410719,-1141000,32000619,40210919,20500009,31610319,40601609,40411919,40210319,20701419,40700909,0
18,111,485.940554237459,0,1,466695.083021352,466696.130053188,5,0,1,35,19,107123885,44532937,104735884,187147966,11900219,0,11711519,0,22001319,0,0,30810409,30700419,0,0,0,11111109,0,12011009,21410819,0,0,0,10602019,20111509,10100919,41100309,11310409,11510719,0,0,0,40812019,40212019,30411119,0,0,31710709,-3191091,40811009
18,112,534.520702669397,1,0,466697.647682475,466698.69471739,5,1,1,8,31,179447144,259860931,256151011,146709374,10811519,30411519,40400209,21501009,20410019,20001419,0,-4100141,31811309,11801519,21711809,41311519,30301309,21210019,40810819,41711109,10801609,40201219,21111919,40511609,20101209,30602009,30711409,20911209,41600119,20000809,30600719,21701209,21101019,30601609,0,0,40701709,0,21902009,10701819
18,113,534.270093077794,1,0,466700.388805853,466701.435859631,5,1,1,32,19,156835064,113743275,123224666,99491717,0,41110109,20702009,12011209,0,30200809,21410209,31400719,0,0,20310319,0,10410209,0,40910119,30110819,0,12001809,0,42001019,0,10711319,0,0,30312019,40200309,0,0,11510509,0,31000109,-4060061,20910819,32010219,0,0
18,114,490.723694150802,0,0,466703.106391947,466704.153425323,5,1,0,10,3,82812228,2101141,10111909,0,0,0,0,41410309,0,0,41401919,0,0,-2101141,0,0,0,0,0,0,0,0,0,0,0,10111909,0,0,0,0,0,0,0,0,0,0,0,0,0,0
18,115,414.982240065001,0,0,466705.776931193,466706.823958409,5,1,0,15,3,41612638,12021289,0,0,0,0,30311519,0,0,0,0,0,11301119,0,0,10000209,0,0,-2021080,0,0,0,0,0,0,0,0,0,0,0,0,0,0,0,0,0,0,0,0,0
18,116,378.402094705962,1,0,466708.435707186,466709.482735942,5,0,1,34,3,21811119,51702828,0,3160090,0,0,0,0,21811119,0,0,0,0,0,0,0,40201809,11501019,0,0,0,0,0,0,0,0,0,0,0,0,0,0,0,0,0,0,0,-3160090,0,0
18,117,501.645421609282,0,0,466711.059245778,466712.106210631,5,1,0,18,9,31901619,52583198,52920618,123234256,0,0,0,0,0,0,0,31901619,0,0,20411019,0,0,0,0,30101009,0,-2071170,41810609,0,0,0,0,11110009,0,0,0,0,0,20601209,0,20711619,41910319,0,0,40011109
18,118,498.333217459731,1,1,466713.741480138,466714.788513513,5,1,0,4,19,155834556,134246056,85845384,145637645,0,41610019,41100809,-1121110,0,40402009,0,31600609,0,40910619,31211909,0,21311809,0,0,40811719,0,0,11900019,0,20001209,0,21111519,11110909,11710719,10011009,0,20711909,41210909,0,32001809,20201009,0,0,0,31512009
18,119,586.870003957301,0,0,466716.364962526,466717.411987817,5,1,0,7,9,44840779,62012618,42813038,104932756,0,0,0,40710619,0,0,-4130160,0,0,40401909,21610709,0,0,0,0,0,0,0,0,0,0,0,21602019,0,21211019,0,0,0,0,11311009,41411609,0,0,42010119,0,10200019
18,120,457.602807960939,0,1,466719.188429823,466720.235468588,5,0,1,14,9,142944766,24410890,101131647,41411709,0,40110209,0,40811319,40211319,21811919,0,0,0,0,21310719,0,0,-3100171,0,0,0,0,0,40111219,0,20710409,0,0,0,0,40310019,0,41411709,0,0,0,0,0,0,0
18,121,527.714207943063,0,0,466721.906032471,466722.953121281,5,1,0,33,31,178068801,259036892,146367512,168444785,20110009,10001709,21010209,31201009,11901009,12011809,30411409,21211019,20210619,41500709,41300309,31801309,40712009,30000809,0,11411209,41810519,20500019,11311309,21000509,30510109,30411319,0,10201119,10410519,10811419,21711209,21500109,0,40600709,0,10701009,-3120011,41810109,30611619,20101219
18,122,678.253961727023,0,0,466724.576562092,466725.623595083,5,0,0,1,19,166946616,145642685,93825136,104022155,-2010051,11501019,0,40311309,40911709,0,41601919,30610609,0,0,30210009,21910419,31601319,0,0,21810419,0,40110519,0,31901709,0,10800409,10411609,0,0,40711409,0,0,31010309,20501609,10810209,0,11400009,0,0,30300019
18,123,487.762189470232,0,0,466727.400045558,466728.44706161,5,0,0,20,3,0,20410919,35941759,11701609,0,0,0,0,0,0,0,0,0,0,0,0,0,0,0,20410919,0,0,0,-4030040,0,0,0,0,0,31911719,0,0,0,0,0,0,0,0,11701609,0
18,124,496.777205262333,1,0,466730.000052641,466731.047019033,5,0,1,31,9,113734955,12011319,31901809,75270828,0,30611509,11401809,0,0,20500109,0,30911019,20310509,0,0,0,0,0,0,0,0,12011319,0,0,0,0,0,31901809,0,0,0,41810409,31310319,0,-2150100,0,0,0,0,0
18,125,467.197574966121,1,0,466732.623504232,466733.670499111,5,0,1,17,3,30411019,76053779,0,0,0,0,0,0,30411019,0,0,0,0,41311809,0,30711909,0,0,0,0,-4030061,0,0,0,0,0,0,0,0,0,0,0,0,0,0,0,0,0,0,0
18,126,375.01905777026,0,0,466735.211644894,466736.258680194,5,1,0,16,0,0,0,0,0,0,0,0,0,0,0,0,0,0,0,0,0,0,0,0,-40210091,0,0,0,0,0,0,0,0,0,0,0,0,0,0,0,0,0,0,0,0
18,127,524.11289815791,0,0,466737.811602702,466738.858633768,5,0,0,27,9,11710909,126423684,43063060,11810719,0,0,0,11710909,0,0,0,0,0,40510709,32010019,0,0,21300809,10701909,11800219,0,10100019,0,0,0,0,0,40001919,0,0,-3061141,11810719,0,0,0,0,0,0,0,0
18,128,781.334188359324,1,0,466740.576259513,466741.623284034,5,0,1,6,19,75535107,206625084,73813227,136736674,20101319,11000309,0,0,0,-3021051,30510509,10901919,0,41600409,0,0,40010309,41600809,11601419,0,41312019,30500119,21101609,21110409,0,0,0,0,0,31601209,0,0,10701409,0,30401219,31911109,11300909,21211109,0,31210919
18,129,529.9184944015,0,0,466743.505608013,466744.552640618,5,0,0,13,31,207859912,169160133,157058212,127627373,31711209,11011109,11811719,40201519,10601819,40001619,31410009,0,31110909,11900819,21000919,30501709,-2031011,31701119,20401819,20210109,21111619,10301009,20010419,40212009,11501219,10810319,12011319,10910709,0,10901009,40701209,20411819,20801809,11501009,31500309,21410709,11100909,10900809,0,0
18,130,456.958768249024,0,0,466746.246774121,466747.293788249,5,1,0,23,19,165216874,96443055,105635356,42813727,30210009,30401219,0,40601009,0,11900819,0,30201809,21902009,21310009,20510009,0,0,12001919,0,0,30710309,11910809,20601819,10610709,0,0,-2021191,20301119,30400009,0,21700509,0,11801809,0,0,0,0,20300209,0,10711709
18,131,475.029990659095,0,0,466765.999300812,466767.046333418,6,1,0,7,9,44840779,62012618,42813038,104932756,0,0,0,40710619,0,0,-4130160,0,0,40401909,21610709,0,0,0,0,0,0,0,0,0,0,0,21602019,0,21211019,0,0,0,0,11311009,41411609,0,0,42010119,0,10200019
18,132,407.237595471088,1,0,466768.611008399,466769.658052169,6,1,1,23,19,165216874,96443055,105635356,42813727,30210009,30401219,0,40601009,0,11900819,0,30201809,21902009,21310009,20510009,0,0,12001919,0,0,30710309,11910809,20601819,10610709,0,0,-2021191,20301119,30400009,0,21700509,0,11801809,0,0,0,0,20300209,0,10711709
18,133,618.042217800394,1,0,466771.187433929,466772.234467689,6,0,1,13,31,217356651,157917494,209571202,199125432,11310619,30100719,40601419,20210909,30210719,21300419,40600019,11910919,11110909,30601219,0,10610119,-2170190,11312019,0,30601819,31711009,40911119,0,11510709,20501709,31711019,40912009,11402019,41610709,10911419,41011609,42000019,10911509,10500519,0,40910119,11701609,31901119,10000219,41200319
18,134,488.455889106262,0,0,466773.963852837,466775.010895837,6,0,0,1,3,42990499,21610819,0,40811019,-1190090,41800409,0,0,0,0,0,0,0,0,0,0,0,0,0,0,21610819,0,0,0,0,0,0,0,0,0,0,0,0,0,0,0,0,0,0,40811019
18,135,456.482186564244,0,0,466776.657922822,466777.704953887,6,0,0,22,0,0,0,0,0,0,0,0,0,0,0,0,0,0,0,0,0,0,0,0,0,0,0,0,0,0,-42001591,0,0,0,0,0,0,0,0,0,0,0,0,0,0
18,136,486.554566945415,0,0,466779.222580095,466780.26961809,6,1,0,8,31,179447144,259860931,256151011,146709374,10811519,30411519,40400209,21501009,20410019,20001419,0,-4100141,31811309,11801519,21711809,41311519,30301309,21210019,40810819,41711109,10801609,40201219,21111919,40511609,20101209,30602009,30711409,20911209,41600119,20000809,30600719,21701209,21101019,30601609,0,0,40701709,0,21902009,10701819
18,137,453.624236397445,0,0,466781.963707707,466783.010735308,6,1,0,10,3,82812228,2101141,10111909,0,0,0,0,41410309,0,0,41401919,0,0,-2101141,0,0,0,0,0,0,0,0,0,0,0,10111909,0,0,0,0,0,0,0,0,0,0,0,0,0,0
18,138,437.676843605004,0,0,466784.516612507,466785.563633948,6,0,0,14,3,0,43920239,30511419,10300009,0,0,0,0,0,0,0,0,0,0,41910209,0,0,-2010030,0,0,0,0,0,0,0,0,0,0,0,30511419,0,0,10300009,0,0,0,0,0,0,0
18,139,568.183229013812,0,0,466787.198903456,466788.245935676,6,1,0,11,31,157959302,207437783,267860721,185560093,21601519,22000609,20211009,31111119,10500609,11911209,30511609,0,10111619,40511319,-2090200,40511219,11210809,31500409,0,10801409,40710509,30101909,31101209,40011409,40310809,20101119,11810409,21111619,41501409,41011619,20901119,10701219,40610619,30712009,31411909,41112009,0,10310809,0,20701519
18,140,476.595241925679,0,0,466790.010614815,466791.057646266,6,0,0,26,3,0,40800219,14931100,31410809,0,0,0,0,0,0,0,0,0,0,0,40800219,0,0,0,0,0,0,0,0,0,0,0,0,0,-3130091,11801009,0,0,31410809,0,0,0,0,0,0
18,141,632.857055403292,1,0,466792.681151366,466793.728185896,6,0,1,31,9,61502328,123113346,40801419,74261598,0,0,0,0,31500509,0,0,0,30001819,0,11010609,0,40200619,31801309,40100809,0,0,0,0,0,40801419,0,0,0,0,0,0,0,0,30200219,-2061060,42000319,0,0,0,0
18,142,453.247744590044,1,0,466795.539924588,466796.586957578,6,1,1,4,19,155834556,134246056,85845384,145637645,0,41610019,41100809,-1121110,0,40402009,0,31600609,0,40910619,31211909,0,21311809,0,0,40811719,0,0,11900019,0,20001209,0,21111519,11110909,11710719,10011009,0,20711909,41210909,0,32001809,20201009,0,0,0,31512009
18,143,390.060252451804,0,0,466798.128114139,466799.175140971,6,1,0,15,3,41612638,12021289,0,0,0,0,30311519,0,0,0,0,0,11301119,0,0,10000209,0,0,-2021080,0,0,0,0,0,0,0,0,0,0,0,0,0,0,0,0,0,0,0,0,0
18,144,439.982374839019,1,0,466800.728066558,466801.775095314,6,1,1,18,9,31901619,52583198,52920618,123234256,0,0,0,0,0,0,0,31901619,0,0,20411019,0,0,0,0,30101009,0,-2071170,41810609,0,0,0,0,11110009,0,0,0,0,0,20601209,0,20711619,41910319,0,0,40011109
18,145,633.625052520074,1,0,466803.410398698,466804.457397042,6,0,1,34,9,51320718,74723537,72522637,43991879,0,0,0,0,0,0,30610509,20710209,0,0,0,0,0,21701209,11710509,41311819,0,0,0,0,11710519,0,0,40301909,20510209,0,0,0,0,0,0,41810719,0,-2181160,0,0
18,146,415.148928179406,1,0,466806.186789504,466807.23381749,6,1,1,36,9,74724956,73812247,20900509,11182179,40801519,11011919,0,0,0,11400409,0,0,11511109,0,42000619,0,0,21600209,10211419,0,0,0,0,0,0,0,0,0,0,0,20900509,0,10111009,0,0,0,0,0,0,-1071170
18,147,637.231366767082,1,0,466808.833799936,466809.880827537,6,1,1,32,19,156835064,113743275,123224666,99491717,0,41110109,20702009,12011209,0,30200809,21410209,31400719,0,0,20310319,0,10410209,0,40910119,30110819,0,12001809,0,42001019,0,10711319,0,0,30312019,40200309,0,0,11510509,0,31000109,-4060061,20910819,32010219,0,0
18,148,396.614982688334,0,0,466811.598456362,466812.645495127,6,1,0,16,0,0,0,0,0,0,0,0,0,0,0,0,0,0,0,0,0,0,0,0,-40210091,0,0,0,0,0,0,0,0,0,0,0,0,0,0,0,0,0,0,0,0
18,149,503.143689595163,1,0,466814.127815795,466815.174852635,6,0,1,27,19,104013056,71002928,168737853,165725784,10700809,0,41110719,0,41500109,0,0,0,10701419,0,30200919,0,0,0,0,40802009,0,0,10200809,10501109,41811519,41401019,0,10310919,11310609,41101819,-2100050,31500019,20301619,0,0,0,21510809,40300809,21500819,30611709
18,150,604.773383354768,1,0,466816.763075293,466817.810101739,6,0,1,3,19,109876015,123216045,124248084,81901647,11801309,0,-4051050,20310809,0,11600819,0,31100519,31011509,0,0,0,21301709,0,40601409,20000909,20601709,20710309,0,0,21310719,0,10211009,30402019,10512009,11401209,40411119,0,0,0,21101319,30500119,0,30300209,0,0
18,151,578.091739153024,1,0,466819.574775489,466820.621810404,6,0,1,6,31,199209292,289436331,136326814,205119212,20610819,31301609,41412019,40600519,10511019,-2171160,21100209,10200819,21301119,11701609,41300819,41211319,41511409,30000209,40100219,11000119,31110419,41500209,21111319,11011819,31700319,0,41401719,0,20500119,10601519,0,30801609,21501919,21002019,10501919,30000509,10500119,0,40600209,40210909
18,152,529.374544566963,1,0,466822.292371592,466823.339412667,6,0,1,20,19,157034793,143844185,61703138,76425275,10110509,31700309,0,0,41111719,10800319,21910609,30600919,10800409,0,0,20511619,31310019,0,41611909,0,20100519,30310119,20201909,-1090120,0,0,40411109,0,0,0,0,11101409,0,0,11900319,10801519,20711809,21910219,0,0
18,153,463.63784087589,1,0,466824.892324396,466825.939364316,6,1,1,30,3,11810519,30902228,0,4081080,0,0,11810519,0,0,0,0,0,0,0,20201719,0,10700509,0,0,0,0,0,0,0,0,0,0,0,0,0,0,0,0,-4081080,0,0,0,0,0,0
18,154,577.289095555898,0,0,466827.58639669,466828.633431605,6,0,0,17,9,30201219,42263558,63924157,94003537,0,0,0,0,30201219,0,0,0,0,0,0,30811109,10301309,0,0,0,-1151140,0,31900919,11911519,0,20111719,0,0,0,0,0,0,41101109,0,0,0,0,11501219,41401209,0
18,155,615.327858016826,0,0,466830.233402887,466831.280438957,6,0,0,35,31,201154532,208759812,247039303,190769703,11300019,31810909,21811419,21810409,41910419,20300119,0,10510119,41701119,20610819,41301809,21800109,20111709,0,31610919,41111419,11611909,20601119,41611709,21211619,31101909,40900419,0,0,41000719,30401509,40811419,30800809,10311609,20610319,30401719,10311609,31701209,40700119,-4131091,11801219
18,156,844.789998314809,0,0,466833.00982988,466834.056857096,6,1,0,33,31,178068801,259036892,146367512,168444785,20110009,10001709,21010209,31201009,11901009,12011809,30411409,21211019,20210619,41500709,41300309,31801309,40712009,30000809,0,11411209,41810519,20500019,11311309,21000509,30510109,30411319,0,10201119,10410519,10811419,21711209,21500109,0,40600709,0,10701009,-3120011,41810109,30611619,20101219
18,157,544.060805230401,1,0,466841.162615496,466842.209649256,7,1,1,36,9,74724956,73812247,20900509,11182179,40801519,11011919,0,0,0,11400409,0,0,11511109,0,42000619,0,0,21600209,10211419,0,0,0,0,0,0,0,0,0,0,0,20900509,0,10111009,0,0,0,0,0,0,-1071170
18,158,711.468778376002,1,0,466843.927275002,466844.974312996,7,0,1,3,3,35100819,0,32000719,40300219,0,0,-4200100,0,0,30900719,0,0,0,0,0,0,0,0,0,0,0,0,0,0,0,0,0,0,32000719,0,0,0,0,40300219,0,0,0,0,0,0
18,159,635.355067090131,1,0,466846.821346449,466847.868374435,7,0,1,34,19,133644695,96027204,114624955,65823308,20311519,41500619,20311319,30710019,20811219,0,0,0,0,11500219,0,0,12011909,0,20111819,20401419,21501519,10500319,40102009,0,0,11310509,21701309,10610019,30901109,0,0,0,30800309,21801009,0,11201909,0,-2020081,0,0
18,160,401.945922116283,0,0,466849.703646175,466850.750679935,7,1,0,10,3,82812228,2101141,10111909,0,0,0,0,41410309,0,0,41401919,0,0,-2101141,0,0,0,0,0,0,0,0,0,0,0,10111909,0,0,0,0,0,0,0,0,0,0,0,0,0,0
18,161,537.759379250929,1,0,466852.185950674,466853.232991364,7,1,1,4,19,155834556,134246056,85845384,145637645,0,41610019,41100809,-1121110,0,40402009,0,31600609,0,40910619,31211909,0,21311809,0,0,40811719,0,0,11900019,0,20001209,0,21111519,11110909,11710719,10011009,0,20711909,41210909,0,32001809,20201009,0,0,0,31512009
18,162,548.467838321812,0,0,466854.774139456,466855.821173216,7,0,0,20,31,178947022,196545093,130106374,258418731,21810719,0,40501919,10810009,20501619,11000319,41411309,11600419,21310709,0,30410319,30300119,11411009,21101409,41610109,0,41510509,20201619,10810419,-1180161,11011419,21700719,12001809,0,11700719,40500419,21200709,31001619,41600619,31010809,20000809,10701019,10300119,40701509,41601619,31500609
18,163,442.88613536628,1,0,466857.550559519,466858.597599054,7,1,1,18,9,31901619,52583198,52920618,123234256,0,0,0,0,0,0,0,31901619,0,0,20411019,0,0,0,0,30101009,0,-2071170,41810609,0,0,0,0,11110009,0,0,0,0,0,20601209,0,20711619,41910319,0,0,40011109
18,164,562.99318530364,0,0,466860.244639513,466861.291661724,7,0,0,35,3,0,31600109,0,34452549,0,0,0,0,0,0,0,0,0,0,0,31600109,0,0,0,0,0,0,0,0,0,0,0,0,0,0,0,0,0,0,0,0,20800509,0,-3051031,10601009
18,165,679.042361734901,1,0,466862.856348639,466863.903385864,7,1,1,16,0,0,0,0,0,0,0,0,0,0,0,0,0,0,0,0,0,0,0,0,-40210091,0,0,0,0,0,0,0,0,0,0,0,0,0,0,0,0,0,0,0,0
18,166,546.787483734079,0,0,466865.632774092,466866.679812472,7,1,0,7,9,44840779,62012618,42813038,104932756,0,0,0,40710619,0,0,-4130160,0,0,40401909,21610709,0,0,0,0,0,0,0,0,0,0,0,21602019,0,21211019,0,0,0,0,11311009,41411609,0,0,42010119,0,10200019
18,167,597.7586247609,0,0,466868.432724894,466869.479750185,7,0,0,31,3,82501938,10901419,0,2020190,0,0,0,0,40600119,0,0,41901819,0,0,10901419,0,0,0,0,0,0,0,0,0,0,0,0,0,0,0,0,0,0,0,-2020190,0,0,0,0,0
18,168,535.173596465029,1,0,466871.103264909,466872.150299055,7,0,1,6,31,220599902,195926993,207830092,239359142,21011919,10410309,41601519,40701319,21900009,-1171200,10301109,31901909,41600609,20811109,30800309,11100219,0,31000909,0,40701819,31501309,30011319,30611909,21100019,0,41901309,10601909,20611109,41001219,10102009,31900609,10501919,30201419,0,41800419,31510209,41711519,40710819,21311519,21611319
18,169,621.452971885446,0,0,466873.867922106,466874.914959716,7,0,0,13,19,125525056,145265735,145337675,95924285,0,11510209,41901619,0,0,30101919,0,0,42011309,0,21101809,0,-1030080,41801209,30110709,10711209,40510719,0,22011419,0,0,40201619,41111209,0,11911609,0,30101819,0,0,10711019,0,11801119,40901619,0,21010119,11500409
18,170,581.128696212545,0,0,466876.656104266,466877.703141106,7,1,0,11,31,157959302,207437783,267860721,185560093,21601519,22000609,20211009,31111119,10500609,11911209,30511609,0,10111619,40511319,-2090200,40511219,11210809,31500409,0,10801409,40710509,30101909,31101209,40011409,40310809,20101119,11810409,21111619,41501409,41011619,20901119,10701219,40610619,30712009,31411909,41112009,0,10310809,0,20701519
18,171,551.178733352572,1,0,466879.444294511,466880.491340975,7,1,1,8,31,179447144,259860931,256151011,146709374,10811519,30411519,40400209,21501009,20410019,20001419,0,-4100141,31811309,11801519,21711809,41311519,30301309,21210019,40810819,41711109,10801609,40201219,21111919,40511609,20101209,30602009,30711409,20911209,41600119,20000809,30600719,21701209,21101019,30601609,0,0,40701709,0,21902009,10701819
18,172,530.185657320544,0,0,466882.208947472,466883.255984697,7,0,0,27,19,113834146,195727374,179595735,75523756,0,0,0,40511909,21910309,0,31401009,20010919,0,0,30911509,0,40111919,41000809,41701209,11801309,30200619,0,40510609,31201009,31600709,0,0,31710309,41512019,0,-3061080,11901909,0,0,30011619,0,0,11800009,0,21810219
18,173,798.025325697381,0,0,466884.985405262,466886.03240476,7,0,0,1,31,96168944,188946603,258568411,236658132,-2041141,11301919,10300309,0,10501509,30801209,11011219,10111419,10100219,0,0,41611519,31501419,20510909,41211509,11300819,11510219,31300209,31110409,40801319,20111309,31611209,20701409,40110219,22011309,30501109,21610119,21401419,20511819,30010119,30811419,40910909,11210909,40100419,41701119,0
18,174,767.59069703985,1,0,466887.926484292,466888.97353961,7,1,1,33,31,178068801,259036892,146367512,168444785,20110009,10001709,21010209,31201009,11901009,12011809,30411409,21211019,20210619,41500709,41300309,31801309,40712009,30000809,0,11411209,41810519,20500019,11311309,21000509,30510109,30411319,0,10201119,10410519,10811419,21711209,21500109,0,40600709,0,10701009,-3120011,41810109,30611619,20101219
18,175,492.072212393396,0,0,466890.938214437,466891.985241653,7,1,0,15,3,41612638,12021289,0,0,0,0,30311519,0,0,0,0,0,11301119,0,0,10000209,0,0,-2021080,0,0,0,0,0,0,0,0,0,0,0,0,0,0,0,0,0,0,0,0,0
18,176,551.102126191836,1,0,466893.644041129,466894.691078739,7,1,1,32,19,156835064,113743275,123224666,99491717,0,41110109,20702009,12011209,0,30200809,21410209,31400719,0,0,20310319,0,10410209,0,40910119,30110819,0,12001809,0,42001019,0,10711319,0,0,30312019,40200309,0,0,11510509,0,31000109,-4060061,20910819,32010219,0,0
18,177,414.027536928188,1,0,466896.29105772,466897.338087246,7,0,1,17,9,40700509,66732369,106624366,31010938,0,0,0,40700509,0,0,0,0,0,31711909,0,0,0,0,0,31900409,-3120051,0,41411819,0,11302019,0,0,42010409,0,0,11900119,20500119,0,0,0,10510819,0,0,0,0
18,178,546.19656864088,1,0,466898.902769927,466899.949811001,7,1,1,30,3,11810519,30902228,0,4081080,0,0,11810519,0,0,0,0,0,0,0,20201719,0,10700509,0,0,0,0,0,0,0,0,0,0,0,0,0,0,0,0,-4081080,0,0,0,0,0,0
18,179,440.266476012766,0,0,466901.549790367,466902.596823743,7,0,0,15,0,0,0,0,0,0,0,0,0,0,0,0,0,0,0,0,0,0,0,-31911301,0,0,0,0,0,0,0,0,0,0,0,0,0,0,0,0,0,0,0,0,0
18,180,460.477311455179,0,0,466904.161506038,466905.208539414,7,0,0,14,9,72913018,76484548,50322328,52811628,0,0,0,31211309,0,41701709,0,0,0,21710419,0,0,40911809,-2161201,0,0,0,11701119,0,0,0,0,0,20112009,30210319,0,0,0,11510409,0,0,41301219,0,0,0,0
18,181,544.797620503232,1,0,466906.726189489,466907.773190912,7,0,1,26,9,104805356,63112947,34880609,30010719,11700919,31601409,41501509,0,0,20001519,0,0,0,0,0,0,0,0,10511619,0,42000709,10600619,0,0,0,31700519,0,0,0,-3180090,0,0,0,0,0,0,30010719,0,0,0
18,182,516.441781073809,0,0,466909.349649549,466910.396684849,7,1,0,23,19,165216874,96443055,105635356,42813727,30210009,30401219,0,40601009,0,11900819,0,30201809,21902009,21310009,20510009,0,0,12001919,0,0,30710309,11910809,20601819,10610709,0,0,-2021191,20301119,30400009,0,21700509,0,11801809,0,0,0,0,20300209,0,10711709
18,183,436.413786723278,0,0,466924.549388468,466925.596426078,8,1,0,10,3,82812228,2101141,10111909,0,0,0,0,41410309,0,0,41401919,0,0,-2101141,0,0,0,0,0,0,0,0,0,0,0,10111909,0,0,0,0,0,0,0,0,0,0,0,0,0,0
18,184,753.736721992027,1,0,466927.114111569,466928.161086816,8,1,1,18,9,31901619,52583198,52920618,123234256,0,0,0,0,0,0,0,31901619,0,0,20411019,0,0,0,0,30101009,0,-2071170,41810609,0,0,0,0,11110009,0,0,0,0,0,20601209,0,20711619,41910319,0,0,40011109
18,185,536.075560026802,1,0,466929.984591069,466931.031628294,8,0,1,26,19,63104147,132333556,129723925,158666893,20601019,30801609,0,11701519,0,0,0,0,0,40210309,0,0,20110609,0,30701419,41311219,0,0,0,41110619,0,11110509,21201219,11300319,41810209,-3191050,0,11901019,31711919,30910609,10410409,40211519,0,11810509,0,21710909
18,186,691.535884805489,0,0,466932.643371682,466933.690407752,8,0,0,1,19,165734245,64003147,154646104,145644866,-2000161,41311009,20610109,20500819,0,20000819,21100709,0,40210619,0,0,0,0,0,30900619,21501709,11600819,0,0,10800519,21901319,40710019,0,0,30311819,10710609,40211819,31310919,41111009,0,0,0,41611419,31611519,0,0
18,187,451.028444629628,1,0,466935.572734811,466936.619765106,8,1,1,4,19,155834556,134246056,85845384,145637645,0,41610019,41100809,-1121110,0,40402009,0,31600609,0,40910619,31211909,0,21311809,0,0,40811719,0,0,11900019,0,20001209,0,21111519,11110909,11710719,10011009,0,20711909,41210909,0,32001809,20201009,0,0,0,31512009
18,188,397.474600584246,0,0,466938.1491588,466939.196191406,8,0,0,20,3,51002818,20712019,2190190,0,0,0,0,30201409,0,0,20801409,0,0,0,0,0,0,0,20712019,0,0,0,0,-2190190,0,0,0,0,0,0,0,0,0,0,0,0,0,0,0,0
18,189,460.906927881297,0,0,466940.772647347,466941.819678798,8,0,0,27,9,52111138,51811847,86145867,10210819,0,11311119,0,0,0,40800019,0,0,0,0,20111019,11400519,0,0,20300309,0,0,0,0,30802019,41901709,11401019,0,0,0,0,-2041120,0,0,0,0,0,0,10210819,0,0
18,190,573.696639854461,1,0,466943.454953695,466944.501982451,8,1,1,33,31,178068801,259036892,146367512,168444785,20110009,10001709,21010209,31201009,11901009,12011809,30411409,21211019,20210619,41500709,41300309,31801309,40712009,30000809,0,11411209,41810519,20500019,11311309,21000509,30510109,30411319,0,10201119,10410519,10811419,21711209,21500109,0,40600709,0,10701009,-3120011,41810109,30611619,20101219
18,191,509.646450169384,0,0,466946.196077842,466947.243104673,8,0,0,13,31,219677012,210069943,229765021,115425894,20410119,40510909,32000709,11311209,21310619,0,42011509,40911719,11210219,11311719,41411309,40201019,-3001141,11010409,21611409,10412009,30110809,41000119,40600519,10100219,40510309,11210019,40610909,11400609,31610809,21811619,21910009,11000919,0,0,21201409,30001519,10710119,11000919,0,31511009
18,192,498.905654414557,1,0,466948.937210844,466949.984254228,8,1,1,8,31,179447144,259860931,256151011,146709374,10811519,30411519,40400209,21501009,20410019,20001419,0,-4100141,31811309,11801519,21711809,41311519,30301309,21210019,40810819,41711109,10801609,40201219,21111919,40511609,20101209,30602009,30711409,20911209,41600119,20000809,30600719,21701209,21101019,30601609,0,0,40701709,0,21902009,10701819
18,193,426.272760145366,0,0,466951.52545198,466952.572433001,8,1,0,16,0,0,0,0,0,0,0,0,0,0,0,0,0,0,0,0,0,0,0,0,-40210091,0,0,0,0,0,0,0,0,0,0,0,0,0,0,0,0,0,0,0,0
18,194,641.815481940284,1,0,466954.207711748,466955.254751282,8,0,1,6,3,2031161,30410809,40501409,41710619,0,0,0,0,0,-2031161,0,0,0,0,0,0,0,30410809,0,0,0,0,0,0,0,0,0,0,0,0,40501409,0,0,0,0,0,0,41710619,0,0
18,195,509.590245899744,1,0,466956.937075723,466957.984113718,8,0,1,35,3,0,11111509,10611319,22911270,0,0,0,0,0,0,0,0,0,0,0,11111509,0,0,0,0,0,0,0,0,0,10611319,0,0,0,0,0,21911219,0,0,0,0,0,0,-1000051,0
18,196,396.330496587325,0,0,466959.584086539,466960.631123379,8,0,0,14,9,93624556,33802048,81511237,0,0,0,11810819,0,30502019,40610609,10701109,0,0,0,0,0,20800209,-1200020,0,11801819,0,0,0,40610019,0,0,20700209,0,20201009,0,0,0,0,0,0,0,0,0,0,0
18,197,405.084893747699,0,0,466962.219337184,466963.266370559,8,0,0,31,0,0,0,0,0,0,0,0,0,0,0,0,0,0,0,0,0,0,0,0,0,0,0,0,0,0,0,0,0,0,0,0,0,0,0,-30500491,0,0,0,0,0
18,198,530.219918873627,1,0,466964.86635262,466965.913374061,8,1,1,36,9,74724956,73812247,20900509,11182179,40801519,11011919,0,0,0,11400409,0,0,11511109,0,42000619,0,0,21600209,10211419,0,0,0,0,0,0,0,0,0,0,0,20900509,0,10111009,0,0,0,0,0,0,-1071170
18,199,461.917835345957,0,0,466967.654542479,466968.70157701,8,0,0,3,31,181630663,138357212,189136573,167344822,11200209,22000609,-1090071,41601909,41401419,12001319,11111809,20711409,20511909,32011709,11601209,11711209,30110119,11710409,10110719,20500819,0,10601019,0,41810509,0,21710509,20801609,31011419,41900209,10501109,21401209,30010219,22010009,10900319,0,10600619,10911019,21301009,21110819,40500809
18,200,381.248496007174,1,0,466970.278014473,466971.325061707,8,1,1,11,31,157959302,207437783,267860721,185560093,21601519,22000609,20211009,31111119,10500609,11911209,30511609,0,10111619,40511319,-2090200,40511219,11210809,31500409,0,10801409,40710509,30101909,31101209,40011409,40310809,20101119,11810409,21111619,41501409,41011619,20901119,10701219,40610619,30712009,31411909,41112009,0,10310809,0,20701519
18,201,610.8268944663,0,0,466972.795663778,466973.842666357,8,1,0,7,9,44840779,62012618,42813038,104932756,0,0,0,40710619,0,0,-4130160,0,0,40401909,21610709,0,0,0,0,0,0,0,0,0,0,0,21602019,0,21211019,0,0,0,0,11311009,41411609,0,0,42010119,0,10200019
18,202,603.061846923083,1,0,466975.607397465,466976.65438426,8,0,1,34,19,93412356,198668873,133824456,146713996,0,0,11001719,0,0,41900609,20000009,0,20510019,31211609,10801709,22011409,0,21510619,40111409,41310509,0,31711609,0,41600109,0,31301019,0,20711419,0,40211909,0,0,0,31511219,0,40410509,30400319,-3190040,0,41201909
18,203,381.067564419936,0,0,466978.313183352,466979.360224041,8,1,0,15,3,41612638,12021289,0,0,0,0,30311519,0,0,0,0,0,11301119,0,0,10000209,0,0,-2021080,0,0,0,0,0,0,0,0,0,0,0,0,0,0,0,0,0,0,0,0,0
18,204,528.987273864914,0,0,466980.913144625,466981.960181465,8,1,0,32,19,156835064,113743275,123224666,99491717,0,41110109,20702009,12011209,0,30200809,21410209,31400719,0,0,20310319,0,10410209,0,40910119,30110819,0,12001809,0,42001019,0,10711319,0,0,30312019,40200309,0,0,11510509,0,31000109,-4060061,20910819,32010219,0,0
18,205,476.808895240538,1,0,466983.595451357,466984.642539397,8,1,1,23,19,165216874,96443055,105635356,42813727,30210009,30401219,0,40601009,0,11900819,0,30201809,21902009,21310009,20510009,0,0,12001919,0,0,30710309,11910809,20601819,10610709,0,0,-2021191,20301119,30400009,0,21700509,0,11801809,0,0,0,0,20300209,0,10711709
18,206,441.03601295501,0,0,466986.160117484,466987.207153554,8,0,0,17,31,185046903,125777134,263659241,271167351,10701419,41510519,20910709,30611209,0,0,40400909,10610119,30302019,11712019,30511509,10601319,20500309,0,41200909,0,-1050150,10200919,21800409,41701409,41711019,11800419,21712019,11710509,30710119,41601419,40911919,31211419,20611409,21710519,41301009,40410319,30810119,11901119,31411419,41800019
18,207,613.642113981768,0,1,466988.842487735,466989.889493778,8,0,1,31,9,103313956,20412428,21810919,73532438,21301309,22011719,20000719,0,0,0,40000209,0,0,0,0,0,10202019,0,0,0,10210409,0,0,0,21810919,0,0,0,0,0,0,0,0,0,-2121020,40510209,30901209,0,0,0
18,208,425.306123157498,1,0,466991.665903832,466992.712939902,8,1,1,30,3,11810519,30902228,0,4081080,0,0,11810519,0,0,0,0,0,0,0,20201719,0,10700509,0,0,0,0,0,0,0,0,0,0,0,0,0,0,0,0,-4081080,0,0,0,0,0,0
18,209,491.176023322623,1,0,467011.95967986,467013.00672517,9,1,1,15,3,41612638,12021289,0,0,0,0,30311519,0,0,0,0,0,11301119,0,0,10000209,0,0,-2021080,0,0,0,0,0,0,0,0,0,0,0,0,0,0,0,0,0,0,0,0,0
18,210,614.46670035366,0,0,467014.618468943,467015.665498468,9,0,0,34,19,145014855,143935575,94242666,170363686,30301919,0,0,20510209,31300609,0,21401109,0,41501009,0,0,0,32011619,40901309,10010319,0,20812009,40200319,0,0,0,0,30710719,0,11911119,40810619,10810209,41410619,11800009,40710119,0,31511909,0,-3121011,0,41810019
18,211,529.344517621212,1,0,467017.465480837,467018.512517292,9,0,1,3,19,15162039,156055914,166828283,163815375,0,0,-3151130,0,0,0,12010909,0,0,21301419,0,21511519,0,0,30210519,20510419,20910119,41611919,21600919,10201809,21501709,10111009,21300909,41210419,40901509,0,0,31401719,0,0,0,40900419,0,41000209,20512019,30001009
18,212,667.651366908103,1,0,467020.218372086,467021.265404307,9,0,1,31,9,62821528,20701219,114434546,73912808,0,0,0,21511019,0,41310509,0,0,0,0,0,0,20701219,0,0,0,0,0,0,0,20511319,0,0,30611009,0,41801709,21510509,30200719,0,0,-3201180,0,0,0,40510909,0
18,213,527.757323579863,0,0,467023.077170716,467024.124192157,9,0,0,27,3,31411318,0,1041160,21110919,0,0,0,0,0,0,21100909,0,10310409,0,0,0,0,0,0,0,0,0,0,0,0,0,0,0,0,0,-1041160,0,0,0,0,0,21110919,0,0,0
18,214,473.924767691642,0,0,467025.830052726,467026.877084176,9,0,0,20,9,0,142044855,84242247,20001209,0,0,0,0,0,0,0,0,0,30000709,0,10911119,40111209,0,40511009,20510809,0,0,0,-2020010,0,31310709,10000119,0,0,40911409,0,0,0,0,0,20001209,0,0,0,0
18,215,584.376611805055,0,0,467028.559400918,467029.606452001,9,0,0,26,31,238358911,210869822,187688014,188658232,11900009,20301709,30511609,20510519,30110709,41701009,20301409,21010619,42011319,31811609,10910119,0,21801809,31511219,30311419,41211919,11611609,31700119,12001819,30601309,0,20201609,41011719,40610919,41210609,-2050030,0,0,11201919,40601219,31801509,10010419,21210009,41310919,10510319,22011919
18,216,454.322170640808,0,0,467031.300548933,467032.347581538,9,0,0,13,3,11800919,13811060,0,31600509,0,0,0,0,11800919,0,0,0,0,0,0,0,-3010141,0,0,0,0,10800919,0,0,0,0,0,0,0,0,0,0,0,0,0,0,0,0,0,31600509
18,217,563.52674117079,1,0,467033.959369197,467035.006370621,9,1,1,33,31,178068801,259036892,146367512,168444785,20110009,10001709,21010209,31201009,11901009,12011809,30411409,21211019,20210619,41500709,41300309,31801309,40712009,30000809,0,11411209,41810519,20500019,11311309,21000509,30510109,30411319,0,10201119,10410519,10811419,21711209,21500109,0,40600709,0,10701009,-3120011,41810109,30611619,20101219
18,218,461.276875343174,0,0,467036.59457711,467037.641612026,9,1,0,16,0,0,0,0,0,0,0,0,0,0,0,0,0,0,0,0,0,0,0,0,-40210091,0,0,0,0,0,0,0,0,0,0,0,0,0,0,0,0,0,0,0,0
18,219,507.352467859164,1,0,467039.300411117,467040.347448727,9,0,1,14,31,192150232,179587763,195738512,256458312,11700719,30401119,11111319,22011109,0,11411319,41901909,42000819,21611919,11801619,0,21200319,30411119,-3141160,40710409,40110509,11212019,21000609,20301309,10411409,20500219,20300619,11012009,30311219,0,41800609,41101119,40700609,40810119,40700309,20501019,40311719,21112009,21311719,31010809,0
18,220,493.323335482273,1,0,467041.900384324,467042.947408075,9,0,1,1,19,35111658,236749003,103623647,167859083,-2090120,0,21210019,11811519,0,0,0,0,0,30801419,21311919,40311009,21901509,40610809,0,0,41610819,40201519,0,0,0,30311619,31310409,0,0,0,42001619,21901819,30511209,0,11311809,10411309,0,31400209,31311619,31011109
18,221,774.271309608594,1,0,467044.500329813,467045.547368578,9,1,1,7,9,44840779,62012618,42813038,104932756,0,0,0,40710619,0,0,-4130160,0,0,40401909,21610709,0,0,0,0,0,0,0,0,0,0,0,21602019,0,21211019,0,0,0,0,11311009,41411609,0,0,42010119,0,10200019
18,222,394.380284356885,1,0,467047.347341708,467048.394379703,9,0,1,20,0,0,0,0,0,0,0,0,0,0,0,0,0,0,0,0,0,0,0,0,0,0,0,0,-40600901,0,0,0,0,0,0,0,0,0,0,0,0,0,0,0,0
18,223,521.078635880258,0,0,467049.935538189,467050.982563865,9,0,0,35,9,94312747,115126155,0,24750930,0,0,0,31901409,0,0,0,20511019,41900319,10701309,31111709,0,30101619,0,0,31200809,0,12010709,0,0,0,0,0,0,0,0,0,0,0,0,0,20610809,0,0,-4140121,0
18,224,530.738076253328,0,0,467052.66489408,467053.711939004,9,1,0,30,3,11810519,30902228,0,4081080,0,0,11810519,0,0,0,0,0,0,0,20201719,0,10700509,0,0,0,0,0,0,0,0,0,0,0,0,0,0,0,0,-4081080,0,0,0,0,0,0
18,225,490.160496265162,0,0,467055.429357261,467056.4765962,9,0,0,17,31,138548163,248908683,167067312,149167132,20310809,11510609,11911409,21111509,21001409,0,0,41300909,11401509,41411909,41711019,40401419,10410519,11110219,40810509,21901819,-1051051,40100219,40700619,10211909,0,11510119,11612009,30701419,30310309,11510609,20510319,11310409,31201819,0,20300709,11810119,20511919,11910819,30510819,11610519
18,226,594.821372593287,1,0,467058.123697097,467059.170683123,9,1,1,4,19,155834556,134246056,85845384,145637645,0,41610019,41100809,-1121110,0,40402009,0,31600609,0,40910619,31211909,0,21311809,0,0,40811719,0,0,11900019,0,20001209,0,21111519,11110909,11710719,10011009,0,20711909,41210909,0,32001809,20201009,0,0,0,31512009
18,227,377.232583297882,1,0,467060.947123204,467061.994165048,9,1,1,11,31,157959302,207437783,267860721,185560093,21601519,22000609,20211009,31111119,10500609,11911209,30511609,0,10111619,40511319,-2090200,40511219,11210809,31500409,0,10801409,40710509,30101909,31101209,40011409,40310809,20101119,11810409,21111619,41501409,41011619,20901119,10701219,40610619,30712009,31411909,41112009,0,10310809,0,20701519
18,228,573.92723148223,0,0,467063.523599548,467064.570642548,9,1,0,36,9,74724956,73812247,20900509,11182179,40801519,11011919,0,0,0,11400409,0,0,11511109,0,42000619,0,0,21600209,10211419,0,0,0,0,0,0,0,0,0,0,0,20900509,0,10111009,0,0,0,0,0,0,-1071170
18,229,387.455991527531,1,0,467066.252919253,467067.299951858,9,1,1,10,3,82812228,2101141,10111909,0,0,0,0,41410309,0,0,41401919,0,0,-2101141,0,0,0,0,0,0,0,0,0,0,0,10111909,0,0,0,0,0,0,0,0,0,0,0,0,0,0
18,230,544.904254667927,1,0,467068.876480558,467069.923437326,9,1,1,8,31,179447144,259860931,256151011,146709374,10811519,30411519,40400209,21501009,20410019,20001419,0,-4100141,31811309,11801519,21711809,41311519,30301309,21210019,40810819,41711109,10801609,40201219,21111919,40511609,20101209,30602009,30711409,20911209,41600119,20000809,30600719,21701209,21101019,30601609,0,0,40701709,0,21902009,10701819
18,231,497.356571548153,0,0,467071.499894037,467072.546935882,9,1,0,23,19,165216874,96443055,105635356,42813727,30210009,30401219,0,40601009,0,11900819,0,30201809,21902009,21310009,20510009,0,0,12001919,0,0,30710309,11910809,20601819,10610709,0,0,-2021191,20301119,30400009,0,21700509,0,11801809,0,0,0,0,20300209,0,10711709
18,232,812.724675051868,0,0,467074.170439827,467075.217518243,9,1,0,32,19,156835064,113743275,123224666,99491717,0,41110109,20702009,12011209,0,30200809,21410209,31400719,0,0,20310319,0,10410209,0,40910119,30110819,0,12001809,0,42001019,0,10711319,0,0,30312019,40200309,0,0,11510509,0,31000109,-4060061,20910819,32010219,0,0
18,233,466.101975995116,0,0,467077.123331769,467078.170369764,9,0,0,6,3,3060101,0,62512837,0,0,0,0,0,0,-3060101,0,0,0,0,0,0,0,0,0,0,0,0,11901409,0,20610109,0,0,0,0,0,30001319,0,0,0,0,0,0,0,0,0
18,234,366.303156595677,1,0,467079.735064764,467080.78209198,9,1,1,18,9,31901619,52583198,52920618,123234256,0,0,0,0,0,0,0,31901619,0,0,20411019,0,0,0,0,30101009,0,-2071170,41810609,0,0,0,0,11110009,0,0,0,0,0,20601209,0,20711619,41910319,0,0,40011109
18,235,544.48041273281,0,0,467090.087831825,467091.134875209,10,0,0,3,19,104302117,106444165,102814375,84837004,30510309,0,-2090080,0,0,0,41201319,0,30500409,31310819,0,0,10500209,41610809,11911509,0,0,11110819,10001219,21000709,0,0,10500909,0,21100119,40211419,0,10601809,11901019,0,10011319,0,20410219,0,20911419,11001219
18,236,577.304494043346,0,0,467092.734848801,467093.781889105,10,0,0,27,19,112723255,134816765,135296386,105703485,40610809,0,0,10600809,0,10310519,0,10300909,40900209,11901609,30701919,0,41101819,0,20810209,30301209,0,0,30901619,0,20411619,0,0,40610919,0,41211119,-2161110,30300319,31901519,0,0,0,10900119,21500919,11100609,0
18,237,507.381724833976,1,0,467095.381900808,467096.428905311,10,1,1,18,9,31901619,52583198,52920618,123234256,0,0,0,0,0,0,0,31901619,0,0,20411019,0,0,0,0,30101009,0,-2071170,41810609,0,0,0,0,11110009,0,0,0,0,0,20601209,0,20711619,41910319,0,0,40011109
18,238,693.963063647971,1,0,467098.017116421,467099.064152491,10,0,1,1,19,134717036,113926056,135636075,104834775,-1091071,20210609,41201419,21101409,0,0,0,20101719,31010809,20911619,31711609,0,0,0,40801519,20501309,0,0,0,0,40901519,20611209,0,42011809,0,21011219,11100319,11611219,30110819,0,20310619,0,0,10801509,32000609,0
18,239,449.031652184203,0,0,467100.92295343,467101.969986805,10,1,0,11,31,157959302,207437783,267860721,185560093,21601519,22000609,20211009,31111119,10500609,11911209,30511609,0,10111619,40511319,-2090200,40511219,11210809,31500409,0,10801409,40710509,30101909,31101209,40011409,40310809,20101119,11810409,21111619,41501409,41011619,20901119,10701219,40610619,30712009,31411909,41112009,0,10310809,0,20701519
18,240,404.272241168655,1,0,467103.534683344,467104.581717105,10,1,1,4,19,155834556,134246056,85845384,145637645,0,41610019,41100809,-1121110,0,40402009,0,31600609,0,40910619,31211909,0,21311809,0,0,40811719,0,0,11900019,0,20001209,0,21111519,11110909,11710719,10011009,0,20711909,41210909,0,32001809,20201009,0,0,0,31512009
18,241,395.691076410003,0,0,467106.052291844,467107.099332918,10,0,0,4,0,0,0,0,0,0,0,0,-40601401,0,0,0,0,0,0,0,0,0,0,0,0,0,0,0,0,0,0,0,0,0,0,0,0,0,0,0,0,0,0,0,0
18,242,375.657322991174,0,0,467108.652303162,467109.699313439,10,1,0,10,3,82812228,2101141,10111909,0,0,0,0,41410309,0,0,41401919,0,0,-2101141,0,0,0,0,0,0,0,0,0,0,0,10111909,0,0,0,0,0,0,0,0,0,0,0,0,0,0
18,243,630.048380233347,0,0,467111.122793209,467112.169830049,10,1,0,7,9,44840779,62012618,42813038,104932756,0,0,0,40710619,0,0,-4130160,0,0,40401909,21610709,0,0,0,0,0,0,0,0,0,0,0,21602019,0,21211019,0,0,0,0,11311009,41411609,0,0,42010119,0,10200019
18,244,831.18355309125,1,0,467113.875690233,467114.922732847,10,0,1,31,31,166727612,198236373,188236802,201455803,10100809,32011519,20000819,11600719,20500609,0,30011209,10601909,31900019,21011009,21701109,0,30610909,0,31200619,31801609,20510909,41400209,10011809,0,31011419,40900409,21710409,22001119,10701219,20200409,31700009,40710319,31010509,20300419,-2001091,21510609,21700709,11910819,11000619,41310709
18,245,545.254569151439,0,0,467116.816817768,467117.863853453,10,0,0,34,31,180239593,228948212,257246851,162318823,11710509,0,11811419,41111609,41201919,0,11600509,42001919,20801709,40300119,11911819,11102009,41702009,30310409,31800609,40810919,21010319,0,40301819,31000609,10810619,20810609,30410019,10010719,41200619,41301519,31400319,10411209,31711619,31211109,0,11110409,21201109,-3150040,22011309,31512019
18,246,485.78079539584,1,0,467119.605076151,467120.652074495,10,1,1,33,31,178068801,259036892,146367512,168444785,20110009,10001709,21010209,31201009,11901009,12011809,30411409,21211019,20210619,41500709,41300309,31801309,40712009,30000809,0,11411209,41810519,20500019,11311309,21000509,30510109,30411319,0,10201119,10410519,10811419,21711209,21500109,0,40600709,0,10701009,-3120011,41810109,30611619,20101219
18,247,451.433808542788,1,0,467122.287322059,467123.334358129,10,1,1,8,31,179447144,259860931,256151011,146709374,10811519,30411519,40400209,21501009,20410019,20001419,0,-4100141,31811309,11801519,21711809,41311519,30301309,21210019,40810819,41711109,10801609,40201219,21111919,40511609,20101209,30602009,30711409,20911209,41600119,20000809,30600719,21701209,21101019,30601609,0,0,40701709,0,21902009,10701819
18,248,601.766068371944,0,0,467124.840244952,467125.887271013,10,0,0,6,3,14701110,80612938,0,0,0,0,0,11700109,0,-3001001,0,0,0,0,0,0,0,0,0,40611619,0,40001319,0,0,0,0,0,0,0,0,0,0,0,0,0,0,0,0,0,0
18,249,372.341269336175,1,1,467127.675471652,467128.722513111,10,1,0,30,3,11810519,30902228,0,4081080,0,0,11810519,0,0,0,0,0,0,0,20201719,0,10700509,0,0,0,0,0,0,0,0,0,0,0,0,0,0,0,0,-4081080,0,0,0,0,0,0
18,250,369.43019455066,1,0,467130.181325368,467131.228350275,10,1,1,16,0,0,0,0,0,0,0,0,0,0,0,0,0,0,0,0,0,0,0,0,-40210091,0,0,0,0,0,0,0,0,0,0,0,0,0,0,0,0,0,0,0,0
18,251,346.809888433199,0,0,467132.69896351,467133.745966088,10,1,0,15,3,41612638,12021289,0,0,0,0,30311519,0,0,0,0,0,11301119,0,0,10000209,0,0,-2021080,0,0,0,0,0,0,0,0,0,0,0,0,0,0,0,0,0,0,0,0,0
18,252,634.626720973756,1,0,467135.193010088,467136.240036534,10,0,1,26,9,31100319,112511666,84014847,20401819,0,0,0,0,0,0,0,31100319,0,21300919,0,10910119,0,40100509,0,0,40200119,0,30601819,11601109,0,0,0,0,0,-1110010,40701909,0,0,0,0,0,0,0,0,20401819
18,253,427.179728168994,1,0,467137.95766382,467139.00470374,10,0,1,20,3,40511019,31711909,15011770,0,0,0,40511019,0,0,0,0,0,0,0,0,0,0,0,0,31711909,0,0,0,-3101151,0,11910619,0,0,0,0,0,0,0,0,0,0,0,0,0,0
18,254,495.794015005231,1,0,467140.545875699,467141.59290176,10,0,1,13,9,62612437,94723697,41601019,33512938,0,0,0,0,0,30011709,20900419,0,11700309,0,0,0,-2011140,40500319,30301919,0,0,21910319,0,0,0,0,0,0,0,0,41601019,0,0,0,0,21801719,11711219,0,0,0
18,255,545.138695917558,0,0,467143.204640914,467144.251683528,10,0,0,35,9,94231137,145525565,11910619,1180150,0,0,0,41810219,21310509,31110409,0,0,0,30411909,0,31511319,11500519,41401309,0,30700509,0,0,0,0,0,0,0,11910619,0,0,0,0,0,0,0,0,0,0,-1180150,0
18,256,449.888190312777,0,0,467145.992838858,467147.039874543,10,0,0,17,3,11700209,1110130,0,62602538,0,11700209,0,0,0,0,0,0,0,0,0,0,0,0,0,0,-1110130,0,0,0,0,0,0,0,0,0,0,0,0,0,0,30600519,0,0,32002019,0
18,257,461.393518547993,0,0,467148.616333564,467149.663360395,10,1,0,23,19,165216874,96443055,105635356,42813727,30210009,30401219,0,40601009,0,11900819,0,30201809,21902009,21310009,20510009,0,0,12001919,0,0,30710309,11910809,20601819,10610709,0,0,-2021191,20301119,30400009,0,21700509,0,11801809,0,0,0,0,20300209,0,10711709
18,258,585.778639651835,1,0,467151.192781037,467152.239796319,10,0,1,14,31,188658212,233827543,185947521,186746213,10400019,41111419,11501619,30011309,21000809,0,11311309,31610519,31711209,31801219,20700309,31211509,41701719,-4091160,31411209,41710009,31200409,0,31401819,20000609,30510209,11110209,21110519,40400719,10211419,10801609,10400409,40911819,21200019,41200419,10500419,0,11811309,40912019,0,20210209
18,259,556.662887218408,1,0,467153.839777995,467154.886859875,10,1,1,32,19,156835064,113743275,123224666,99491717,0,41110109,20702009,12011209,0,30200809,21410209,31400719,0,0,20310319,0,10410209,0,40910119,30110819,0,12001809,0,42001019,0,10711319,0,0,30312019,40200309,0,0,11510509,0,31000109,-4060061,20910819,32010219,0,0
18,260,641.791614354588,1,0,467156.592711205,467157.639705314,10,1,1,36,9,74724956,73812247,20900509,11182179,40801519,11011919,0,0,0,11400409,0,0,11511109,0,42000619,0,0,21600209,10211419,0,0,0,0,0,0,0,0,0,0,0,20900509,0,10111009,0,0,0,0,0,0,-1071170
18,261,405.974153603893,0,0,467174.298273429,467175.345314503,11,0,0,20,9,71220728,31911509,86731898,95835046,0,0,0,31210609,0,40010119,0,0,0,0,31911509,0,0,0,0,0,0,0,0,-4020070,0,41710209,0,41001619,0,0,0,0,0,21411709,31401719,0,0,31111009,11910609,0
18,262,419.001232541632,1,0,467176.898236241,467177.945277701,11,1,1,11,31,157959302,207437783,267860721,185560093,21601519,22000609,20211009,31111119,10500609,11911209,30511609,0,10111619,40511319,-2090200,40511219,11210809,31500409,0,10801409,40710509,30101909,31101209,40011409,40310809,20101119,11810409,21111619,41501409,41011619,20901119,10701219,40610619,30712009,31411909,41112009,0,10310809,0,20701519
18,263,517.546619055793,1,0,467179.47466947,467180.521709775,11,0,1,35,19,115615265,174616545,84953465,95545436,20910909,0,21701119,10302009,0,0,31300619,0,31400609,40501009,0,40101909,31711509,0,20602009,0,0,41700109,31310309,0,11111619,11010309,0,0,0,20610909,10910319,0,12011809,11811709,30211419,0,0,40310309,-1200190,0
18,264,427.862648910377,0,0,467182.180535043,467183.227580353,11,0,0,13,3,64113057,2061160,0,0,10901419,11400019,0,0,41811619,0,0,0,0,0,0,0,-2061160,0,0,0,0,0,0,0,0,0,0,0,0,0,0,0,0,0,0,0,0,0,0,0
18,265,547.259060898796,1,0,467184.709883697,467185.756922847,11,1,1,32,19,156835064,113743275,123224666,99491717,0,41110109,20702009,12011209,0,30200809,21410209,31400719,0,0,20310319,0,10410209,0,40910119,30110819,0,12001809,0,42001019,0,10711319,0,0,30312019,40200309,0,0,11510509,0,31000109,-4060061,20910819,32010219,0,0
18,266,492.496824299451,0,0,467187.321606297,467188.368645447,11,0,0,26,31,208638442,254657412,109724205,239726231,31901219,11701319,31410419,10611419,22000719,40510909,40500719,0,20001719,11011909,40110209,20010519,0,31911919,40210009,40300809,30201819,40900219,10600409,10701009,11900419,41600309,0,0,20600309,-3110041,11211709,40000319,41810409,20900119,31910919,10101909,22001609,12000209,20400619,40600119
18,267,422.967485326808,1,0,467190.039217415,467191.08625079,11,1,1,16,0,0,0,0,0,0,0,0,0,0,0,0,0,0,0,0,0,0,0,0,-40210091,0,0,0,0,0,0,0,0,0,0,0,0,0,0,0,0,0,0,0,0
18,268,381.566088821273,0,0,467192.674478068,467193.721532616,11,0,0,27,31,267967712,218647692,179356734,185660222,0,31101919,20110009,31901109,20510509,40511909,41410319,40610719,41811219,0,22000219,11110609,20311809,31900809,30510709,41100909,20711509,41001119,41511309,0,20110809,21311109,20311119,30811019,10610909,30600419,-4090041,20411619,30510319,31711109,10101919,30310809,40611419,0,10301919,11701109
18,269,485.27380177984,1,0,467195.20384212,467196.250881655,11,0,1,3,3,3191181,51511938,0,11511009,0,0,-3191181,0,0,0,0,0,0,0,0,0,0,0,0,0,40700819,10811119,0,0,0,0,0,0,0,0,0,0,0,11511009,0,0,0,0,0,0
18,270,372.674645506777,1,0,467197.827328357,467198.874370972,11,0,1,17,9,74304247,75843599,61001218,73012428,0,0,0,0,0,0,31801209,21501319,21001719,0,0,41111809,0,30610619,0,0,-4121171,0,30400709,0,0,0,0,0,0,30600509,0,31911809,0,0,41100619,0,0,0,0,0
18,271,471.631555294152,1,0,467200.368469905,467201.41550867,11,0,1,6,19,95144487,164744223,178326794,62531257,0,30211619,0,31610819,31312009,-2010040,0,0,0,20410419,30310309,10110119,31201419,31000119,0,21501519,0,20210319,0,0,41001619,31710419,31501819,0,32000219,20301709,21811009,0,0,21210619,30710019,10610619,0,0,0,0
18,272,592.252143134829,0,0,467202.944898129,467203.991937664,11,1,0,36,9,74724956,73812247,20900509,11182179,40801519,11011919,0,0,0,11400409,0,0,11511109,0,42000619,0,0,21600209,10211419,0,0,0,0,0,0,0,0,0,0,0,20900509,0,10111009,0,0,0,0,0,0,-1071170
18,273,553.813791193534,1,1,467205.78021953,467206.827226343,11,1,0,33,31,178068801,259036892,146367512,168444785,20110009,10001709,21010209,31201009,11901009,12011809,30411409,21211019,20210619,41500709,41300309,31801309,40712009,30000809,0,11411209,41810519,20500019,11311309,21000509,30510109,30411319,0,10201119,10410519,10811419,21711209,21500109,0,40600709,0,10701009,-3120011,41810109,30611619,20101219
18,274,450.738184095826,0,0,467208.521282468,467209.568329702,11,1,0,23,19,165216874,96443055,105635356,42813727,30210009,30401219,0,40601009,0,11900819,0,30201809,21902009,21310009,20510009,0,0,12001919,0,0,30710309,11910809,20601819,10610709,0,0,-2021191,20301119,30400009,0,21700509,0,11801809,0,0,0,0,20300209,0,10711709
18,275,582.464125764091,1,0,467211.109479334,467212.156521179,11,0,1,14,19,123313966,114272416,124235885,154746784,10311019,0,0,30501209,41801619,0,0,0,40700119,20910519,21210209,0,0,-1030150,0,0,40410919,30710619,0,11111419,11600119,40011219,30611909,0,0,30901219,0,10111019,30610709,21200219,0,0,21111609,31411919,0,40301309
18,276,521.622585656587,1,0,467213.909436296,467214.956474291,11,1,1,7,9,44840779,62012618,42813038,104932756,0,0,0,40710619,0,0,-4130160,0,0,40401909,21610709,0,0,0,0,0,0,0,0,0,0,0,21602019,0,21211019,0,0,0,0,11311009,41411609,0,0,42010119,0,10200019
18,277,584.946354036219,1,0,467216.674123904,467217.721136491,11,0,1,31,31,215158323,174939741,205759212,220338723,0,20610519,40512019,20211719,40812019,31100019,40801709,21110319,0,20000319,10200919,20210709,11401519,21201819,20711919,40101819,10010309,21100409,31710819,40501319,10201809,40010709,20710909,20010519,11911919,0,30701209,0,41801409,30300209,-3200030,30701219,20500819,21611909,41611119,30612009
18,278,603.625814721454,1,0,467219.462287586,467220.509340594,11,0,1,34,3,10600409,0,32001919,42562139,0,0,0,0,0,0,0,0,10600409,0,0,0,0,0,0,0,0,0,0,0,32001919,0,0,0,0,0,0,0,0,0,0,0,0,-2051030,40511109,0
18,279,480.240052333102,0,0,467222.297598592,467223.344584232,11,1,0,15,3,41612638,12021289,0,0,0,0,30311519,0,0,0,0,0,11301119,0,0,10000209,0,0,-2021080,0,0,0,0,0,0,0,0,0,0,0,0,0,0,0,0,0,0,0,0,0
18,280,514.055793057196,1,0,467224.838680471,467225.885721546,11,1,1,8,31,179447144,259860931,256151011,146709374,10811519,30411519,40400209,21501009,20410019,20001419,0,-4100141,31811309,11801519,21711809,41311519,30301309,21210019,40810819,41711109,10801609,40201219,21111919,40511609,20101209,30602009,30711409,20911209,41600119,20000809,30600719,21701209,21101019,30601609,0,0,40701709,0,21902009,10701819
18,281,525.074915552977,0,0,467227.579816937,467228.626854932,11,1,0,10,3,82812228,2101141,10111909,0,0,0,0,41410309,0,0,41401919,0,0,-2101141,0,0,0,0,0,0,0,0,0,0,0,10111909,0,0,0,0,0,0,0,0,0,0,0,0,0,0
18,282,453.523761592805,1,0,467230.262135603,467231.309173983,11,1,1,4,19,155834556,134246056,85845384,145637645,0,41610019,41100809,-1121110,0,40402009,0,31600609,0,40910619,31211909,0,21311809,0,0,40811719,0,0,11900019,0,20001209,0,21111519,11110909,11710719,10011009,0,20711909,41210909,0,32001809,20201009,0,0,0,31512009
18,283,590.430122916587,0,0,467232.85033016,467233.897368539,11,0,0,36,0,0,0,0,0,0,0,0,0,0,0,0,0,0,0,0,0,0,0,0,0,0,0,0,0,0,0,0,0,0,0,0,0,0,0,0,0,0,0,0,-20611501
18,284,478.486555162817,0,0,467235.697341669,467236.744371965,11,1,0,18,9,31901619,52583198,52920618,123234256,0,0,0,0,0,0,0,31901619,0,0,20411019,0,0,0,0,30101009,0,-2071170,41810609,0,0,0,0,11110009,0,0,0,0,0,20601209,0,20711619,41910319,0,0,40011109
18,285,961.416231235489,0,0,467238.34436288,467239.39139433,11,0,0,1,9,148835297,40101109,82112827,11600919,-4020041,0,0,0,21611409,41901919,40500619,40801309,0,0,0,0,0,0,0,0,40101109,0,10510909,31200209,0,0,0,40401709,0,0,0,0,0,0,0,11600919,0,0,0,0
18,286,625.58822252322,0,0,467241.356081091,467242.403122936,11,1,0,30,3,11810519,30902228,0,4081080,0,0,11810519,0,0,0,0,0,0,0,20201719,0,10700509,0,0,0,0,0,0,0,0,0,0,0,0,0,0,0,0,-4081080,0,0,0,0,0,0
18,287,498.106090526562,0,0,467265.520422081,467266.567448142,12,1,0,30,3,11810519,30902228,0,4081080,0,0,11810519,0,0,0,0,0,0,0,20201719,0,10700509,0,0,0,0,0,0,0,0,0,0,0,0,0,0,0,0,-4081080,0,0,0,0,0,0
18,288,524.942104006186,0,0,467268.167437902,467269.214473587,12,0,0,20,3,30001609,20722428,3060071,0,0,0,30001609,0,0,0,0,0,0,0,0,0,0,10310619,0,10411809,0,0,0,-3060071,0,0,0,0,0,0,0,0,0,0,0,0,0,0,0,0
18,289,641.938284446951,0,0,467270.920340315,467271.967381774,12,0,0,31,31,238457792,166868312,207027502,150137954,41111709,21712019,41410909,11800109,41100609,0,30810519,20100409,30411509,10300409,10010819,10001919,31410009,10911619,11111219,41210809,41911509,0,40101319,21300809,31211409,10600019,10201909,40300409,11910819,41400809,0,41310819,20401719,20611319,-4191041,10402009,20510519,21110509,0,11600019
18,290,405.502191453706,1,0,467273.696774622,467274.743811847,12,1,1,11,31,157959302,207437783,267860721,185560093,21601519,22000609,20211009,31111119,10500609,11911209,30511609,0,10111619,40511319,-2090200,40511219,11210809,31500409,0,10801409,40710509,30101909,31101209,40011409,40310809,20101119,11810409,21111619,41501409,41011619,20901119,10701219,40610619,30712009,31411909,41112009,0,10310809,0,20701519
18,291,555.839455802925,1,0,467276.202665294,467277.249654784,12,0,1,1,31,171446953,207075792,267578841,146737703,-2101150,21010509,21601619,11401519,0,41811119,21210209,31900819,20410009,20610909,30410809,11011109,20410809,40910519,31311109,41300009,11110519,0,30311209,40100619,40001019,40310319,20910519,21211309,21210809,31712019,21811019,10601309,0,20001419,31812019,0,21610019,20000409,21300809,21411719
18,292,576.646980654914,0,0,467278.896692933,467279.943734007,12,0,0,34,19,145638583,73022547,134514856,105754096,0,0,11101809,31311609,20201809,21100109,20510419,20001619,21411209,0,21011509,0,11600819,0,0,0,40410219,0,0,41011319,0,40300609,21501719,31701209,0,0,0,10310509,30010909,0,31000109,0,0,-3020041,10810819,20601709
18,293,499.170507595409,1,0,467281.626063837,467282.673100292,12,1,1,15,3,41612638,12021289,0,0,0,0,30311519,0,0,0,0,0,11301119,0,0,10000209,0,0,-2021080,0,0,0,0,0,0,0,0,0,0,0,0,0,0,0,0,0,0,0,0,0
18,294,561.429473862518,0,0,467284.178957473,467285.226004322,12,0,0,6,31,210549984,207244803,240559312,258373051,31400619,41201219,20411309,40902009,30501309,-3020091,21111509,0,22001919,0,11210619,0,41710619,31200419,31500409,30811109,20100409,40711219,21711619,11701309,31110709,40510719,21110409,0,40701809,31800719,41912019,10201819,31702009,41111419,41111819,20711119,10211419,21312019,41911209,40100219
18,295,609.93301513372,1,0,467286.814221976,467287.861255737,12,1,1,10,3,82812228,2101141,10111909,0,0,0,0,41410309,0,0,41401919,0,0,-2101141,0,0,0,0,0,0,0,0,0,0,0,10111909,0,0,0,0,0,0,0,0,0,0,0,0,0,0
18,296,423.048327094875,1,0,467289.520121041,467290.567104372,12,1,1,23,19,165216874,96443055,105635356,42813727,30210009,30401219,0,40601009,0,11900819,0,30201809,21902009,21310009,20510009,0,0,12001919,0,0,30710309,11910809,20601819,10610709,0,0,-2021191,20301119,30400009,0,21700509,0,11801809,0,0,0,0,20300209,0,10711709
18,297,515.122904849704,1,0,467292.072970022,467293.120004552,12,1,1,8,31,179447144,259860931,256151011,146709374,10811519,30411519,40400209,21501009,20410019,20001419,0,-4100141,31811309,11801519,21711809,41311519,30301309,21210019,40810819,41711109,10801609,40201219,21111919,40511609,20101209,30602009,30711409,20911209,41600119,20000809,30600719,21701209,21101019,30601609,0,0,40701709,0,21902009,10701819
18,298,390.638078853954,0,0,467294.837634917,467295.884675992,12,0,0,14,3,0,1131200,10700509,42712438,0,0,0,0,0,0,0,0,0,0,0,0,0,-1131200,0,0,0,0,0,0,0,0,0,0,0,0,10700509,0,31410619,0,0,11301819,0,0,0,0
18,299,581.376226095017,0,0,467297.425834863,467298.472886331,12,1,0,36,9,74724956,73812247,20900509,11182179,40801519,11011919,0,0,0,11400409,0,0,11511109,0,42000619,0,0,21600209,10211419,0,0,0,0,0,0,0,0,0,0,0,20900509,0,10111009,0,0,0,0,0,0,-1071170
18,300,571.055807638913,0,0,467300.119912546,467301.166951311,12,0,0,26,19,142444556,199935693,169748504,10700909,0,30011819,0,0,0,40411209,0,30811019,41210509,21300609,41910519,31111409,41101519,0,31500109,0,11000219,22011309,31711219,0,30811319,11911719,31300109,31211609,10000019,-1101101,21701409,0,0,0,0,10700909,0,0,0,0
18,301,706.520105246454,0,0,467302.884624022,467303.931615821,12,1,0,4,19,155834556,134246056,85845384,145637645,0,41610019,41100809,-1121110,0,40402009,0,31600609,0,40910619,31211909,0,21311809,0,0,40811719,0,0,11900019,0,20001209,0,21111519,11110909,11710719,10011009,0,20711909,41210909,0,32001809,20201009,0,0,0,31512009
18,302,560.998702596407,1,0,467305.813944035,467306.860979335,12,0,1,35,3,0,0,10110709,76953208,0,0,0,0,0,0,0,0,0,0,0,0,0,0,0,0,0,0,0,0,0,0,0,0,0,0,10110709,0,0,31811419,41100609,0,0,0,-4041180,0
18,303,532.458081899676,1,0,467308.531547452,467309.578590452,12,0,1,27,9,94514527,103913246,64063259,0,41501809,0,0,0,0,0,11211209,41801509,0,31300709,0,0,21511909,0,30800109,0,20300519,0,0,41001409,0,0,0,20011819,0,0,-3050031,0,0,0,0,0,0,0,0,0
18,304,618.243552395143,1,0,467311.225629755,467312.27266698,12,1,1,33,31,178068801,259036892,146367512,168444785,20110009,10001709,21010209,31201009,11901009,12011809,30411409,21211019,20210619,41500709,41300309,31801309,40712009,30000809,0,11411209,41810519,20500019,11311309,21000509,30510109,30411319,0,10201119,10410519,10811419,21711209,21500109,0,40600709,0,10701009,-3120011,41810109,30611619,20101219
18,305,532.928504166193,0,0,467313.907938797,467314.954978717,12,1,0,7,9,44840779,62012618,42813038,104932756,0,0,0,40710619,0,0,-4130160,0,0,40401909,21610709,0,0,0,0,0,0,0,0,0,0,0,21602019,0,21211019,0,0,0,0,11311009,41411609,0,0,42010119,0,10200019
18,306,441.898710501846,1,0,467316.602018791,467317.64905871,12,0,1,17,19,112744455,127013837,61422637,159444603,30411009,20812009,0,30811009,20710209,10000219,0,0,0,0,40710119,20711419,0,0,40012019,21500209,-4080071,0,0,20700009,30310909,0,0,0,10411719,0,0,20700309,42010519,31600119,11410719,0,30810809,11510919,11401209,0
18,307,417.332811688539,0,0,467319.213762949,467320.260777846,12,1,0,16,0,0,0,0,0,0,0,0,0,0,0,0,0,0,0,0,0,0,0,0,-40210091,0,0,0,0,0,0,0,0,0,0,0,0,0,0,0,0,0,0,0,0
18,308,583.077753486577,1,0,467321.884290261,467322.954867848,12,0,1,13,9,82125337,43402059,52112618,53310438,30601809,0,0,0,0,20011719,31511809,0,0,0,0,0,-1200131,0,0,20301319,0,21900609,0,11411609,0,0,0,0,0,40701009,0,0,0,41610219,11700219,0,0,0,0,0
18,309,533.746161265299,1,0,467324.743127386,467325.790118801,12,1,1,32,19,156835064,113743275,123224666,99491717,0,41110109,20702009,12011209,0,30200809,21410209,31400719,0,0,20310319,0,10410209,0,40910119,30110819,0,12001809,0,42001019,0,10711319,0,0,30312019,40200309,0,0,11510509,0,31000109,-4060061,20910819,32010219,0,0
18,310,610.373795381747,1,0,467327.366568198,467328.413625056,12,0,1,3,9,43890380,125033675,70422828,31011319,0,0,-2180171,0,0,0,0,0,41710209,0,31911519,0,0,31300019,0,30510009,20411009,10901119,40311009,0,0,0,0,0,30111819,0,0,0,0,0,0,0,0,31011319,0,0
18,311,548.119063663762,0,0,467330.213582017,467331.260616932,12,1,0,18,9,31901619,52583198,52920618,123234256,0,0,0,0,0,0,0,31901619,0,0,20411019,0,0,0,0,30101009,0,-2071170,41810609,0,0,0,0,11110009,0,0,0,0,0,20601209,0,20711619,41910319,0,0,40011109
18,312,518.186424160376,0,0,467332.813549834,467333.860582825,12,0,0,25,0,0,0,0,0,0,0,0,0,0,0,0,0,0,0,0,0,0,0,0,0,0,0,0,0,0,0,0,0,-41411901,0,0,0,0,0,0,0,0,0,0,0
18,313,521.934789023362,1,0,467353.295599105,467354.342630555,13,1,1,7,9,44840779,62012618,42813038,104932756,0,0,0,40710619,0,0,-4130160,0,0,40401909,21610709,0,0,0,0,0,0,0,0,0,0,0,21602019,0,21211019,0,0,0,0,11311009,41411609,0,0,42010119,0,10200019
18,314,631.360327184666,1,0,467355.919089577,467356.966128342,13,0,1,35,31,249939501,226846992,188728093,191565834,40600809,21510309,41102009,40011509,40300309,11611909,11800619,11100109,31901919,40702009,30410019,10511609,20910509,40100409,41710009,0,30601609,11900819,20901909,30201209,21511919,41011409,41200009,0,22000519,0,11901119,20000309,31200209,31910319,10400409,41011519,21110409,0,-4121041,31811619
18,315,634.240990038961,1,0,467358.613170725,467359.660209105,13,0,1,1,9,107211267,92512737,102113847,0,-3090130,0,0,41000609,31510519,0,0,31610009,0,0,0,0,0,31400709,40300319,0,20811709,0,0,0,0,31700519,0,30011509,0,0,40401819,0,0,0,0,0,0,0,0,0
18,316,397.670545673463,0,0,467361.377830616,467362.424875155,13,1,0,16,0,0,0,0,0,0,0,0,0,0,0,0,0,0,0,0,0,0,0,0,-40210091,0,0,0,0,0,0,0,0,0,0,0,0,0,0,0,0,0,0,0,0
18,317,494.440877169836,1,0,467363.907200442,467364.954244212,13,1,1,36,9,74724956,73812247,20900509,11182179,40801519,11011919,0,0,0,11400409,0,0,11511109,0,42000619,0,0,21600209,10211419,0,0,0,0,0,0,0,0,0,0,0,20900509,0,10111009,0,0,0,0,0,0,-1071170
18,318,423.939896689262,0,0,467366.495405392,467367.542446082,13,0,0,31,3,50712328,0,0,25021840,20310319,0,0,0,30402009,0,0,0,0,0,0,0,0,0,0,0,0,0,0,0,0,0,0,0,0,0,0,0,0,0,-4010021,0,0,0,0,21011819
18,319,497.514790506102,0,0,467369.013016972,467370.060057661,13,1,0,32,19,156835064,113743275,123224666,99491717,0,41110109,20702009,12011209,0,30200809,21410209,31400719,0,0,20310319,0,10410209,0,40910119,30110819,0,12001809,0,42001019,0,10711319,0,0,30312019,40200309,0,0,11510509,0,31000109,-4060061,20910819,32010219,0,0
18,320,490.968529367819,1,0,467371.589448276,467372.636483576,13,0,1,3,31,177688214,218924612,246568411,177848673,0,40210019,-3060111,21100919,40701409,20000809,20201319,11811709,20601919,40200619,0,11110719,21100409,21100309,22000409,31910519,41301509,30200119,20601509,41510709,41211919,20910709,20310909,41700019,40310709,10010509,10001419,11911709,30000309,31211709,21110109,0,0,31611109,41301919,10701809
18,321,487.293307029177,1,0,467374.25999907,467375.307026286,13,1,1,8,31,179447144,259860931,256151011,146709374,10811519,30411519,40400209,21501009,20410019,20001419,0,-4100141,31811309,11801519,21711809,41311519,30301309,21210019,40810819,41711109,10801609,40201219,21111919,40511609,20101209,30602009,30711409,20911209,41600119,20000809,30600719,21701209,21101019,30601609,0,0,40701709,0,21902009,10701819
18,322,530.460134497844,0,0,467376.859959958,467377.907002572,13,1,0,11,31,157959302,207437783,267860721,185560093,21601519,22000609,20211009,31111119,10500609,11911209,30511609,0,10111619,40511319,-2090200,40511219,11210809,31500409,0,10801409,40710509,30101909,31101209,40011409,40310809,20101119,11810409,21111619,41501409,41011619,20901119,10701219,40610619,30712009,31411909,41112009,0,10310809,0,20701519
18,323,408.622300019488,0,0,467379.577626894,467380.624625623,13,1,0,10,3,82812228,2101141,10111909,0,0,0,0,41410309,0,0,41401919,0,0,-2101141,0,0,0,0,0,0,0,0,0,0,0,10111909,0,0,0,0,0,0,0,0,0,0,0,0,0,0
18,324,432.87599546602,0,0,467382.083417862,467383.130482419,13,0,0,6,3,44550409,21601609,20601609,0,0,0,0,0,40510219,-4040190,0,0,0,0,0,21601609,0,0,0,0,0,0,0,0,0,0,0,0,20601609,0,0,0,0,0,0,0,0,0,0,0
18,325,360.270048433449,1,0,467384.648088224,467385.695178958,13,0,1,17,19,134525655,110147906,176356203,82411728,20911409,0,10400319,40200409,0,31912009,31101509,0,0,21001109,0,0,31601619,22011709,0,20201219,-4121131,11211119,40310819,11001409,10101909,30610609,41910819,31710219,0,10710419,0,0,40411309,0,0,0,42000419,0,0,0
18,326,338.306100806221,0,0,467387.248048727,467388.295081717,13,1,0,15,3,41612638,12021289,0,0,0,0,30311519,0,0,0,0,0,11301119,0,0,10000209,0,0,-2021080,0,0,0,0,0,0,0,0,0,0,0,0,0,0,0,0,0,0,0,0,0
18,327,562.991260492709,0,0,467389.78918912,467390.836219801,13,1,0,23,19,165216874,96443055,105635356,42813727,30210009,30401219,0,40601009,0,11900819,0,30201809,21902009,21310009,20510009,0,0,12001919,0,0,30710309,11910809,20601819,10610709,0,0,-2021191,20301119,30400009,0,21700509,0,11801809,0,0,0,0,20300209,0,10711709
18,328,461.529409745708,1,0,467392.565615727,467393.612655262,13,0,1,27,3,0,30001309,33901139,30601009,0,0,0,0,0,0,0,0,0,0,0,0,0,0,0,0,30001309,0,31811019,0,0,0,0,0,0,0,-2090120,0,0,30601009,0,0,0,0,0,0
18,329,547.087753249798,1,0,467395.142045107,467396.189090801,13,0,1,20,19,144546394,52412218,107767294,135744975,0,0,20810919,40610909,10602019,31411419,20810709,20300419,0,0,40410309,0,0,12001909,0,0,0,0,30211519,-2020110,11410809,20202009,0,21310919,11500719,11111209,0,40410819,0,0,0,10611219,31800309,31111519,21811109,0
18,330,421.552368847188,0,0,467397.812600906,467398.859635436,13,0,0,10,0,0,0,0,0,0,0,0,0,0,0,0,0,0,-31112001,0,0,0,0,0,0,0,0,0,0,0,0,0,0,0,0,0,0,0,0,0,0,0,0,0,0
18,331,607.250222179573,0,0,467400.342026552,467401.389009497,13,1,0,33,31,178068801,259036892,146367512,168444785,20110009,10001709,21010209,31201009,11901009,12011809,30411409,21211019,20210619,41500709,41300309,31801309,40712009,30000809,0,11411209,41810519,20500019,11311309,21000509,30510109,30411319,0,10201119,10410519,10811419,21711209,21500109,0,40600709,0,10701009,-3120011,41810109,30611619,20101219
18,332,480.404815578368,1,0,467403.153703264,467404.200736255,13,0,1,26,19,134425894,146035284,77404487,53625556,21601219,0,0,10200509,20901919,10100319,41511409,0,30110519,0,20201019,21711619,21800009,21710319,0,30301209,30311109,0,0,30811019,11700419,0,0,30802019,0,-4091030,0,0,11302019,0,0,20710309,11511719,10101509,0,0
18,333,626.080972549971,0,0,467405.788950829,467406.836006532,13,0,0,34,31,248355612,215855892,218327602,209615663,30801009,30200619,11910119,40011119,0,10800709,41311009,41310919,42010109,0,20901309,40210009,31611609,11100709,40510109,30110509,31310719,10100919,30010419,42001509,20911509,31401109,11400619,20601209,31601109,0,30400119,30511209,31811619,41100009,0,11900009,41201609,-1080170,41801019,10210019
18,334,601.395350939129,1,0,467408.494800234,467409.54182899,13,0,1,13,9,63411518,32211949,83935746,30312528,0,0,0,0,0,22010409,41401109,0,0,0,30010919,0,-2201030,0,0,0,0,0,0,11311409,0,0,21001509,0,21211919,0,30410909,0,0,0,0,0,10002019,0,20310509,0
18,335,400.354108482134,0,0,467411.153581617,467412.200626541,13,1,0,30,3,11810519,30902228,0,4081080,0,0,11810519,0,0,0,0,0,0,0,20201719,0,10700509,0,0,0,0,0,0,0,0,0,0,0,0,0,0,0,0,-4081080,0,0,0,0,0,0
18,336,568.264070781879,1,0,467413.694724705,467414.741767704,13,0,1,14,9,94126146,75284317,41700819,21101309,0,40812009,0,0,0,10501809,31111209,11701119,0,40001009,0,0,0,-3071180,11110909,0,21101219,0,0,0,0,0,0,0,0,0,41700819,0,0,0,21101309,0,0,0,0,0
18,337,569.599885318894,0,0,467416.412333512,467417.459373816,13,1,0,18,9,31901619,52583198,52920618,123234256,0,0,0,0,0,0,0,31901619,0,0,20411019,0,0,0,0,30101009,0,-2071170,41810609,0,0,0,0,11110009,0,0,0,0,0,20601209,0,20711619,41910319,0,0,40011109
18,338,533.64645637339,1,0,467419.10641235,467420.153451115,13,1,1,4,19,155834556,134246056,85845384,145637645,0,41610019,41100809,-1121110,0,40402009,0,31600609,0,40910619,31211909,0,21311809,0,0,40811719,0,0,11900019,0,20001209,0,21111519,11110909,11710719,10011009,0,20711909,41210909,0,32001809,20201009,0,0,0,31512009
18,339,324.846325791441,0,0,467426.576887384,467427.623931539,14,1,0,16,0,0,0,0,0,0,0,0,0,0,0,0,0,0,0,0,0,0,0,0,-40210091,0,0,0,0,0,0,0,0,0,0,0,0,0,0,0,0,0,0,0,0
18,340,469.289067841601,0,0,467429.094492804,467430.141534264,14,0,0,1,19,118103806,84034556,135323495,175217454,-3170060,0,41510009,20911009,0,20901809,0,0,31610919,10310719,0,0,40811509,22011209,0,0,10901119,0,40110019,0,20300319,21501319,0,11611219,41800619,0,0,30201509,0,31900509,10301009,0,0,31700709,30911909,40201809
18,341,453.35745846387,1,0,467431.800353373,467432.847391753,14,1,1,8,31,179447144,259860931,256151011,146709374,10811519,30411519,40400209,21501009,20410019,20001419,0,-4100141,31811309,11801519,21711809,41311519,30301309,21210019,40810819,41711109,10801609,40201219,21111919,40511609,20101209,30602009,30711409,20911209,41600119,20000809,30600719,21701209,21101019,30601609,0,0,40701709,0,21902009,10701819
18,342,438.425207743421,0,1,467434.494428747,467435.541465587,14,0,1,23,0,0,0,0,0,0,0,0,0,0,0,0,0,0,0,0,0,0,0,0,0,0,0,0,0,0,0,-11410791,0,0,0,0,0,0,0,0,0,0,0,0,0
18,343,458.508236159105,0,0,467437.094394639,467438.141432634,14,1,0,23,19,165216874,96443055,105635356,42813727,30210009,30401219,0,40601009,0,11900819,0,30201809,21902009,21310009,20510009,0,0,12001919,0,0,30710309,11910809,20601819,10610709,0,0,-2021191,20301119,30400009,0,21700509,0,11801809,0,0,0,0,20300209,0,10711709
18,344,498.511839366984,0,0,467439.647293665,467440.694332814,14,0,0,17,9,60810328,54302849,83532837,32212928,20000309,0,40810019,0,0,0,0,0,0,41801419,0,0,0,0,0,11310419,-1191011,0,41210409,0,10611509,0,0,0,31710919,0,0,11901219,0,0,20311709,0,0,0,0,0
18,345,432.675815827679,1,0,467442.364930959,467443.412015149,14,1,1,10,3,82812228,2101141,10111909,0,0,0,0,41410309,0,0,41401919,0,0,-2101141,0,0,0,0,0,0,0,0,0,0,0,10111909,0,0,0,0,0,0,0,0,0,0,0,0,0,0
18,346,415.560836379882,1,0,467444.953096258,467446.000144647,14,1,1,30,3,11810519,30902228,0,4081080,0,0,11810519,0,0,0,0,0,0,0,20201719,0,10700509,0,0,0,0,0,0,0,0,0,0,0,0,0,0,0,0,-4081080,0,0,0,0,0,0
18,347,389.401969208848,0,1,467447.447184413,467448.49424435,14,0,1,14,31,236529232,182348162,187128693,250957822,20800919,40300119,20501509,30101519,31100909,0,41201319,41412019,11110919,40611319,30701109,11311919,31601719,-4011060,10510109,21500709,11800209,20300009,31801309,21001109,40001419,21000419,31612019,30711209,11001209,0,0,41610919,40610219,31401709,41602019,0,21111019,41710209,20901519,12010209
18,348,474.609228374902,0,0,467449.953029275,467451.000078049,14,0,0,20,9,95623876,63812138,75301849,10010809,10610419,0,0,0,41901319,31201819,0,0,11910319,0,22001919,0,0,0,0,0,41810219,0,0,-4080021,31110109,0,0,0,40111719,0,0,0,0,0,0,0,10010809,0,0,0
18,349,583.137807436287,1,0,467452.623583149,467453.670615369,14,0,1,13,3,20802019,76971859,0,0,0,0,0,20802019,0,0,0,0,0,0,0,31801419,-4070131,0,0,41100309,0,0,0,0,0,0,0,0,0,0,0,0,0,0,0,0,0,0,0,0
