sub_id,Trial,RT,Resp,Error,Fix_onset,Disp_onset,block,repeat,tid,tloc,d_setsize,quad1,quad2,quad3,quad4,loc1,loc2,loc3,loc4,loc5,loc6,loc7,loc8,loc9,loc10,loc11,loc12,loc13,loc14,loc15,loc16,loc17,loc18,loc19,loc20,loc21,loc22,loc23,loc24,loc25,loc26,loc27,loc28,loc29,loc30,loc31,loc32,loc33,loc34,loc35,loc36
14,1,598.117733607069,0,0,466174.686624031,466175.73366703,1,0,0,14,9,71012138,61986047,72111838,42810928,0,30011119,0,0,0,0,41001019,0,0,0,0,20101619,0,-1081200,0,0,20501609,20301619,40900719,0,0,0,31211119,0,0,0,0,0,21100619,0,0,0,0,0,21710309,0
14,2,555.159554991405,0,0,466177.510187953,466178.557108535,1,1,0,13,31,136926103,226855954,176948922,245629441,21800719,11910209,0,20800709,0,41401519,20010719,10401719,10600509,0,20511509,31611409,-1020161,41010219,41301409,30000019,31000709,30400519,21500509,20601519,30511309,11201119,0,10800219,20810709,31411719,30111819,30501209,10001309,30201419,40300719,41200219,31111719,30510819,20901809,10900219
14,3,397.422956011724,0,0,466180.262961019,466181.309977841,1,1,0,15,9,20700519,119174937,50810318,21613428,0,0,0,0,0,0,0,20700519,0,11311809,0,40500009,0,41200509,-4161101,0,0,22001509,40210309,0,0,0,0,10600009,0,0,0,0,0,11111809,0,0,0,0,10501619,0
14,4,478.611607686616,1,0,466182.874647818,466183.921675419,1,0,1,10,19,92835375,149726894,52233137,135025065,10701519,0,10100309,0,10210609,0,0,21711419,40111519,-2001020,0,10501709,31910009,41000219,21101109,21510819,0,21702009,0,0,0,0,20811519,10310709,0,21110909,0,0,40711109,10601219,41601509,0,11010819,0,31100409,0
14,5,454.200078267604,1,0,466185.509870745,466186.556890262,1,0,1,35,3,41301419,0,0,64712888,0,0,0,0,0,0,0,41301419,0,0,0,0,0,0,0,0,0,0,0,0,0,0,0,0,0,0,0,0,0,0,21111209,40400619,0,0,-3201060,0
14,6,390.619540994521,1,0,466188.074502226,466189.121534062,1,0,1,28,0,0,0,0,0,0,0,0,0,0,0,0,0,0,0,0,0,0,0,0,0,0,0,0,0,0,0,0,0,0,0,0,-31211101,0,0,0,0,0,0,0,0
14,7,466.727092920337,0,1,466190.521486557,466191.568519933,1,1,1,26,19,53313557,154026695,65874728,158747632,0,0,0,21100419,0,0,10511719,0,21701419,21902019,0,40501019,31200919,0,20211119,0,0,40211619,30510819,21511309,10711519,0,0,0,0,-3141081,0,0,11011119,11910309,10000419,20810019,11611419,41101719,21301209,31001419
14,8,590.367699507624,1,0,466193.097900538,466194.144908121,1,0,1,8,19,93632517,227467232,174404975,94314657,0,0,0,40700809,0,30001519,0,-1030070,21900119,31310419,20511319,40001419,40810609,31500119,0,31510519,11411109,20411719,40900609,21200319,0,0,41002019,30300219,0,0,41001809,0,0,0,11801419,0,42001819,40511419,0,0
14,9,453.768152103294,1,0,466195.827239491,466196.874322526,1,1,1,20,31,246139041,188351222,239358402,184505874,40101409,21700309,40711819,40101719,30100819,11000019,31110519,21300619,10011809,30701809,0,41700919,30811919,10511619,30800619,11112009,21101809,11610519,20401019,-3010190,41500909,40501709,20711509,31110819,20600419,20610909,40910919,0,40301509,40600809,10601319,32001209,40000309,0,0,21000719
14,10,698.249159264378,1,0,466198.497756794,466199.544772076,1,1,1,36,19,127224304,71714556,104314266,159925326,41200819,20800819,0,11800119,10910519,31601209,0,10910819,0,0,10000809,0,11501609,10011819,40200319,0,0,0,0,11601109,21010219,0,41101919,30601019,0,0,0,20711019,0,0,31511909,21711719,41310409,0,40500219,-4180051
14,11,513.973736669868,0,0,466201.285910082,466202.332932679,1,1,0,18,9,60822528,138166605,0,71912128,30111909,0,0,0,0,0,0,0,30710619,0,20801909,31511409,20810219,21600819,0,0,41301109,-2141140,0,0,0,0,0,0,0,0,0,0,0,0,0,0,0,0,40311409,31600719
14,12,440.600177447777,1,0,466203.850548877,466204.897565699,1,0,1,12,3,30310409,13081420,11001219,0,0,0,0,0,0,0,0,30310409,0,0,0,-2171011,0,0,0,10910409,0,0,11001219,0,0,0,0,0,0,0,0,0,0,0,0,0,0,0,0,0
14,13,442.647399846464,0,0,466206.403417106,466207.450433928,1,1,0,33,0,0,0,0,0,0,0,0,0,0,0,0,0,0,0,0,0,0,0,0,0,0,0,0,0,0,0,0,0,0,0,0,0,0,0,0,0,-31800291,0,0,0
14,14,551.82848777622,0,0,466209.015106984,466210.062139975,1,0,0,11,31,238126902,168073445,230858231,197848212,20710519,30801319,30000909,30510209,0,41200519,11901709,41400209,31601509,41200709,-1050061,0,11700719,40500119,40300719,0,21310709,12010409,32001119,30810519,11000719,31811119,10901209,11510309,40900209,21211709,40711319,40900619,41812009,30301719,20810219,11911509,0,10810009,31302009,10000119
14,15,557.555936975405,1,0,466211.791505875,466212.838523852,1,1,1,3,31,199527662,268068331,193955104,205257812,31401319,31410309,-3170160,11911709,10010409,40111409,21010319,20500209,30001819,20800519,40111609,40910519,11011619,40400619,41611509,30810109,20610819,21801009,20510119,40110119,31310419,40511719,0,30201209,0,0,31311519,40310119,30711219,0,30011609,21200909,31210709,10711509,21000819,20100919
14,16,515.702596341725,0,0,466214.509098899,466215.55616923,1,1,0,4,3,3050060,41710628,10701909,0,0,0,0,-3050060,0,0,0,0,0,11310409,0,0,0,0,0,0,0,30400219,0,0,0,0,10701909,0,0,0,0,0,0,0,0,0,0,0,0,0
14,17,430.382543650921,1,0,466217.226434933,466218.273669863,1,1,1,7,3,1081160,31801709,11702019,21310919,0,0,0,0,0,0,-1081160,0,0,0,0,31801709,0,0,0,0,0,0,0,11702019,0,0,0,0,0,0,0,0,21310919,0,0,0,0,0,0,0
14,18,544.862619193736,0,0,466219.803052009,466220.850100783,1,1,0,24,9,11010409,41012528,94104737,82323847,0,11010409,0,0,0,0,0,0,0,0,0,0,0,0,20500709,0,20511819,0,0,0,20410509,0,31801209,-1091200,0,40801819,0,0,20201319,0,0,22011309,0,0,40111219,0
14,19,651.301245263312,0,0,466222.473564692,466223.520581514,1,0,0,32,9,62320428,112826056,71720918,11541740,0,0,0,0,20810219,0,0,41510209,0,30001219,0,0,30311709,0,21601319,0,30911809,0,31310009,0,0,0,0,40410909,0,0,0,10411619,0,0,0,-1130121,0,0,0,0
14,20,465.959480730817,0,0,466225.308774838,466226.355803209,1,0,0,22,31,207948812,188751622,158677953,248648012,41301519,20210619,11610819,0,20800409,31401119,20611109,40911909,21101309,20801809,41611419,31401219,10011719,32001209,10811619,31901319,0,10211309,40411709,11900709,10711419,-1031060,11910019,31010809,30701109,0,21001119,41210109,0,40201219,41600319,30811909,31101819,20311009,31801209,11610419
14,21,440.672935103066,0,0,466227.943996611,466228.991028831,1,1,0,34,3,0,0,82803018,23992180,0,0,0,0,0,0,0,0,0,0,0,0,0,0,0,0,0,0,0,0,0,0,0,41801109,0,41001909,0,0,0,0,0,0,21801109,-2191071,0,0
14,22,447.018631559331,1,0,466230.496880238,466231.543899369,1,0,1,28,9,52312428,70913847,22301538,25983819,0,0,0,0,30701719,0,0,0,21610709,0,0,10001719,20611119,0,0,0,40301009,0,0,0,0,0,0,11600019,10701519,0,0,-4160191,0,0,11711909,0,0,10111719,0,0
14,23,691.6393795982,0,0,466233.179147319,466234.226168761,1,0,0,5,19,147406975,175436084,52612728,134235565,0,41211109,10000619,30111409,-3181201,40001519,11000109,11901009,0,11600509,40701519,30101109,0,40711419,30910319,0,21411209,0,0,0,32001209,0,0,0,0,0,20611519,30910319,10511809,31511409,0,30101109,0,0,0,31200919
14,24,540.367815003265,1,0,466236.073189124,466237.120211721,1,1,1,25,19,156727503,63523927,126485965,146034846,21701019,20501019,0,21701819,10910719,30000309,40311509,11601109,0,0,31111109,0,21800809,10612009,0,0,0,0,22001409,0,41001519,41810719,10100209,10510919,-1061190,0,0,31710419,41310909,0,0,0,31412009,0,0,41601509
14,25,565.203186473809,0,0,466238.755466214,466239.802491506,1,0,0,29,3,20310719,31400919,0,23790120,20310719,0,0,0,0,0,0,0,0,0,0,0,0,0,0,0,0,31400919,0,0,0,0,0,0,0,0,0,0,-3190011,0,0,0,20600109,0,0,0
14,26,408.374710415956,1,0,466241.508318583,466242.555361197,1,0,1,23,31,248039322,157068912,108416063,217648302,41311419,30811819,21001709,32001009,41100119,0,30002009,31411019,20400219,10211319,0,31711919,11400419,31000019,20111909,11610909,21011009,20011409,10710809,20911509,0,10400809,-2160090,10611509,22010409,20110109,11500819,0,10101019,40101409,41010809,31100009,22011919,31212009,10311009,31800119
14,27,710.857400670648,0,0,466262.613633123,466263.660676122,2,0,0,14,9,12011309,56712008,82935176,60800938,12011309,0,0,0,0,0,0,0,0,0,0,0,31100209,-4000180,0,0,0,21611619,0,41911919,0,0,10811219,20010119,0,0,10201919,0,0,0,40400119,0,0,20400819,0,0
14,28,564.574160205666,1,0,466265.495917835,466266.542932733,2,1,1,24,9,11010409,41012528,94104737,82323847,0,11010409,0,0,0,0,0,0,0,0,0,0,0,0,20500709,0,20511819,0,0,0,20410509,0,31801209,-1091200,0,40801819,0,0,20201319,0,0,22011309,0,0,40111219,0
14,29,511.745582567528,1,0,466268.213272194,466269.260499964,2,0,1,8,19,165942326,154636574,61924266,86145366,40601109,31000309,41410519,11700309,0,40100019,0,-1130061,0,0,30500909,20510409,0,0,41511119,10501609,11310909,40301619,0,0,0,20812019,10211709,20200019,0,10700519,0,0,0,11811819,0,11910409,0,0,41611119,20812019
14,30,434.361500141677,0,0,466270.778118087,466271.825136449,2,0,0,35,0,0,0,0,0,0,0,0,0,0,0,0,0,0,0,0,0,0,0,0,0,0,0,0,0,0,0,0,0,0,0,0,0,0,0,0,0,0,0,-11501301,0
14,31,462.544107111171,0,0,466273.342756112,466274.389780634,2,1,0,4,3,3050060,41710628,10701909,0,0,0,0,-3050060,0,0,0,0,0,11310409,0,0,0,0,0,0,0,30400219,0,0,0,0,10701909,0,0,0,0,0,0,0,0,0,0,0,0,0
14,32,478.712082549464,0,0,466275.895623956,466276.942644243,2,0,0,10,3,40901219,25030330,40001319,0,0,40901219,0,0,0,0,0,0,0,-4130111,0,0,0,0,20900219,0,0,0,0,0,0,40001319,0,0,0,0,0,0,0,0,0,0,0,0,0,0
14,33,588.570701773278,1,0,466278.483786945,466279.530816086,2,0,1,28,19,97315166,125128065,145513395,136266245,0,32012009,11801819,0,41901119,0,0,11600219,0,0,20901609,31211619,0,40702009,21712009,0,10600819,0,30900319,31801419,20210319,30700219,0,31901119,0,0,0,-3050180,41000109,10301719,11001409,0,0,40811019,30101809,0
14,34,498.588001879398,0,0,466281.130776974,466282.177795721,2,1,0,3,31,199527662,268068331,193955104,205257812,31401319,31410309,-3170160,11911709,10010409,40111409,21010319,20500209,30001819,20800519,40111609,40910519,11011619,40400619,41611509,30810109,20610819,21801009,20510119,40110119,31310419,40511719,0,30201209,0,0,31311519,40310119,30711219,0,30011609,21200909,31210709,10711509,21000819,20100919
14,35,542.932424985338,0,0,466283.707191725,466284.754188914,2,0,0,5,19,67404256,83214547,102344675,187358923,0,11900809,0,0,-2090100,20801719,11300519,21311109,0,0,0,0,21112019,0,0,40501319,21601209,0,10011519,30001209,40110109,10311119,0,0,0,0,11910719,21300319,40211419,20811709,0,11311219,31801819,0,31711319,30211119
14,36,518.609821447171,0,0,466286.43650835,466287.483537491,2,0,0,23,3,30001719,0,4051040,32412628,0,0,0,0,0,0,0,0,30001719,0,0,0,0,0,0,0,0,0,0,0,0,0,-4051040,0,0,0,0,0,0,21900819,0,0,0,0,0,10511809
14,37,652.444194303826,1,0,466289.165853462,466290.212867204,2,0,1,32,31,247655611,176968631,185141203,170047235,40612009,40811009,31400309,10210019,10810309,31301409,10600119,40110009,31800419,10711109,30000319,20910219,40001409,11511019,10211809,10101219,21811519,21710009,0,41701819,0,10902019,20011909,10011619,31101009,41300909,30111919,30201919,30310009,0,0,-4111171,11610909,21400509,31901909,40510809
14,38,564.188814314548,1,0,466292.001054754,466293.04808428,2,1,1,13,31,136926103,226855954,176948922,245629441,21800719,11910209,0,20800709,0,41401519,20010719,10401719,10600509,0,20511509,31611409,-1020161,41010219,41301409,30000019,31000709,30400519,21500509,20601519,30511309,11201119,0,10800219,20810709,31411719,30111819,30501209,10001309,30201419,40300719,41200219,31111719,30510819,20901809,10900219
14,39,481.903793814126,1,0,466294.78923037,466295.836235644,2,0,1,11,31,146736003,209608553,210528721,228847432,11400909,0,20400219,30510719,31501609,0,11200619,20211109,21510819,11602009,-2190070,0,41412009,41600409,21400619,10200309,40401419,40801709,10000609,31801119,11201409,11010809,30200819,21611119,11900709,41201819,41600309,40101919,21800209,31010219,22010019,0,20512019,31301619,20210619,41900809
14,40,461.825769976713,1,0,466297.483265708,466298.53033065,2,1,1,15,9,20700519,119174937,50810318,21613428,0,0,0,0,0,0,0,20700519,0,11311809,0,40500009,0,41200509,-4161101,0,0,22001509,40210309,0,0,0,0,10600009,0,0,0,0,0,11111809,0,0,0,0,10501619,0
14,41,561.66347040562,1,0,466300.177301816,466301.224360599,2,1,1,36,19,127224304,71714556,104314266,159925326,41200819,20800819,0,11800119,10910519,31601209,0,10910819,0,0,10000809,0,11501609,10011819,40200319,0,0,0,0,11601109,21010219,0,41101919,30601019,0,0,0,20711019,0,0,31511909,21711719,41310409,0,40500219,-4180051
14,42,535.007618542295,0,0,466302.941962092,466303.988954661,2,1,0,7,3,1081160,31801709,11702019,21310919,0,0,0,0,0,0,-1081160,0,0,0,0,31801709,0,0,0,0,0,0,0,11702019,0,0,0,0,0,0,0,0,21310919,0,0,0,0,0,0,0
14,43,478.347139549442,0,0,466305.706559619,466306.753594534,2,0,0,29,3,30900109,0,41800419,44682300,30900109,0,0,0,0,0,0,0,0,0,0,0,0,0,0,0,0,0,41800419,0,0,0,0,0,0,0,0,0,-3081181,0,41601119,0,0,0,0,0
14,44,611.171759781428,0,0,466308.341782931,466309.388814767,2,1,0,25,19,156727503,63523927,126485965,146034846,21701019,20501019,0,21701819,10910719,30000309,40311509,11601109,0,0,31111109,0,21800809,10612009,0,0,0,0,22001409,0,41001519,41810719,10100209,10510919,-1061190,0,0,31710419,41310909,0,0,0,31412009,0,0,41601509
14,45,715.297155431472,0,0,466311.035823658,466312.08284279,2,1,0,18,9,60822528,138166605,0,71912128,30111909,0,0,0,0,0,0,0,30710619,0,20801909,31511409,20810219,21600819,0,0,41301109,-2141140,0,0,0,0,0,0,0,0,0,0,0,0,0,0,0,0,40311409,31600719
14,46,611.213720520027,1,0,466313.988690963,466315.03571433,2,1,1,20,31,246139041,188351222,239358402,184505874,40101409,21700309,40711819,40101719,30100819,11000019,31110519,21300619,10011809,30701809,0,41700919,30811919,10511619,30800619,11112009,21101809,11610519,20401019,-3010190,41500909,40501709,20711509,31110819,20600419,20610909,40910919,0,40301509,40600809,10601319,32001209,40000309,0,0,21000719
14,47,465.960635687225,1,0,466316.776845021,466317.823869158,2,1,1,34,3,0,0,82803018,23992180,0,0,0,0,0,0,0,0,0,0,0,0,0,0,0,0,0,0,0,0,0,0,0,41801109,0,41001909,0,0,0,0,0,0,21801109,-2191071,0,0
14,48,452.955499466043,1,0,466319.376777422,466320.423806563,2,1,1,26,19,53313557,154026695,65874728,158747632,0,0,0,21100419,0,0,10511719,0,21701419,21902019,0,40501019,31200919,0,20211119,0,0,40211619,30510819,21511309,10711519,0,0,0,0,-3141081,0,0,11011119,11910309,10000419,20810019,11611419,41101719,21301209,31001419
14,49,447.291183925699,0,0,466321.941413908,466322.988443818,2,0,0,22,31,168038902,229557931,220536612,135124564,31501909,10510519,11111909,40600909,22000419,0,10011019,30701409,11600809,31310019,21910119,10601409,30511409,20600809,11100719,40610819,21701919,41210709,30110419,10901919,41201019,-3090180,40711109,10300009,21510419,42011419,20700119,30010319,10900409,42000809,11701109,0,20310809,0,0,20201109
14,50,497.123225475661,0,0,466324.529579207,466325.576605653,2,0,0,35,9,62202638,82221047,62700428,72831978,0,0,0,0,20700819,0,0,0,41501819,0,0,21510119,40510209,0,0,0,0,20200719,0,0,0,20700019,0,0,42000409,0,0,0,0,40811319,0,31000609,0,0,-1020050,0
14,51,426.14835803397,1,0,466327.129578976,466328.176529584,2,1,1,33,0,0,0,0,0,0,0,0,0,0,0,0,0,0,0,0,0,0,0,0,0,0,0,0,0,0,0,0,0,0,0,0,0,0,0,0,0,-31800291,0,0,0
14,52,482.408477691934,1,0,466329.694141163,466330.741169534,2,0,1,12,9,40400209,51662818,62214537,84822347,40400209,0,0,0,0,0,0,0,0,30111519,0,-1140080,20411219,0,0,0,0,0,0,0,11611319,0,0,0,20201809,30401409,0,42010219,0,0,0,31501709,0,0,11310419,0
14,53,463.241271441802,1,0,466349.952400308,466350.99942483,3,1,1,34,3,0,0,82803018,23992180,0,0,0,0,0,0,0,0,0,0,0,0,0,0,0,0,0,0,0,0,0,0,0,41801109,0,41001909,0,0,0,0,0,0,21801109,-2191071,0,0
14,54,556.270167347975,1,0,466352.575866913,466353.62288489,3,1,1,36,19,127224304,71714556,104314266,159925326,41200819,20800819,0,11800119,10910519,31601209,0,10910819,0,0,10000809,0,11501609,10011819,40200319,0,0,0,0,11601109,21010219,0,41101919,30601019,0,0,0,20711019,0,0,31511909,21711719,41310409,0,40500219,-4180051
14,55,597.596111474559,1,0,466355.375781913,466356.422811054,3,0,1,14,9,114102747,2091000,21422938,84426556,41800319,0,0,0,0,0,0,30600509,41701919,0,0,0,0,-2091000,0,0,0,0,0,10911819,0,0,0,10511119,0,0,0,0,0,40702019,0,21111909,10611809,0,12000819,0
14,56,374.123193905689,1,0,466358.046307685,466359.093321043,3,0,1,28,19,148436484,91434547,166945883,73544828,0,11000609,22001919,0,31711119,30801209,31810909,21110719,0,0,20211019,0,30312019,40911509,0,0,0,0,10210919,41901319,10810409,20110509,0,0,30410109,41801209,11701409,-2120181,0,0,0,0,20001619,0,41311909,10111119
14,57,651.782831409946,0,0,466360.48152761,466361.528586007,3,1,0,3,31,199527662,268068331,193955104,205257812,31401319,31410309,-3170160,11911709,10010409,40111409,21010319,20500209,30001819,20800519,40111609,40910519,11011619,40400619,41611509,30810109,20610819,21801009,20510119,40110119,31310419,40511719,0,30201209,0,0,31311519,40310119,30711219,0,30011609,21200909,31210709,10711509,21000819,20100919
14,58,393.528690969106,1,0,466363.363803853,466364.410826834,3,0,1,11,19,154115404,134555325,123425975,72412747,0,40002019,41200719,10400419,0,20201209,11900819,30410219,0,0,-3020030,10701619,0,30211119,40010519,10511019,0,40101019,0,20011819,31411219,0,30401509,21401119,20200309,0,0,0,0,11601509,0,40110619,0,0,20700619,0
14,59,467.827696294989,1,0,466365.822556441,466366.869585967,3,0,1,23,31,235829892,195726022,196737592,168027893,0,20501309,40411009,30102019,31201509,30100709,40201619,11701509,31610209,30300019,10201719,0,30200009,20000419,40910309,31601419,11310219,21201909,40811619,11100709,41111009,10210019,-1190080,11500219,30301909,10111419,40400609,11100009,41811809,0,11601219,20011619,0,30701909,10800619,42000709
14,60,408.183769788593,1,0,466368.481299713,466369.528333858,3,0,1,29,3,0,20610818,0,12260149,0,0,0,0,0,0,0,0,0,0,0,0,0,10510209,0,0,10100609,0,0,0,0,0,0,0,0,0,0,0,-1160140,0,0,0,0,0,0,11100009
14,61,479.859266197309,0,0,466371.069475791,466372.116495307,3,1,0,20,31,246139041,188351222,239358402,184505874,40101409,21700309,40711819,40101719,30100819,11000019,31110519,21300619,10011809,30701809,0,41700919,30811919,10511619,30800619,11112009,21101809,11610519,20401019,-3010190,41500909,40501709,20711509,31110819,20600419,20610909,40910919,0,40301509,40600809,10601319,32001209,40000309,0,0,21000719
14,62,561.078714730684,0,0,466373.775263602,466374.822296592,3,0,0,5,9,24052398,42000828,73422437,22800428,11611919,0,0,0,-2030160,0,0,10410319,0,0,0,20200109,0,0,21800719,0,0,0,0,0,0,31110519,0,0,0,20700109,21611809,0,0,11400309,11400119,0,0,0,0,0
14,63,364.713593095075,1,0,466376.457561865,466377.504584461,3,0,1,10,19,156926384,125995336,51521928,177234564,40410119,32000609,0,30600819,10111319,0,32001909,0,11801609,-1171081,30200219,31100809,22010209,0,0,0,21511709,20001309,0,11211119,0,40310809,0,0,0,0,0,22010809,0,0,30700209,0,40601209,30711409,22010109,31200819
14,64,395.081238530111,0,0,466379.02219835,466380.069216327,3,1,0,15,9,20700519,119174937,50810318,21613428,0,0,0,0,0,0,0,20700519,0,11311809,0,40500009,0,41200509,-4161101,0,0,22001509,40210309,0,0,0,0,10600009,0,0,0,0,0,11111809,0,0,0,0,10501619,0
14,65,546.02520132903,0,0,466381.622124977,466382.669149498,3,0,0,35,31,208940041,175836494,219645022,231038652,40410019,21500319,10901309,30000509,21601819,41602019,11912019,20610309,10401719,31200909,40601619,0,40912009,21700219,20910119,0,20511619,0,0,40310219,21700419,31201719,11200519,10410219,41901009,21810609,41110309,10501619,31511209,41000519,10711609,41300719,21100409,41210409,-3101040,30601119
14,66,478.963687841315,0,0,466384.233817165,466385.30416817,3,1,0,24,9,11010409,41012528,94104737,82323847,0,11010409,0,0,0,0,0,0,0,0,0,0,0,0,20500709,0,20511819,0,0,0,20410509,0,31801209,-1091200,0,40801819,0,0,20201319,0,0,22011309,0,0,40111219,0
14,67,1249.15254715597,0,0,466386.91609695,466387.963115312,3,1,0,4,3,3050060,41710628,10701909,0,0,0,0,-3050060,0,0,0,0,0,11310409,0,0,0,0,0,0,0,30400219,0,0,0,0,10701909,0,0,0,0,0,0,0,0,0,0,0,0,0
14,68,560.46585686272,0,0,466390.386591617,466391.433614598,3,0,0,12,9,31110409,94872698,55924737,41601038,31110409,0,0,0,0,0,0,0,0,0,0,-2150161,41311609,21400309,0,0,30010619,0,11911909,32011419,0,0,0,0,0,0,12001409,0,20100019,0,0,0,0,21501019,0,0
14,69,531.684635556303,1,0,466393.092390977,466394.139421658,3,1,1,7,3,1081160,31801709,11702019,21310919,0,0,0,0,0,0,-1081160,0,0,0,0,31801709,0,0,0,0,0,0,0,11702019,0,0,0,0,0,0,0,0,21310919,0,0,0,0,0,0,0
14,70,425.921231042594,1,0,466395.798196881,466396.845233336,3,0,1,2,0,0,0,0,0,0,-31900501,0,0,0,0,0,0,0,0,0,0,0,0,0,0,0,0,0,0,0,0,0,0,0,0,0,0,0,0,0,0,0,0,0,0
14,71,502.034557401203,1,0,466398.456935149,466399.503975838,3,0,1,22,3,41301919,0,21261199,10310909,0,0,0,0,0,0,41301919,0,0,0,0,0,0,0,0,0,0,0,20100019,0,0,-1161180,0,0,0,0,0,0,10310909,0,0,0,0,0,0,0
14,72,585.27659077663,1,0,466401.115703443,466402.162727964,3,1,1,13,31,136926103,226855954,176948922,245629441,21800719,11910209,0,20800709,0,41401519,20010719,10401719,10600509,0,20511509,31611409,-1020161,41010219,41301409,30000019,31000709,30400519,21500509,20601519,30511309,11201119,0,10800219,20810709,31411719,30111819,30501209,10001309,30201419,40300719,41200219,31111719,30510819,20901809,10900219
14,73,469.905330624897,0,0,466403.845041626,466404.892077311,3,0,0,8,3,22701959,0,21101009,21500919,0,0,20701809,0,0,0,0,-2000150,0,0,0,0,0,0,0,0,0,0,0,0,0,0,0,0,0,0,21101009,0,0,0,0,0,0,21500919,0,0
14,74,521.100133948494,0,0,466406.503792212,466407.550813268,3,1,0,18,9,60822528,138166605,0,71912128,30111909,0,0,0,0,0,0,0,30710619,0,20801909,31511409,20810219,21600819,0,0,41301109,-2141140,0,0,0,0,0,0,0,0,0,0,0,0,0,0,0,0,40311409,31600719
14,75,479.654081980698,1,0,466409.11548363,466410.162503147,3,1,1,26,19,53313557,154026695,65874728,158747632,0,0,0,21100419,0,0,10511719,0,21701419,21902019,0,40501019,31200919,0,20211119,0,0,40211619,30510819,21511309,10711519,0,0,0,0,-3141081,0,0,11011119,11910309,10000419,20810019,11611419,41101719,21301209,31001419
14,76,561.221150273923,0,0,466411.656604005,466412.703610433,3,1,0,25,19,156727503,63523927,126485965,146034846,21701019,20501019,0,21701819,10910719,30000309,40311509,11601109,0,0,31111109,0,21800809,10612009,0,0,0,0,22001409,0,41001519,41810719,10100209,10510919,-1061190,0,0,31710419,41310909,0,0,0,31412009,0,0,41601509
14,77,475.085365294944,0,0,466414.385921785,466415.432950156,3,1,0,33,0,0,0,0,0,0,0,0,0,0,0,0,0,0,0,0,0,0,0,0,0,0,0,0,0,0,0,0,0,0,0,0,0,0,0,0,0,-31800291,0,0,0
14,78,545.644089928828,0,0,466417.068208114,466418.115227631,3,0,0,32,31,138142574,248958741,176929002,208228262,0,21510109,41010009,0,0,20500409,11810619,31301319,12010109,21310819,31811309,40000019,30001609,30910219,31810619,21011819,20501209,21601119,10701409,0,41001919,20211009,10501609,10700609,11400119,31500519,40911809,21210719,40510419,10301119,21010709,-3191040,40101509,10301009,30401719,31200019
14,79,572.214480431285,1,0,466439.373465988,466440.420493974,4,1,1,20,31,246139041,188351222,239358402,184505874,40101409,21700309,40711819,40101719,30100819,11000019,31110519,21300619,10011809,30701809,0,41700919,30811919,10511619,30800619,11112009,21101809,11610519,20401019,-3010190,41500909,40501709,20711509,31110819,20600419,20610909,40910919,0,40301509,40600809,10601319,32001209,40000309,0,0,21000719
14,80,654.27006414393,1,0,466442.173392153,466443.220420139,4,0,1,32,31,206257172,198777312,226534503,218359653,21100809,41000309,21910609,30411009,20501109,20810909,30210509,20311909,0,11811309,31510019,12010909,20011609,31510619,0,30600419,40010409,21312019,40600009,0,0,41510219,10000019,30311819,41110109,21701219,41301109,41201909,30410609,11011609,31500219,-1201051,30802019,30510109,21110909,20611219
14,81,816.008717287332,0,0,466444.914494742,466445.961515029,4,0,0,35,19,73334775,127213775,133716775,95113496,0,0,20300709,11010919,0,10201019,20510919,0,11311209,0,41500019,31700519,0,0,31610819,11202009,0,11200409,0,0,30600709,31301909,0,40700819,0,10801919,20311419,0,20901219,0,12011919,40500009,0,0,-1000040,20700309
14,82,602.715322340373,1,0,466447.785004654,466448.8320311,4,0,1,8,9,24592529,92535457,101611637,71111638,0,0,0,0,0,20511419,0,-4081110,0,0,0,0,20911719,0,30011819,0,0,41611919,0,30600609,0,0,30200819,40810209,0,0,0,0,0,0,30910219,0,0,0,40201419,0
14,83,467.690265213605,1,0,466450.584955841,466451.631962269,4,0,1,29,3,40110209,41810219,21301519,3010021,0,0,0,0,0,0,0,40110209,0,0,0,0,0,0,0,0,41810219,0,0,0,0,0,0,0,0,0,21301519,0,-3010021,0,0,0,0,0,0,0
14,84,593.663350329734,1,0,466453.278969236,466454.325984903,4,1,1,25,19,156727503,63523927,126485965,146034846,21701019,20501019,0,21701819,10910719,30000309,40311509,11601109,0,0,31111109,0,21800809,10612009,0,0,0,0,22001409,0,41001519,41810719,10100209,10510919,-1061190,0,0,31710419,41310909,0,0,0,31412009,0,0,41601509
14,85,634.967736667022,1,0,466456.10242229,466457.149442961,4,0,1,5,9,64453168,52311238,30201309,133714466,0,0,0,0,-2051040,0,41401109,21001019,0,21200519,0,0,31110719,0,0,0,0,0,0,0,0,0,0,30201309,0,0,0,0,30500019,0,0,0,41001409,20801219,41411819,0
14,86,545.208314142656,0,0,466458.949403002,466459.996429833,4,1,0,18,9,60822528,138166605,0,71912128,30111909,0,0,0,0,0,0,0,30710619,0,20801909,31511409,20810219,21600819,0,0,41301109,-2141140,0,0,0,0,0,0,0,0,0,0,0,0,0,0,0,0,40311409,31600719
14,87,488.120913389139,0,0,466461.549326549,466462.596345296,4,1,0,34,3,0,0,82803018,23992180,0,0,0,0,0,0,0,0,0,0,0,0,0,0,0,0,0,0,0,0,0,0,0,41801109,0,41001909,0,0,0,0,0,0,21801109,-2191071,0,0
14,88,543.608031410258,0,0,466464.266894166,466465.313925616,4,1,0,36,19,127224304,71714556,104314266,159925326,41200819,20800819,0,11800119,10910519,31601209,0,10910819,0,0,10000809,0,11501609,10011819,40200319,0,0,0,0,11601109,21010219,0,41101919,30601019,0,0,0,20711019,0,0,31511909,21711719,41310409,0,40500219,-4180051
14,89,512.650625838432,0,0,466466.878659111,466467.925656685,4,1,0,24,9,11010409,41012528,94104737,82323847,0,11010409,0,0,0,0,0,0,0,0,0,0,0,0,20500709,0,20511819,0,0,0,20410509,0,31801209,-1091200,0,40801819,0,0,20201319,0,0,22011309,0,0,40111219,0
14,90,559.110794274602,1,0,466469.490283162,466470.537304218,4,1,1,7,3,1081160,31801709,11702019,21310919,0,0,0,0,0,0,-1081160,0,0,0,0,31801709,0,0,0,0,0,0,0,11702019,0,0,0,0,0,0,0,0,21310919,0,0,0,0,0,0,0
14,91,400.011048594024,0,0,466472.18431696,466473.231348025,4,1,0,33,0,0,0,0,0,0,0,0,0,0,0,0,0,0,0,0,0,0,0,0,0,0,0,0,0,0,0,0,0,0,0,0,0,0,0,0,0,-31800291,0,0,0
14,92,1185.59895711951,0,0,466474.654853203,466475.701877339,4,0,0,10,31,166664173,147316774,230869721,237936792,11010709,10610019,21710109,0,40110309,31310909,0,21501609,30410509,-1180091,20801309,30010119,21112009,30800509,12011209,0,10300009,21101519,30710509,21611009,10712009,20001819,31710909,20811919,21900419,31800009,41611119,21701719,40400809,11800309,41310309,21100609,40700519,20611909,0,40310609
14,93,421.779051073827,1,0,466478.007693791,466479.054713308,4,0,1,28,19,62925137,227237623,102712556,158295965,0,0,10911809,11511709,0,40501619,0,0,0,0,0,20201619,20910619,41201619,42000919,40211019,41110519,21601309,30700819,0,0,0,40300509,0,20400909,0,11310319,-4171180,0,40410919,40100519,30400019,0,0,31401419,11811909
14,94,489.312367571983,1,0,466480.537041675,466481.584059267,4,0,1,14,3,0,21360920,0,40712328,0,0,0,0,0,0,0,0,0,0,0,0,20310719,-1050201,0,0,0,0,0,0,0,0,0,0,0,0,0,0,0,0,20210519,20501809,0,0,0,0
14,95,493.399498052895,0,0,466483.148731553,466484.195756845,4,1,0,4,3,3050060,41710628,10701909,0,0,0,0,-3050060,0,0,0,0,0,11310409,0,0,0,0,0,0,0,30400219,0,0,0,0,10701909,0,0,0,0,0,0,0,0,0,0,0,0,0
14,96,613.057298585773,0,0,466485.866292626,466486.913330235,4,1,0,3,31,199527662,268068331,193955104,205257812,31401319,31410309,-3170160,11911709,10010409,40111409,21010319,20500209,30001819,20800519,40111609,40910519,11011619,40400619,41611509,30810109,20610819,21801009,20510119,40110119,31310419,40511719,0,30201209,0,0,31311519,40310119,30711219,0,30011609,21200909,31210709,10711509,21000819,20100919
14,97,488.385381526314,0,0,466488.677994361,466489.725013493,4,0,0,11,9,72221127,1090050,113424066,32021028,0,0,10410009,0,0,0,30300809,0,31510309,0,-1090050,0,0,0,0,0,0,0,0,0,41010519,41101619,0,0,10210819,0,21101109,0,0,20010919,0,12010109,0,0,0,0
14,98,464.46275251219,1,0,466491.336739173,466492.383772548,4,1,1,15,9,20700519,119174937,50810318,21613428,0,0,0,0,0,0,0,20700519,0,11311809,0,40500009,0,41200509,-4161101,0,0,22001509,40210309,0,0,0,0,10600009,0,0,0,0,0,11111809,0,0,0,0,10501619,0
14,99,544.827587727923,0,0,466493.960201542,466495.007264175,4,0,0,12,31,181868651,182058572,176636573,156936693,12010619,11411309,11801219,10510619,11710019,41111219,31800519,11501219,40011909,31811819,31300419,-4110130,11110119,31211619,10701409,20710019,10301919,30801119,30400409,0,31500209,0,31112009,10611009,21000709,21000509,31011719,20111819,21500909,31411109,20800609,11501809,10500419,0,41110019,0
14,100,467.076252505649,1,0,466496.607175788,466497.654220327,4,0,1,22,3,10710109,52721418,2000190,0,0,0,0,0,0,0,0,10710109,0,0,0,0,0,0,0,21810609,30910809,0,0,0,0,-2000190,0,0,0,0,0,0,0,0,0,0,0,0,0,0
14,101,1846.04183159536,0,0,466499.312991316,466500.360012372,4,1,0,26,19,53313557,154026695,65874728,158747632,0,0,0,21100419,0,0,10511719,0,21701419,21902019,0,40501019,31200919,0,20211119,0,0,40211619,30510819,21511309,10711519,0,0,0,0,-3141081,0,0,11011119,11910309,10000419,20810019,11611419,41101719,21301209,31001419
14,102,549.134915927425,0,0,466503.218779435,466504.265786248,4,0,0,25,0,0,0,0,0,0,0,0,0,0,0,0,0,0,0,0,0,0,0,0,0,0,0,0,0,0,0,0,0,-32000501,0,0,0,0,0,0,0,0,0,0,0
14,103,481.943444814533,1,0,466505.995182945,466507.042247117,4,1,1,13,31,136926103,226855954,176948922,245629441,21800719,11910209,0,20800709,0,41401519,20010719,10401719,10600509,0,20511509,31611409,-1020161,41010219,41301409,30000019,31000709,30400519,21500509,20601519,30511309,11201119,0,10800219,20810709,31411719,30111819,30501209,10001309,30201419,40300719,41200219,31111719,30510819,20901809,10900219
14,104,668.306510720868,1,0,466508.571561509,466509.618589495,4,0,1,23,19,92723527,178158083,65474738,197241803,0,31810109,0,0,0,0,30611609,30301809,0,20700109,0,31310109,40001209,31611919,22011409,11511919,21011409,0,0,30401609,0,31002019,-4071110,0,0,0,0,10501209,0,41311919,31911519,40401919,12001909,30511619,0,30601709
14,105,520.524617284536,0,0,466525.265209191,466526.312241412,5,0,0,23,31,211548002,148528692,129940374,233825202,21510809,22010819,21400009,30711219,41810909,0,21700719,21302009,31101509,21410709,10501609,21600909,31011319,11400319,20301309,10601609,21700909,0,21302009,10401819,20811119,20301619,-3100151,11511519,0,11000519,31511619,10010009,0,40100719,41600619,20502009,40110809,30200609,40800019,10500409
14,106,445.751724997535,0,0,466527.912200375,466528.959227206,5,1,0,33,0,0,0,0,0,0,0,0,0,0,0,0,0,0,0,0,0,0,0,0,0,0,0,0,0,0,0,0,0,0,0,0,0,0,0,0,0,-31800291,0,0,0
14,107,463.122703426052,0,0,466530.429781157,466531.476801059,5,1,0,7,3,1081160,31801709,11702019,21310919,0,0,0,0,0,0,-1081160,0,0,0,0,31801709,0,0,0,0,0,0,0,11702019,0,0,0,0,0,0,0,0,21310919,0,0,0,0,0,0,0
14,108,483.104487124365,0,0,466533.088532513,466534.1355528,5,0,0,10,9,40611309,53252329,61914366,53121028,0,0,0,0,0,0,40611309,0,0,-3151001,0,0,0,0,10000509,0,40100819,0,20001219,11110319,0,0,20301519,0,0,10501309,0,41410309,0,11710719,0,0,0,0,0,0
14,109,574.624336091802,1,0,466535.700217387,466536.747249608,5,0,1,8,31,229648992,220037721,167928483,174259193,11701209,31310809,41710909,10900909,20111219,40911419,30811309,-1090000,41101209,11611109,11100509,40800119,21412019,41101109,22000119,40212009,21200219,10600509,21801719,21911009,20812009,41400309,0,30901609,0,10300419,20801409,11011619,30911709,20200719,0,0,41010309,20201809,30111619,20811409
14,110,677.58445488289,1,0,466538.453088234,466539.5001116,5,1,1,26,19,53313557,154026695,65874728,158747632,0,0,0,21100419,0,0,10511719,0,21701419,21902019,0,40501019,31200919,0,20211119,0,0,40211619,30510819,21511309,10711519,0,0,0,0,-3141081,0,0,11011119,11910309,10000419,20810019,11611419,41101719,21301209,31001419
14,111,614.426604763139,1,0,466541.182422567,466542.229444393,5,1,1,25,19,156727503,63523927,126485965,146034846,21701019,20501019,0,21701819,10910719,30000309,40311509,11601109,0,0,31111109,0,21800809,10612009,0,0,0,0,22001409,0,41001519,41810719,10100209,10510919,-1061190,0,0,31710419,41310909,0,0,0,31412009,0,0,41601509
14,112,586.463425483089,1,0,466543.947053971,466544.994075797,5,0,1,35,19,124136055,157224775,93023037,119116054,0,31410909,31811809,0,0,10301709,0,10300709,40310919,0,0,0,21201809,40511009,42000819,0,11810319,41700819,40411019,0,0,41810709,0,10801309,0,0,0,11601709,11701709,22000919,21210009,0,21101519,30500009,-1000180,0
14,113,465.521780133713,1,0,466546.746970126,466547.793996187,5,1,1,15,9,20700519,119174937,50810318,21613428,0,0,0,0,0,0,0,20700519,0,11311809,0,40500009,0,41200509,-4161101,0,0,22001509,40210309,0,0,0,0,10600009,0,0,0,0,0,11111809,0,0,0,0,10501619,0
14,114,470.845020317938,0,0,466549.346902142,466550.393927818,5,1,0,4,3,3050060,41710628,10701909,0,0,0,0,-3050060,0,0,0,0,0,11310409,0,0,0,0,0,0,0,30400219,0,0,0,0,10701909,0,0,0,0,0,0,0,0,0,0,0,0,0
14,115,419.996296870522,0,0,466552.052716515,466553.099737957,5,0,0,17,0,0,0,0,0,0,0,0,0,0,0,0,0,0,0,0,0,0,0,0,0,-32009991,0,0,0,0,0,0,0,0,0,0,0,0,0,0,0,0,0,0,0
14,116,384.915189410094,0,0,466554.605582434,466555.652655461,5,0,0,14,3,0,43732139,0,32212128,0,0,0,0,0,0,0,0,0,0,40611019,0,0,-3121120,0,0,0,0,0,0,0,0,0,0,0,0,0,0,0,0,0,20400309,0,0,11811819,0
14,117,590.677978063468,1,0,466557.193773141,466558.24076879,5,0,1,5,9,67122617,123434946,41001619,12000309,11811609,0,31800209,21500609,-2010190,0,0,0,0,20510409,0,31211719,31100809,0,0,0,40612009,0,0,0,0,0,0,41001619,0,0,0,0,0,0,0,0,12000309,0,0,0
14,118,731.048603076488,0,0,466559.852478686,466560.899518221,5,1,0,13,31,136926103,226855954,176948922,245629441,21800719,11910209,0,20800709,0,41401519,20010719,10401719,10600509,0,20511509,31611409,-1020161,41010219,41301409,30000019,31000709,30400519,21500509,20601519,30511309,11201119,0,10800219,20810709,31411719,30111819,30501209,10001309,30201419,40300719,41200219,31111719,30510819,20901809,10900219
14,119,466.996565577574,1,0,466562.699478262,466563.746498164,5,1,1,34,3,0,0,82803018,23992180,0,0,0,0,0,0,0,0,0,0,0,0,0,0,0,0,0,0,0,0,0,0,0,41801109,0,41001909,0,0,0,0,0,0,21801109,-2191071,0,0
14,120,389.755303622223,1,0,466565.228815367,466566.275839118,5,0,1,22,3,41801719,11901919,1110141,30610109,0,0,0,0,0,41801719,0,0,0,0,0,0,0,0,0,0,11901919,0,0,0,0,-1110141,0,0,0,0,0,0,0,0,0,30610109,0,0,0,0
14,121,530.677577713504,1,0,466567.781692835,466568.828710427,5,1,1,3,31,199527662,268068331,193955104,205257812,31401319,31410309,-3170160,11911709,10010409,40111409,21010319,20500209,30001819,20800519,40111609,40910519,11011619,40400619,41611509,30810109,20610819,21801009,20510119,40110119,31310419,40511719,0,30201209,0,0,31311519,40310119,30711219,0,30011609,21200909,31210709,10711509,21000819,20100919
14,122,561.57762411749,1,0,466570.416909987,466571.463954142,5,0,1,32,19,117646175,134814965,105625375,74162076,0,0,32011009,11811719,21600119,0,41911519,0,10311809,31200409,0,40401809,0,11300419,10400319,0,41512009,0,0,20500719,40912019,0,0,12001509,11510919,20700209,0,10010509,11301109,20800409,0,-2040030,0,0,30010019,0
14,123,424.292846175376,1,0,466573.205063661,466574.252085102,5,0,1,28,31,256767021,167135383,166047202,211620133,40500909,32010519,41010219,21011009,10210909,40710609,20000719,40601209,10710919,30710509,0,30100109,0,11200709,41711809,10000309,32000719,11411219,10110009,10801509,20810119,41601109,20501009,10112019,31900219,0,20211209,-1061130,0,41310409,21901909,21411519,21411119,31211219,41911609,31401219
14,124,545.676811598241,0,0,466575.816805124,466576.863791534,5,1,0,20,31,246139041,188351222,239358402,184505874,40101409,21700309,40711819,40101719,30100819,11000019,31110519,21300619,10011809,30701809,0,41700919,30811919,10511619,30800619,11112009,21101809,11610519,20401019,-3010190,41500909,40501709,20711509,31110819,20600419,20610909,40910919,0,40301509,40600809,10601319,32001209,40000309,0,0,21000719
14,125,540.412085538264,0,0,466578.499042563,466579.546061695,5,0,0,11,3,0,1011151,21901419,32411638,0,0,0,0,0,0,0,0,0,0,-1011151,0,0,0,0,0,0,0,21901419,0,0,0,0,0,0,0,0,0,0,0,0,0,21000619,0,0,11411019
14,126,602.466252632439,0,0,466581.263669348,466582.310693484,5,0,0,29,19,83023937,185366404,93123565,136835456,0,21401509,0,0,31511309,0,0,0,30111119,0,40111809,0,20410319,20811019,30110719,31910919,42011619,0,0,40800709,0,0,10000709,0,20400719,10910719,11010709,21700009,-1100091,30301009,0,40310519,0,0,32012019,11411809
14,127,537.01172536239,0,0,466583.981236194,466585.028265335,5,1,0,36,19,127224304,71714556,104314266,159925326,41200819,20800819,0,11800119,10910519,31601209,0,10910819,0,0,10000809,0,11501609,10011819,40200319,0,0,0,0,11601109,21010219,0,41101919,30601019,0,0,0,20711019,0,0,31511909,21711719,41310409,0,40500219,-4180051
14,128,472.541158320382,0,0,466586.75763239,466587.804654601,5,1,0,18,9,60822528,138166605,0,71912128,30111909,0,0,0,0,0,0,0,30710619,0,20801909,31511409,20810219,21600819,0,0,41301109,-2141140,0,0,0,0,0,0,0,0,0,0,0,0,0,0,0,0,40311409,31600719
14,129,531.206898973323,1,0,466589.439912945,466590.486937851,5,1,1,24,9,11010409,41012528,94104737,82323847,0,11010409,0,0,0,0,0,0,0,0,0,0,0,0,20500709,0,20511819,0,0,0,20410509,0,31801209,-1091200,0,40801819,0,0,20201319,0,0,22011309,0,0,40111219,0
14,130,640.676322742365,1,0,466592.098663146,466593.145689977,5,0,1,12,9,82911837,84113787,0,60914557,0,21101209,0,0,20600119,0,41210509,0,0,0,0,-2190050,0,30511609,0,30800309,20611819,0,0,0,0,0,0,0,0,0,0,0,40301619,10511419,0,0,0,0,0,10101519
14,131,472.616995626595,0,0,466619.474378885,466620.52141072,6,0,0,28,3,31022618,0,41410609,2160130,0,20711209,0,0,0,0,0,0,10311409,0,0,0,0,0,0,0,0,0,0,0,0,0,41410609,0,0,0,0,-2160130,0,0,0,0,0,0,0,0
14,132,497.683728579432,1,0,466622.180177475,466623.227210465,6,1,1,20,31,246139041,188351222,239358402,184505874,40101409,21700309,40711819,40101719,30100819,11000019,31110519,21300619,10011809,30701809,0,41700919,30811919,10511619,30800619,11112009,21101809,11610519,20401019,-3010190,41500909,40501709,20711509,31110819,20600419,20610909,40910919,0,40301509,40600809,10601319,32001209,40000309,0,0,21000719
14,133,417.242671130225,1,0,466624.909519122,466625.956542488,6,0,1,29,19,83744866,143127275,135425884,76254396,0,0,21311919,0,10710519,31110509,0,20611919,0,40701919,31011819,40200109,0,0,10202009,0,0,21011419,0,20911209,0,20411919,31700409,31500109,10700619,20201619,0,20910219,-3120030,0,20611019,0,20712019,0,10901109,0
14,134,365.224051347468,1,0,466627.556497602,466628.603519043,6,1,1,15,9,20700519,119174937,50810318,21613428,0,0,0,0,0,0,0,20700519,0,11311809,0,40500009,0,41200509,-4161101,0,0,22001509,40210309,0,0,0,0,10600009,0,0,0,0,0,11111809,0,0,0,0,10501619,0
14,135,468.52409071289,1,0,466630.109379689,466631.156398821,6,1,1,25,19,156727503,63523927,126485965,146034846,21701019,20501019,0,21701819,10910719,30000309,40311509,11601109,0,0,31111109,0,21800809,10612009,0,0,0,0,22001409,0,41001519,41810719,10100209,10510919,-1061190,0,0,31710419,41310909,0,0,0,31412009,0,0,41601509
14,136,530.557854799554,0,0,466632.756383191,466633.803377686,6,1,0,26,19,53313557,154026695,65874728,158747632,0,0,0,21100419,0,0,10511719,0,21701419,21902019,0,40501019,31200919,0,20211119,0,0,40211619,30510819,21511309,10711519,0,0,0,0,-3141081,0,0,11011119,11910309,10000419,20810019,11611419,41101719,21301209,31001419
14,137,476.855030865408,0,0,466635.368041888,466636.415082963,6,0,0,10,9,0,15862300,105404556,126123866,0,0,0,0,0,0,0,0,0,-4151181,0,0,0,0,0,11711119,0,0,0,0,0,0,41800719,10601519,21200809,31801509,0,0,0,0,0,42002009,0,31411519,21010219,31700119
14,138,553.114642389119,0,0,466637.956216041,466639.003242872,6,0,0,12,9,0,125885036,31612828,71801328,0,0,0,0,0,0,0,0,0,30301609,0,-1140181,31910709,30911409,11410009,20211119,0,0,0,10302009,0,21310819,0,0,0,0,0,0,0,0,0,0,31801219,0,0,40000109
14,139,503.67526098853,1,0,466640.767901608,466641.814921125,6,0,1,8,31,221379614,185359422,186260932,190558122,40600309,21201119,21210409,41111919,11911609,0,41001319,-4031021,40311909,10511509,20810219,11211919,10711319,40702009,40800419,0,30400019,20212009,0,20311319,20011009,10111219,41101419,31611819,31400619,10201609,21511919,31801719,30911719,31910109,10610919,21900019,21601309,0,31710509,10111819
14,140,531.412853160873,0,0,466643.497244411,466644.544258153,6,0,0,11,19,73913646,44374758,116826684,134234774,0,10401019,11900609,0,0,0,0,30300309,21311709,0,-2070111,21601419,0,0,0,0,10001209,10702019,10301409,21711419,21810809,11601309,30500419,0,20901319,0,0,10010709,30001309,21710409,0,0,0,20011019,31900319,20601009
14,141,468.271171324886,1,0,466646.19126666,466647.238305425,6,0,1,23,3,0,0,34242389,71222228,0,0,0,0,0,0,0,0,0,0,0,0,0,0,0,0,0,0,0,0,0,31111309,-3131080,0,0,0,0,31111419,0,0,0,40110809,0,0,0,0
14,142,578.002368507441,0,0,466648.720626478,466649.767714902,6,0,0,35,31,257048202,239556722,200436883,224699583,30810109,40111119,21111719,41111419,20801509,0,41200409,41300909,20601009,22010219,0,41810019,20411209,30700019,31801109,21811619,40311809,30700719,0,41011909,31501619,31701909,0,12010709,31700209,21000409,31510119,21311119,21800419,40702019,30401009,31801309,32011409,21710219,-4161171,20800909
14,143,499.750968941953,1,0,466651.449956576,466652.496983792,6,1,1,7,3,1081160,31801709,11702019,21310919,0,0,0,0,0,0,-1081160,0,0,0,0,31801709,0,0,0,0,0,0,0,11702019,0,0,0,0,0,0,0,0,21310919,0,0,0,0,0,0,0
14,144,431.020038959105,1,0,466654.061701504,466655.10867598,6,1,1,4,3,3050060,41710628,10701909,0,0,0,0,-3050060,0,0,0,0,0,11310409,0,0,0,0,0,0,0,30400219,0,0,0,0,10701909,0,0,0,0,0,0,0,0,0,0,0,0,0
14,145,417.559109046124,1,0,466656.638051581,466657.685079182,6,0,1,14,9,50321328,64712989,52122328,52223037,0,0,10010209,0,0,0,40311119,0,0,0,0,0,20101309,-4111061,40500619,0,0,0,0,0,0,0,40211409,0,11910919,0,0,0,10711509,0,0,0,20511509,0,0,21000019
14,146,423.472879338078,1,0,466659.13209816,466660.179120757,6,0,1,23,0,0,0,0,0,0,0,0,0,0,0,0,0,0,0,0,0,0,0,0,0,0,0,0,0,0,0,-10800201,0,0,0,0,0,0,0,0,0,0,0,0,0
14,147,562.47496814467,1,0,466661.732026711,466662.779049693,6,0,1,5,31,170279373,235246893,199580201,198642912,20000309,20900509,21601409,0,-3041090,21001419,20911009,21111619,41712009,40700019,30400219,0,0,10511109,30902009,40311219,40910309,41512009,20211309,21110309,20111109,20501919,11710709,31410419,41911909,11310909,21301609,0,20500119,31600109,21310609,11810019,40500409,31210819,30010819,11700009
14,148,1525.45558224665,0,0,466664.437826841,466665.484858292,6,1,0,24,9,11010409,41012528,94104737,82323847,0,11010409,0,0,0,0,0,0,0,0,0,0,0,0,20500709,0,20511819,0,0,0,20410509,0,31801209,-1091200,0,40801819,0,0,20201319,0,0,22011309,0,0,40111219,0
14,149,442.20777443843,0,0,466668.120142043,466669.167114209,6,1,0,18,9,60822528,138166605,0,71912128,30111909,0,0,0,0,0,0,0,30710619,0,20801909,31511409,20810219,21600819,0,0,41301109,-2141140,0,0,0,0,0,0,0,0,0,0,0,0,0,0,0,0,40311409,31600719
14,150,507.772400509566,1,0,466670.696533696,466671.743517411,6,0,1,32,19,41121537,103324756,147847822,77883646,11010119,0,20000009,0,0,0,0,0,10111409,20811719,0,30400719,0,0,12001909,0,0,40110409,21310519,30201619,21000719,11411709,10900419,0,10612009,21400419,21010409,30600109,21901219,10901209,0,-4181000,10300109,0,0,0
14,151,470.367283734959,0,0,466673.26113053,466674.308141193,6,1,0,34,3,0,0,82803018,23992180,0,0,0,0,0,0,0,0,0,0,0,0,0,0,0,0,0,0,0,0,0,0,0,41801109,0,41001909,0,0,0,0,0,0,21801109,-2191071,0,0
14,152,384.326199186035,0,0,466675.908107085,466676.955130452,6,0,0,22,3,20302528,12001309,4191201,0,10300919,0,0,10001609,0,0,0,0,0,0,0,12001309,0,0,0,0,0,0,0,0,0,-4191201,0,0,0,0,0,0,0,0,0,0,0,0,0,0
14,153,525.037514627911,0,0,466678.496288168,466679.543295751,6,1,0,3,31,199527662,268068331,193955104,205257812,31401319,31410309,-3170160,11911709,10010409,40111409,21010319,20500209,30001819,20800519,40111609,40910519,11011619,40400619,41611509,30810109,20610819,21801009,20510119,40110119,31310419,40511719,0,30201209,0,0,31311519,40310119,30711219,0,30011609,21200909,31210709,10711509,21000819,20100919
14,154,430.038388527464,0,0,466681.096200166,466682.143216988,6,1,0,13,31,136926103,226855954,176948922,245629441,21800719,11910209,0,20800709,0,41401519,20010719,10401719,10600509,0,20511509,31611409,-1020161,41010219,41301409,30000019,31000709,30400519,21500509,20601519,30511309,11201119,0,10800219,20810709,31411719,30111819,30501209,10001309,30201419,40300719,41200219,31111719,30510819,20901809,10900219
14,155,364.340180996805,0,0,466683.707890044,466684.754910716,6,1,0,33,0,0,0,0,0,0,0,0,0,0,0,0,0,0,0,0,0,0,0,0,0,0,0,0,0,0,0,0,0,0,0,0,0,0,0,0,0,-31800291,0,0,0
14,156,552.23385168938,1,0,466686.143114588,466687.190138339,6,1,1,36,19,127224304,71714556,104314266,159925326,41200819,20800819,0,11800119,10910519,31601209,0,10910819,0,0,10000809,0,11501609,10011819,40200319,0,0,0,0,11601109,21010219,0,41101919,30601019,0,0,0,20711019,0,0,31511909,21711719,41310409,0,40500219,-4180051
14,157,484.645485819783,0,0,466699.107452959,466700.15448287,7,1,0,24,9,11010409,41012528,94104737,82323847,0,11010409,0,0,0,0,0,0,0,0,0,0,0,0,20500709,0,20511819,0,0,0,20410509,0,31801209,-1091200,0,40801819,0,0,20201319,0,0,22011309,0,0,40111219,0
14,158,440.84963214118,0,0,466701.76621009,466702.81324231,7,0,0,29,31,208947302,176738412,174635983,199361263,40911219,41401009,0,11111609,41910019,20601919,21400809,10910709,20700009,20301309,20010209,0,10600519,21701519,30011519,21211109,11701909,41200319,10810419,10101709,10111819,41200309,40600409,21400409,0,40410909,0,21101019,-4041121,30501319,10101719,30800819,20802019,21300909,40410419,20301919
14,159,384.821259009186,1,0,466704.413184335,466705.4602231,7,0,1,24,0,0,0,0,0,0,0,0,0,0,0,0,0,0,0,0,0,0,0,0,0,0,0,0,0,0,0,0,-40510791,0,0,0,0,0,0,0,0,0,0,0,0
14,160,631.545433658175,1,0,466707.048421506,466708.095430629,7,1,1,13,31,136926103,226855954,176948922,245629441,21800719,11910209,0,20800709,0,41401519,20010719,10401719,10600509,0,20511509,31611409,-1020161,41010219,41301409,30000019,31000709,30400519,21500509,20601519,30511309,11201119,0,10800219,20810709,31411719,30111819,30501209,10001309,30201419,40300719,41200219,31111719,30510819,20901809,10900219
14,161,435.372407606337,0,0,466709.883633962,466710.930660408,7,0,0,11,19,155665194,53243129,186347993,103323746,0,20410009,41111019,0,21810719,40511409,10411419,21410619,0,40011719,-2020201,11211209,0,0,0,0,0,0,41311419,41801609,0,41310609,0,10111709,10711119,30200109,10901419,0,0,11801719,0,0,31210509,0,20100109,40211409
14,162,1348.41126634274,0,0,466712.424782439,466713.471780398,7,0,0,12,3,0,45842520,20111209,21711419,0,0,0,0,0,0,0,0,0,0,0,-4141201,41701319,0,0,0,0,0,0,0,20111209,0,0,0,0,0,0,0,0,0,0,0,21711419,0,0,0
14,163,571.45918707829,0,0,466715.977576755,466717.02461321,7,1,0,7,3,1081160,31801709,11702019,21310919,0,0,0,0,0,0,-1081160,0,0,0,0,31801709,0,0,0,0,0,0,0,11702019,0,0,0,0,0,0,0,0,21310919,0,0,0,0,0,0,0
14,164,380.350707331672,1,0,466718.671624412,466719.718650088,7,0,1,23,19,155623065,105641865,119834506,65201756,11900309,0,40510909,31000009,41710119,0,0,0,30501719,0,0,11310209,30610119,0,21600609,0,10410909,31710019,31600909,0,0,0,-3130141,21501609,10800119,31300709,21501019,11600209,11100609,0,0,32000719,0,0,0,10500219
14,165,420.868618472014,1,0,466721.142153341,466722.189167853,7,1,1,4,3,3050060,41710628,10701909,0,0,0,0,-3050060,0,0,0,0,0,11310409,0,0,0,0,0,0,0,30400219,0,0,0,0,10701909,0,0,0,0,0,0,0,0,0,0,0,0,0
14,166,451.662030711304,1,0,466723.742125007,466724.789097559,7,1,1,18,9,60822528,138166605,0,71912128,30111909,0,0,0,0,0,0,0,30710619,0,20801909,31511409,20810219,21600819,0,0,41301109,-2141140,0,0,0,0,0,0,0,0,0,0,0,0,0,0,0,0,40311409,31600719
14,167,397.772500582505,0,0,466726.283179169,466727.330194451,7,1,0,33,0,0,0,0,0,0,0,0,0,0,0,0,0,0,0,0,0,0,0,0,0,0,0,0,0,0,0,0,0,0,0,0,0,0,0,0,0,-31800291,0,0,0
14,168,403.245105582755,0,0,466728.859581986,466729.906604198,7,1,0,34,3,0,0,82803018,23992180,0,0,0,0,0,0,0,0,0,0,0,0,0,0,0,0,0,0,0,0,0,0,0,41801109,0,41001909,0,0,0,0,0,0,21801109,-2191071,0,0
14,169,525.592243415304,1,0,466731.330155955,466732.377132741,7,1,1,25,19,156727503,63523927,126485965,146034846,21701019,20501019,0,21701819,10910719,30000309,40311509,11601109,0,0,31111109,0,21800809,10612009,0,0,0,0,22001409,0,41001519,41810719,10100209,10510919,-1061190,0,0,31710419,41310909,0,0,0,31412009,0,0,41601509
14,170,452.866188599728,1,0,466734.082966748,466735.130013982,7,0,1,8,19,56181488,166546594,127922975,115254285,10310009,31800119,0,0,0,0,11900209,-2171151,0,41410519,31301409,30611119,0,0,10901619,21710609,0,30611319,0,22010109,42010019,0,11900619,0,21400809,0,30601419,0,30211619,11911419,41410419,0,21210119,0,10510709,0
14,171,363.04863699479,1,0,466736.647597843,466737.694650852,7,0,1,14,3,20912009,23041450,21210719,0,20912009,0,0,0,0,0,0,0,0,0,0,21911309,0,-1130141,0,0,0,0,0,0,0,0,0,0,0,21210719,0,0,0,0,0,0,0,0,0,0
14,172,531.114508397877,0,0,466739.094609507,466740.141615935,7,0,0,32,9,21502019,72922347,83102227,66222139,0,0,0,0,0,21502019,0,0,0,0,0,20611119,30700519,0,21610709,0,0,0,0,30601009,30800009,0,21701209,0,0,0,0,0,30710219,0,0,-4011001,0,31500919,0,0
14,173,455.353421333712,1,0,466741.859220893,466742.906241564,7,0,1,5,31,262046114,259156242,144837193,175266831,0,41100819,42010519,40700609,-4011091,30410219,41601219,31710219,30501419,30000419,41811119,32010719,0,21900119,31311709,30001119,40110919,32010119,40310019,0,20001419,10910209,11101609,20001909,11012019,31500009,0,30110319,31211819,10010109,20800809,11700819,10210919,11111309,30000319,20110409
14,174,474.346625211183,1,0,466744.553263545,466745.600288836,7,1,1,26,19,53313557,154026695,65874728,158747632,0,0,0,21100419,0,0,10511719,0,21701419,21902019,0,40501019,31200919,0,20211119,0,0,40211619,30510819,21511309,10711519,0,0,0,0,-3141081,0,0,11011119,11910309,10000419,20810019,11611419,41101719,21301209,31001419
14,175,459.803185076453,0,0,466747.164958428,466748.21197833,7,0,0,28,3,30010609,0,31711819,34680239,0,0,0,0,0,30010609,0,0,0,0,0,0,0,0,0,0,0,0,31711819,0,0,0,0,0,0,0,0,-3080020,0,0,0,0,0,0,31600219,0
14,176,439.435285574291,1,0,466749.706052625,466750.753083306,7,1,1,3,31,199527662,268068331,193955104,205257812,31401319,31410309,-3170160,11911709,10010409,40111409,21010319,20500209,30001819,20800519,40111609,40910519,11011619,40400619,41611509,30810109,20610819,21801009,20510119,40110119,31310419,40511719,0,30201209,0,0,31311519,40310119,30711219,0,30011609,21200909,31210709,10711509,21000819,20100919
14,177,426.585288718343,0,0,466752.305986951,466753.353008778,7,0,0,22,31,179688021,180860112,157514394,165237612,11111609,40310919,20412009,32010019,21810809,10110209,21311019,11411319,11200109,21611509,20901619,11512019,0,40801709,31810009,32001519,10510719,11711009,0,31601409,20700019,-2181100,31910009,0,20700019,40210019,10211819,11001109,30000519,31611409,31701919,20000809,20510719,10200009,0,10211119
14,178,527.105909888633,0,0,466754.929444316,466755.976462293,7,1,0,36,19,127224304,71714556,104314266,159925326,41200819,20800819,0,11800119,10910519,31601209,0,10910819,0,0,10000809,0,11501609,10011819,40200319,0,0,0,0,11601109,21010219,0,41101919,30601019,0,0,0,20711019,0,0,31511909,21711719,41310409,0,40500219,-4180051
14,179,481.342135812156,0,0,466757.69408034,466758.741096777,7,0,0,10,9,82823266,107734927,0,21500609,0,0,0,30200919,11200609,0,0,20811419,20610319,-4200181,0,30811509,30610009,0,0,32012009,10101219,0,0,0,0,0,0,0,0,0,0,0,0,0,0,0,0,0,21500609,0
14,180,1105.58867099462,1,0,466760.399883164,466761.446904991,7,1,1,20,31,246139041,188351222,239358402,184505874,40101409,21700309,40711819,40101719,30100819,11000019,31110519,21300619,10011809,30701809,0,41700919,30811919,10511619,30800619,11112009,21101809,11610519,20401019,-3010190,41500909,40501709,20711509,31110819,20600419,20610909,40910919,0,40301509,40600809,10601319,32001209,40000309,0,0,21000719
14,181,472.143108723685,0,0,466763.623322975,466764.670346341,7,0,0,35,9,42011619,116701646,62511018,56620388,0,0,0,42011619,0,0,0,0,0,42000019,0,0,31800909,0,0,11600509,0,31300209,0,0,0,21000409,0,0,0,0,41510609,0,0,11310019,0,0,0,41110219,-4200150,0
14,182,407.385360798799,1,0,466766.187950606,466767.234981287,7,1,1,15,9,20700519,119174937,50810318,21613428,0,0,0,0,0,0,0,20700519,0,11311809,0,40500009,0,41200509,-4161101,0,0,22001509,40210309,0,0,0,0,10600009,0,0,0,0,0,11111809,0,0,0,0,10501619,0
14,183,417.833586223423,1,0,466773.140692029,466774.187733488,8,0,1,22,19,62004127,186036065,168956404,104434356,0,10300409,0,0,0,0,0,30501909,21201809,0,0,30111509,0,40611619,31511909,0,41900309,41900719,10311119,21000219,0,-4200001,20000809,40711609,30710919,11010419,31011309,20310819,31311319,0,0,0,0,10901209,0,41911009
14,184,572.914339427371,0,0,466775.693619156,466776.740599407,8,0,0,5,31,164460183,190531212,238420231,154737374,31911819,41511619,21800709,11511919,-4090141,10610219,11301319,10310919,21411519,0,11901319,21902009,40101819,12001719,10700309,11710709,41911909,40301419,21211209,11901509,30701319,30201219,12000219,40302009,40500619,21301119,30301009,0,30001219,0,40101909,31012019,20200609,0,11511509,21910109
14,185,438.226893136743,0,0,466778.505263918,466779.552275735,8,1,0,33,0,0,0,0,0,0,0,0,0,0,0,0,0,0,0,0,0,0,0,0,0,0,0,0,0,0,0,0,0,0,0,0,0,0,0,0,0,-31800291,0,0,0
14,186,527.515123423655,0,0,466781.069885004,466782.116932623,8,1,0,25,19,156727503,63523927,126485965,146034846,21701019,20501019,0,21701819,10910719,30000309,40311509,11601109,0,0,31111109,0,21800809,10612009,0,0,0,0,22001409,0,41001519,41810719,10100209,10510919,-1061190,0,0,31710419,41310909,0,0,0,31412009,0,0,41601509
14,187,477.710414095782,0,0,466783.834529882,466784.881545164,8,0,0,10,19,74812366,178806925,134736255,123922966,21300709,0,31300219,11110919,11100519,0,0,0,0,-3161041,0,21110119,21010009,0,41911209,30201009,40611619,20801919,31001819,0,0,0,0,41211909,30910609,10610609,21001309,0,31010009,0,20810819,41900719,0,0,30201419,0
14,188,590.84081655601,0,0,466786.528567914,466787.575586661,8,1,0,24,9,11010409,41012528,94104737,82323847,0,11010409,0,0,0,0,0,0,0,0,0,0,0,0,20500709,0,20511819,0,0,0,20410509,0,31801209,-1091200,0,40801819,0,0,20201319,0,0,22011309,0,0,40111219,0
14,189,608.654885028955,1,0,466789.269670119,466790.316717738,8,0,1,6,0,0,0,0,0,0,0,0,0,0,-21400501,0,0,0,0,0,0,0,0,0,0,0,0,0,0,0,0,0,0,0,0,0,0,0,0,0,0,0,0,0,0
14,190,626.90318946261,1,0,466791.987245435,466793.034262642,8,0,1,28,9,40001219,31311128,61901938,65063267,0,0,0,0,0,0,40001219,0,0,0,0,0,10911119,20400009,0,0,0,0,0,20101119,0,0,0,0,0,41800819,0,-1130201,11210119,0,11500119,30711419,0,10511409,0,0
14,191,507.670770806726,1,0,466794.728373817,466795.775435679,8,1,1,26,19,53313557,154026695,65874728,158747632,0,0,0,21100419,0,0,10511719,0,21701419,21902019,0,40501019,31200919,0,20211119,0,0,40211619,30510819,21511309,10711519,0,0,0,0,-3141081,0,0,11011119,11910309,10000419,20810019,11611419,41101719,21301209,31001419
14,192,479.664475948084,1,0,466797.422378358,466798.469407884,8,1,1,13,31,136926103,226855954,176948922,245629441,21800719,11910209,0,20800709,0,41401519,20010719,10401719,10600509,0,20511509,31611409,-1020161,41010219,41301409,30000019,31000709,30400519,21500509,20601519,30511309,11201119,0,10800219,20810709,31411719,30111819,30501209,10001309,30201419,40300719,41200219,31111719,30510819,20901809,10900219
14,193,526.520769228227,1,0,466800.010549047,466801.057565869,8,0,1,35,3,0,30510019,20911519,41313110,0,0,0,0,0,0,0,0,0,0,30510019,0,0,0,0,0,0,0,0,0,0,20911519,0,0,0,0,0,0,0,0,0,0,0,0,-1201191,40111919
14,194,525.335089478176,0,0,466802.751642397,466803.798671538,8,0,0,32,31,106546003,248117132,240138202,189618673,20510009,0,10810919,11712009,20800219,0,10401409,21910219,10401219,0,11900519,40511119,40901619,41300519,40400519,41402009,11700119,20000709,10700919,41711709,10601909,32010119,30511019,31801009,0,41001209,41800309,30101609,20810719,40700719,20411619,-3181051,31001519,11310209,10800309,21300919
14,195,518.335729313549,0,0,466805.398617028,466806.445658487,8,0,0,29,31,199515083,179329621,177757912,239356244,21700209,30710909,11601119,42000109,11600519,40801509,0,0,41100709,11311809,20800819,20501719,20501709,22000819,21001009,11300909,10100209,41810619,21510519,0,31400509,40601619,11410909,10010809,41811809,10800919,10210819,31601509,-1111051,40710019,40400009,0,42011519,40510309,32000219,11011609
14,196,380.974344094284,0,0,466808.069163587,466809.116167706,8,1,0,20,31,246139041,188351222,239358402,184505874,40101409,21700309,40711819,40101719,30100819,11000019,31110519,21300619,10011809,30701809,0,41700919,30811919,10511619,30800619,11112009,21101809,11610519,20401019,-3010190,41500909,40501709,20711509,31110819,20600419,20610909,40910919,0,40301509,40600809,10601319,32001209,40000309,0,0,21000719
14,197,455.03197889775,1,0,466810.574964179,466811.621983311,8,0,1,14,3,0,12581280,30210319,20511509,0,0,0,0,0,0,0,0,0,11511219,0,0,0,-1070061,0,0,0,0,0,0,0,0,0,0,0,0,30210319,0,0,0,0,0,0,0,20511509,0
14,198,417.959468439221,1,0,466813.269002982,466814.316134522,8,1,1,4,3,3050060,41710628,10701909,0,0,0,0,-3050060,0,0,0,0,0,11310409,0,0,0,0,0,0,0,30400219,0,0,0,0,10701909,0,0,0,0,0,0,0,0,0,0,0,0,0
14,199,770.012811699416,0,0,466815.763093446,466816.810081781,8,1,0,36,19,127224304,71714556,104314266,159925326,41200819,20800819,0,11800119,10910519,31601209,0,10910819,0,0,10000809,0,11501609,10011819,40200319,0,0,0,0,11601109,21010219,0,41101919,30601019,0,0,0,20711019,0,0,31511909,21711719,41310409,0,40500219,-4180051
14,200,516.749305184931,1,0,466818.598264326,466819.645293852,8,1,1,7,3,1081160,31801709,11702019,21310919,0,0,0,0,0,0,-1081160,0,0,0,0,31801709,0,0,0,0,0,0,0,11702019,0,0,0,0,0,0,0,0,21310919,0,0,0,0,0,0,0
14,201,451.353291980922,1,0,466821.174665219,466822.221688585,8,1,1,15,9,20700519,119174937,50810318,21613428,0,0,0,0,0,0,0,20700519,0,11311809,0,40500009,0,41200509,-4161101,0,0,22001509,40210309,0,0,0,0,10600009,0,0,0,0,0,11111809,0,0,0,0,10501619,0
14,202,514.635869476479,0,0,466823.786360871,466824.833378463,8,0,0,11,3,40810119,33961819,0,40311919,0,0,0,0,0,0,0,40810119,0,31910619,-2051200,0,0,0,0,0,0,0,0,0,0,0,0,0,0,0,0,0,0,40311919,0,0,0,0,0,0
14,203,457.188530243002,1,0,466826.362742901,466827.409779356,8,1,1,18,9,60822528,138166605,0,71912128,30111909,0,0,0,0,0,0,0,30710619,0,20801909,31511409,20810219,21600819,0,0,41301109,-2141140,0,0,0,0,0,0,0,0,0,0,0,0,0,0,0,0,40311409,31600719
14,204,487.403346167412,0,0,466828.974446638,466830.021475778,8,1,0,34,3,0,0,82803018,23992180,0,0,0,0,0,0,0,0,0,0,0,0,0,0,0,0,0,0,0,0,0,0,0,41801109,0,41001909,0,0,0,0,0,0,21801109,-2191071,0,0
14,205,1304.78171579307,1,0,466831.59793403,466832.644927369,8,0,1,23,19,123224585,83321557,178626315,176425964,10000719,0,0,0,32001009,0,30210819,20211019,30801019,0,0,11500119,0,0,0,0,30210519,41610919,0,41310119,41301509,0,-3201040,41600309,40501519,0,10711819,41801609,0,41500909,0,20801219,20310609,0,41801109,10210509
14,206,531.628046301194,0,0,466835.12721647,466836.174242531,8,0,0,12,9,63535756,96584186,31500419,0,11311909,0,21012019,10401309,20810519,0,0,0,0,31312019,11001119,-3060020,41200809,10010219,0,0,0,0,31500419,0,0,0,0,0,0,0,0,0,0,0,0,0,0,0,0,0
14,207,476.531663618516,0,0,466837.880079617,466838.927111838,8,1,0,3,31,199527662,268068331,193955104,205257812,31401319,31410309,-3170160,11911709,10010409,40111409,21010319,20500209,30001819,20800519,40111609,40910519,11011619,40400619,41611509,30810109,20610819,21801009,20510119,40110119,31310419,40511719,0,30201209,0,0,31311519,40310119,30711219,0,30011609,21200909,31210709,10711509,21000819,20100919
14,208,545.024302788079,1,0,466840.597654548,466841.644677915,8,0,1,8,9,64733108,31211019,30611219,142815065,20311419,0,0,0,0,0,40301619,-4120070,0,0,31211019,0,0,0,0,0,0,0,0,0,0,0,0,0,30611219,0,0,0,10700709,0,0,30000119,30400209,31112009,0,40602019
14,209,472.101917839609,1,0,466846.750417451,466847.797449287,9,0,1,35,19,51803638,186463783,167756684,67313747,0,11802019,0,40001619,0,0,0,0,0,10910509,10410319,40510009,41310319,20110809,31610209,31601609,0,0,11410409,11511319,31311619,0,41100909,31211309,41211119,0,0,0,0,10111119,11500309,21600909,0,0,-2201001,21900409
14,210,387.2741778614,1,0,466849.291533207,466850.338348747,9,1,1,18,9,60822528,138166605,0,71912128,30111909,0,0,0,0,0,0,0,30710619,0,20801909,31511409,20810219,21600819,0,0,41301109,-2141140,0,0,0,0,0,0,0,0,0,0,0,0,0,0,0,0,40311409,31600719
14,211,523.096926452126,0,0,466851.879738542,466852.926716483,9,1,0,7,3,1081160,31801709,11702019,21310919,0,0,0,0,0,0,-1081160,0,0,0,0,31801709,0,0,0,0,0,0,0,11702019,0,0,0,0,0,0,0,0,21310919,0,0,0,0,0,0,0
14,212,531.863642390817,0,0,466854.620833433,466855.667820613,9,1,0,26,19,53313557,154026695,65874728,158747632,0,0,0,21100419,0,0,10511719,0,21701419,21902019,0,40501019,31200919,0,20211119,0,0,40211619,30510819,21511309,10711519,0,0,0,0,-3141081,0,0,11011119,11910309,10000419,20810019,11611419,41101719,21301209,31001419
14,213,505.43838221347,0,0,466857.397190747,466858.444211804,9,1,0,3,31,199527662,268068331,193955104,205257812,31401319,31410309,-3170160,11911709,10010409,40111409,21010319,20500209,30001819,20800519,40111609,40910519,11011619,40400619,41611509,30810109,20610819,21801009,20510119,40110119,31310419,40511719,0,30201209,0,0,31311519,40310119,30711219,0,30011609,21200909,31210709,10711509,21000819,20100919
14,214,583.788716699928,0,0,466860.0088864,466861.055903992,9,1,0,36,19,127224304,71714556,104314266,159925326,41200819,20800819,0,11800119,10910519,31601209,0,10910819,0,0,10000809,0,11501609,10011819,40200319,0,0,0,0,11601109,21010219,0,41101919,30601019,0,0,0,20711019,0,0,31511909,21711719,41310409,0,40500219,-4180051
14,215,487.676668446511,1,0,466862.702921353,466863.749944719,9,1,1,13,31,136926103,226855954,176948922,245629441,21800719,11910209,0,20800709,0,41401519,20010719,10401719,10600509,0,20511509,31611409,-1020161,41010219,41301409,30000019,31000709,30400519,21500509,20601519,30511309,11201119,0,10800219,20810709,31411719,30111819,30501209,10001309,30201419,40300719,41200219,31111719,30510819,20901809,10900219
14,216,532.656661991496,1,0,466865.34992678,466866.396936288,9,0,1,22,19,123914955,74404446,188437135,81835146,0,41201609,30300319,10400309,0,30611109,0,11401609,0,21700609,0,0,0,12001809,20501119,0,0,20200909,0,31100909,10310709,-1181081,41710309,40511609,0,31911509,31711009,10211519,0,20111509,0,0,0,10301409,41210709,0
14,217,459.55219049938,0,0,466868.044010623,466869.090968931,9,0,0,29,31,219247541,197534803,147828483,263787413,21410609,20810509,21810719,30200809,21211919,30100319,11600419,31000219,31102019,42000019,21601409,30811419,31610309,20711009,40000019,10800619,0,0,10901609,21301809,11910009,30001709,0,0,30700419,31611609,11401319,41610009,-4121011,40001019,41810109,40510619,11811319,21601709,20811309,41510309
14,218,554.830028442666,0,0,466870.761545133,466871.808551946,9,0,0,5,19,74493049,82820556,115033704,206549123,31911619,0,0,0,-2071021,0,0,40510409,0,10300019,0,40310009,0,11510009,0,20700519,0,0,21101009,0,31000319,21111019,0,21010419,10610719,0,10200219,0,30900819,10310509,41411419,11401619,42011819,30002019,0,40510919
14,219,491.356510261539,0,0,466873.479095041,466874.526118793,9,1,0,34,3,0,0,82803018,23992180,0,0,0,0,0,0,0,0,0,0,0,0,0,0,0,0,0,0,0,0,0,0,0,41801109,0,41001909,0,0,0,0,0,0,21801109,-2191071,0,0
14,220,376.603112439625,0,0,466876.149624278,466877.196658808,9,1,0,33,0,0,0,0,0,0,0,0,0,0,0,0,0,0,0,0,0,0,0,0,0,0,0,0,0,0,0,0,0,0,0,0,0,0,0,0,0,-31800291,0,0,0
14,221,482.527430634946,1,0,466878.737770714,466879.78479947,9,1,1,4,3,3050060,41710628,10701909,0,0,0,0,-3050060,0,0,0,0,0,11310409,0,0,0,0,0,0,0,30400219,0,0,0,0,10701909,0,0,0,0,0,0,0,0,0,0,0,0,0
14,222,480.246536899358,0,0,466881.420048959,466882.467071556,9,0,0,10,31,187568921,211579862,252647802,125925694,30000119,11811709,10611319,20300119,41600509,10310509,10111919,31011209,21811509,-1131070,31410809,21801419,31511509,21611609,31300409,10211309,21901409,40700319,42000809,11701509,41711819,0,21411409,41200909,32010119,21900309,40710919,12011119,0,20100919,10802009,0,0,30700319,10800519,41510809
14,223,522.140298446175,1,0,466884.008235046,466885.055252638,9,1,1,25,19,156727503,63523927,126485965,146034846,21701019,20501019,0,21701819,10910719,30000309,40311509,11601109,0,0,31111109,0,21800809,10612009,0,0,0,0,22001409,0,41001519,41810719,10100209,10510919,-1061190,0,0,31710419,41310909,0,0,0,31412009,0,0,41601509
14,224,483.045588014647,0,0,466886.655198898,466887.702225729,9,0,0,23,9,83525547,62720538,2030171,83743576,0,0,0,11801919,0,0,0,40311809,31411819,31510119,0,31210419,0,0,0,0,0,0,0,0,0,0,-2030171,0,0,0,0,20610319,10410819,30811819,0,0,0,0,0,21910619
14,225,471.136050764471,0,0,466889.313947559,466890.360975545,9,0,0,8,9,34411149,83431437,70911038,61612847,0,0,0,30400109,0,0,0,-4011040,0,0,0,0,0,0,21211109,0,21010319,41210009,0,40200319,0,30710719,0,0,0,0,0,0,0,0,40301209,11010019,0,0,0,10301619
14,226,417.561803769786,1,0,466892.03157061,466893.078541236,9,0,1,32,3,11900409,0,11710519,33423019,11900409,0,0,0,0,0,0,0,0,0,0,0,0,0,0,0,0,0,0,0,0,0,0,0,0,11710519,0,30411909,0,0,0,-3011110,0,0,0,0
14,227,415.627374954056,0,0,466894.678508284,466895.72553088,9,1,0,15,9,20700519,119174937,50810318,21613428,0,0,0,0,0,0,0,20700519,0,11311809,0,40500009,0,41200509,-4161101,0,0,22001509,40210309,0,0,0,0,10600009,0,0,0,0,0,11111809,0,0,0,0,10501619,0
14,228,621.684658632148,0,0,466897.231375742,466898.278406423,9,1,0,24,9,11010409,41012528,94104737,82323847,0,11010409,0,0,0,0,0,0,0,0,0,0,0,0,20500709,0,20511819,0,0,0,20410509,0,31801209,-1091200,0,40801819,0,0,20201319,0,0,22011309,0,0,40111219,0
14,229,476.850026345346,1,0,466900.07835684,466901.125386366,9,0,1,12,0,0,0,0,0,0,0,0,0,0,0,0,0,0,0,0,-31810691,0,0,0,0,0,0,0,0,0,0,0,0,0,0,0,0,0,0,0,0,0,0,0,0
14,230,459.653050289489,1,0,466902.725340325,466903.77237293,9,0,1,12,9,84412827,44862259,61121838,62501428,0,31801409,0,0,0,0,11911109,0,40700309,11601019,0,-3160121,0,0,0,30101119,0,0,30711419,0,0,0,0,30410419,0,0,0,0,0,0,32000019,0,0,0,30501409,0
14,231,427.455300465226,1,0,466905.407610486,466906.454633082,9,0,1,11,31,247547412,160265795,168427122,229067931,30801309,41701619,40011709,20810909,21611009,30900019,0,21400319,40310519,0,-1031011,21410619,41810809,32000319,21901309,10610719,0,31501009,21001509,11300619,11501119,10000509,0,31300019,20510819,22010909,40801619,41401319,20310719,21201809,31900419,30810609,11111719,20110909,31610209,20610219
14,232,480.519859236665,1,0,466907.913432635,466908.960461776,9,0,1,14,3,32010519,3141151,30611309,40911819,0,0,0,0,32010519,0,0,0,0,0,0,0,0,-3141151,0,0,0,0,30611309,0,0,0,0,0,0,0,0,0,0,0,0,40911819,0,0,0,0
14,233,449.434261536226,1,0,466910.442777824,466911.489800421,9,1,1,20,31,246139041,188351222,239358402,184505874,40101409,21700309,40711819,40101719,30100819,11000019,31110519,21300619,10011809,30701809,0,41700919,30811919,10511619,30800619,11112009,21101809,11610519,20401019,-3010190,41500909,40501709,20711509,31110819,20600419,20610909,40910919,0,40301509,40600809,10601319,32001209,40000309,0,0,21000719
14,234,490.813715325203,1,0,466913.113287813,466914.160311179,9,0,1,28,3,0,61612528,32001319,4031011,0,0,0,0,0,0,0,0,0,0,0,0,0,0,21501809,0,0,40110719,0,32001319,0,0,0,0,0,0,0,-4031011,0,0,0,0,0,0,0,0
14,235,450.07984113181,0,0,466919.077825594,466920.124846651,10,1,0,4,3,3050060,41710628,10701909,0,0,0,0,-3050060,0,0,0,0,0,11310409,0,0,0,0,0,0,0,30400219,0,0,0,0,10701909,0,0,0,0,0,0,0,0,0,0,0,0,0
14,236,371.994359767996,0,0,466921.71305853,466922.760103069,10,1,0,33,0,0,0,0,0,0,0,0,0,0,0,0,0,0,0,0,0,0,0,0,0,0,0,0,0,0,0,0,0,0,0,0,0,0,0,0,0,-31800291,0,0,0
14,237,477.27656312054,0,0,466924.183568596,466925.230594657,10,0,0,35,3,0,52701128,0,25841540,0,0,0,0,0,0,0,0,0,0,0,41700509,0,0,0,0,0,11000619,0,0,0,0,0,0,0,0,0,0,0,0,0,0,21810519,0,-4031021,0
14,238,424.994629982393,0,0,466926.759976417,466927.807007098,10,0,0,14,3,40301819,44200800,41100619,0,0,0,0,0,0,0,40301819,0,0,0,0,0,0,-3190081,0,41010719,0,0,0,41100619,0,0,0,0,0,0,0,0,0,0,0,0,0,0,0,0
14,239,573.432881908957,1,0,466929.289309672,466930.336338428,10,1,1,25,19,156727503,63523927,126485965,146034846,21701019,20501019,0,21701819,10910719,30000309,40311509,11601109,0,0,31111109,0,21800809,10612009,0,0,0,0,22001409,0,41001519,41810719,10100209,10510919,-1061190,0,0,31710419,41310909,0,0,0,31412009,0,0,41601509
14,240,487.437992647756,0,0,466931.983354249,466933.030373381,10,0,0,5,19,148846805,147535064,61613747,63114046,20910009,10601809,11010419,0,-2020021,40401619,22001009,0,41901919,31700409,0,11101719,0,31511209,30810009,11800509,0,30611209,30101619,0,0,0,21210709,0,10301419,0,0,0,30601619,11601209,0,0,10800909,0,0,10110309
14,241,420.249216258526,1,0,466934.724453374,466935.771476741,10,0,1,10,31,238746741,168996914,164635684,216088141,40701119,20900009,11401019,30600219,42010819,40501609,20510319,21011619,11110009,-1050021,31501619,20500809,11810619,41311719,30711009,21910909,0,10200209,0,41100509,40800219,21811009,0,20411919,30401119,10110909,0,20611919,20110919,11100409,10711919,40311209,40010019,12010519,20810419,40410809
14,242,536.395402858034,0,0,466937.218504188,466938.265528709,10,0,0,32,19,125134865,124546984,185746784,42923558,0,20611209,12010219,0,0,21201509,0,30201519,41110409,0,11612009,0,21011709,10311119,40200509,10500619,0,30911019,30111409,21010309,40211119,32000819,0,0,40611519,0,21801609,0,20201009,0,0,-1111040,0,0,0,21611509
14,243,446.066623087972,1,0,466939.959604468,466941.006625909,10,1,1,20,31,246139041,188351222,239358402,184505874,40101409,21700309,40711819,40101719,30100819,11000019,31110519,21300619,10011809,30701809,0,41700919,30811919,10511619,30800619,11112009,21101809,11610519,20401019,-3010190,41500909,40501709,20711509,31110819,20600419,20610909,40910919,0,40301509,40600809,10601319,32001209,40000309,0,0,21000719
14,244,518.352667568251,0,0,466942.571295886,466943.618323487,10,1,0,24,9,11010409,41012528,94104737,82323847,0,11010409,0,0,0,0,0,0,0,0,0,0,0,0,20500709,0,20511819,0,0,0,20410509,0,31801209,-1091200,0,40801819,0,0,20201319,0,0,22011309,0,0,40111219,0
14,245,538.989654800389,0,0,466945.147686769,466946.194782893,10,0,0,28,19,164534974,92712956,144513546,96336975,30510109,20000519,0,30311309,10300409,31411109,0,0,42001519,0,11300609,0,0,21201219,40200909,0,20010219,0,0,0,40800919,41700509,0,0,31601109,30411009,0,-2020000,30701519,0,20501819,10701709,0,10811819,21600109,0
14,246,571.177395584527,0,0,466947.806441205,466948.853469191,10,1,0,3,31,199527662,268068331,193955104,205257812,31401319,31410309,-3170160,11911709,10010409,40111409,21010319,20500209,30001819,20800519,40111609,40910519,11011619,40400619,41611509,30810109,20610819,21801009,20510119,40110119,31310419,40511719,0,30201209,0,0,31311519,40310119,30711219,0,30011609,21200909,31210709,10711509,21000819,20100919
14,247,510.007483826485,0,0,466950.500486167,466951.547525317,10,1,0,13,31,136926103,226855954,176948922,245629441,21800719,11910209,0,20800709,0,41401519,20010719,10401719,10600509,0,20511509,31611409,-1020161,41010219,41301409,30000019,31000709,30400519,21500509,20601519,30511309,11201119,0,10800219,20810709,31411719,30111819,30501209,10001309,30201419,40300719,41200219,31111719,30510819,20901809,10900219
14,248,479.307232133579,0,0,466953.159235983,466954.206261274,10,0,0,23,9,33003318,63323147,2141060,82545746,0,0,0,11301409,21701909,0,0,0,0,20201219,0,0,0,0,0,31710819,11411109,0,0,0,0,0,-2141060,0,0,0,0,0,0,0,20811709,0,30512009,0,10310719,20911309
14,249,503.22716642404,1,0,466955.794459295,466956.841474962,10,1,1,7,3,1081160,31801709,11702019,21310919,0,0,0,0,0,0,-1081160,0,0,0,0,31801709,0,0,0,0,0,0,0,11702019,0,0,0,0,0,0,0,0,21310919,0,0,0,0,0,0,0
14,250,490.933053195477,1,0,466958.53555688,466959.582574472,10,1,1,34,3,0,0,82803018,23992180,0,0,0,0,0,0,0,0,0,0,0,0,0,0,0,0,0,0,0,0,0,0,0,41801109,0,41001909,0,0,0,0,0,0,21801109,-2191071,0,0
14,251,413.735676789656,1,0,466961.123726414,466962.170740541,10,0,1,11,3,0,22351380,0,52703728,0,0,0,0,0,0,0,0,0,0,-2141161,0,0,0,0,0,0,20210219,0,0,0,0,0,0,0,0,0,0,0,41001819,0,0,0,11701909,0,0
14,252,582.820924813859,0,0,466963.617769913,466964.66479174,10,1,0,36,19,127224304,71714556,104314266,159925326,41200819,20800819,0,11800119,10910519,31601209,0,10910819,0,0,10000809,0,11501609,10011819,40200319,0,0,0,0,11601109,21010219,0,41101919,30601019,0,0,0,20711019,0,0,31511909,21711719,41310409,0,40500219,-4180051
14,253,485.24448502576,1,0,466966.335343304,466967.382351657,10,0,1,29,9,0,71722528,124432356,84491108,0,0,0,0,0,0,0,0,0,40611219,0,0,0,31111309,0,0,0,0,11800309,40510409,0,40611219,0,31510419,0,0,0,21200609,-1170071,0,0,0,31210019,0,30910409,0
14,254,401.088554353919,1,0,466969.076442429,466970.123460406,10,1,1,15,9,20700519,119174937,50810318,21613428,0,0,0,0,0,0,0,20700519,0,11311809,0,40500009,0,41200509,-4161101,0,0,22001509,40210309,0,0,0,0,10600009,0,0,0,0,0,11111809,0,0,0,0,10501619,0
14,255,553.148133971263,0,0,466971.582313469,466972.62928679,10,0,0,8,31,158119923,207650731,146928864,251040312,10701319,10511209,30201719,30210819,10511719,30511109,22000409,-2061111,11410509,31611319,40710409,20900709,10700719,10301309,11702019,40101309,20111119,21511819,0,21901719,42001809,31011309,10701209,0,10901009,0,30411809,31501809,41101709,31101219,11310819,21411819,32011509,40801319,0,41800109
14,256,423.560650437139,1,0,466974.20571155,466975.252736071,10,0,1,12,9,52211638,24020529,60821827,82313547,0,0,11811419,0,0,40400219,0,0,0,0,0,-3120020,0,0,20900509,0,0,0,20210209,0,10010809,30600809,0,0,0,0,0,20501419,20401309,0,0,0,0,41410819,0,0
14,257,429.344688891433,1,0,466976.782104743,466977.829133499,10,0,1,22,31,189029112,189569512,169238324,251967831,31411719,11800919,11402019,30200509,20801909,40210809,21600519,21600709,0,0,21711509,11900709,40010919,21411919,31000609,11910209,21411719,30211919,30301519,41001119,10711409,-3011130,41711709,0,32000919,0,10500519,41011009,40911619,30900009,31811819,31210509,31810719,22000519,10500319,11811309
14,258,626.806949265301,1,0,466979.358301705,466980.405591365,10,1,1,26,19,53313557,154026695,65874728,158747632,0,0,0,21100419,0,0,10511719,0,21701419,21902019,0,40501019,31200919,0,20211119,0,0,40211619,30510819,21511309,10711519,0,0,0,0,-3141081,0,0,11011119,11910309,10000419,20810019,11611419,41101719,21301209,31001419
14,259,377.833062666468,1,0,466982.09960553,466983.146633131,10,0,1,29,0,0,0,0,0,0,0,0,0,0,0,0,0,0,0,0,0,0,0,0,0,0,0,0,0,0,0,0,0,0,0,0,0,-41211901,0,0,0,0,0,0,0
14,260,436.534989683423,1,0,466984.640715511,466985.687743882,10,1,1,18,9,60822528,138166605,0,71912128,30111909,0,0,0,0,0,0,0,30710619,0,20801909,31511409,20810219,21600819,0,0,41301109,-2141140,0,0,0,0,0,0,0,0,0,0,0,0,0,0,0,0,40311409,31600719
14,261,459.331992897205,1,0,466990.522910143,466991.569928505,11,1,1,4,3,3050060,41710628,10701909,0,0,0,0,-3050060,0,0,0,0,0,11310409,0,0,0,0,0,0,0,30400219,0,0,0,0,10701909,0,0,0,0,0,0,0,0,0,0,0,0,0
14,262,377.731817949098,1,0,466993.08753123,466994.134565375,11,1,1,7,3,1081160,31801709,11702019,21310919,0,0,0,0,0,0,-1081160,0,0,0,0,31801709,0,0,0,0,0,0,0,11702019,0,0,0,0,0,0,0,0,21310919,0,0,0,0,0,0,0
14,263,357.825101644266,1,0,466995.699296946,466996.746249864,11,1,1,20,31,246139041,188351222,239358402,184505874,40101409,21700309,40711819,40101719,30100819,11000019,31110519,21300619,10011809,30701809,0,41700919,30811919,10511619,30800619,11112009,21101809,11610519,20401019,-3010190,41500909,40501709,20711509,31110819,20600419,20610909,40910919,0,40301509,40600809,10601319,32001209,40000309,0,0,21000719
14,264,521.634459728375,1,0,466998.122693179,466999.169718855,11,1,1,24,9,11010409,41012528,94104737,82323847,0,11010409,0,0,0,0,0,0,0,0,0,0,0,0,20500709,0,20511819,0,0,0,20410509,0,31801209,-1091200,0,40801819,0,0,20201319,0,0,22011309,0,0,40111219,0
14,265,383.733359281905,1,0,467000.840261565,467001.887295326,11,1,1,18,9,60822528,138166605,0,71912128,30111909,0,0,0,0,0,0,0,30710619,0,20801909,31511409,20810219,21600819,0,0,41301109,-2141140,0,0,0,0,0,0,0,0,0,0,0,0,0,0,0,0,40311409,31600719
14,266,376.640068599954,1,0,467003.381383095,467004.428396453,11,0,1,5,3,73502249,21310919,0,0,0,31001109,0,0,-1091131,41410009,0,0,0,0,0,0,21310919,0,0,0,0,0,0,0,0,0,0,0,0,0,0,0,0,0,0,0,0,0,0,0
14,267,660.90217162855,1,0,467005.840189963,467006.887194466,11,0,1,32,9,63122047,40610719,20910809,126114897,0,31411719,0,20010319,0,0,11700009,0,0,0,0,0,0,0,40610719,0,0,0,0,0,0,0,0,20910809,0,0,0,31311219,0,41300609,0,-1091151,10900609,41511309,0,0
14,268,439.598893979564,0,0,467008.722394218,467009.769418355,11,0,0,14,3,0,74732739,0,10601719,0,0,0,0,0,0,0,0,0,0,41010909,0,0,-2010021,31711809,0,0,0,0,0,0,0,0,0,0,0,0,0,0,10601719,0,0,0,0,0,0
14,269,393.559938762337,0,0,467011.310556823,467012.357383793,11,0,0,8,9,125704408,11411209,30611609,93424836,41500909,0,41800719,0,0,0,40401709,-2001071,0,0,0,0,0,11411209,0,0,0,0,0,0,0,0,0,0,0,30611609,0,21001209,10401609,0,41610109,0,0,0,20411909,0
14,270,375.486340606585,1,0,467013.816372043,467014.863400029,11,0,1,28,3,31010219,0,30800119,14640700,0,0,0,31010219,0,0,0,0,0,0,0,0,0,0,0,0,0,0,0,0,0,0,30800119,0,0,0,0,-3140191,0,0,0,0,0,0,0,11500509
14,271,472.695912641939,0,0,467016.263367153,467017.31038436,11,1,0,15,9,20700519,119174937,50810318,21613428,0,0,0,0,0,0,0,20700519,0,11311809,0,40500009,0,41200509,-4161101,0,0,22001509,40210309,0,0,0,0,10600009,0,0,0,0,0,11111809,0,0,0,0,10501619,0
14,272,395.865019003395,1,0,467018.82799055,467019.875087444,11,0,1,20,0,0,0,0,0,0,0,0,0,0,0,0,0,0,0,0,0,0,0,0,0,0,0,0,-20611501,0,0,0,0,0,0,0,0,0,0,0,0,0,0,0,0
14,273,564.251947915182,0,0,467021.286753147,467022.333779593,11,0,0,12,19,126737755,55375086,137866994,83034166,0,0,0,20810909,0,31912009,31611509,31901519,10501809,0,11801219,-1160120,20901919,0,0,11300109,0,10211719,10011709,31910519,0,40711019,32011519,11710709,0,11511519,0,0,21011019,0,0,0,10600819,0,11011309,40411019
14,274,463.246275903657,0,0,467023.933737016,467024.980754608,11,0,0,29,19,122934765,103425856,143323846,139546765,0,0,21810419,0,20600409,30111209,0,20401319,30011409,0,11800819,30211609,0,0,0,30911409,0,30502019,0,40910719,0,41510809,20100909,0,0,40801409,0,0,-3010171,21611119,20510109,0,20501519,31700919,30811609,11401319
14,275,525.572225451469,0,0,467026.498372731,467027.545399177,11,1,0,34,3,0,0,82803018,23992180,0,0,0,0,0,0,0,0,0,0,0,0,0,0,0,0,0,0,0,0,0,0,0,41801109,0,41001909,0,0,0,0,0,0,21801109,-2191071,0,0
14,276,710.059376549907,0,0,467029.215987698,467030.262976803,11,1,0,3,31,199527662,268068331,193955104,205257812,31401319,31410309,-3170160,11911709,10010409,40111409,21010319,20500209,30001819,20800519,40111609,40910519,11011619,40400619,41611509,30810109,20610819,21801009,20510119,40110119,31310419,40511719,0,30201209,0,0,31311519,40310119,30711219,0,30011609,21200909,31210709,10711509,21000819,20100919
14,277,556.241295300424,0,0,467032.133512122,467033.180535488,11,0,0,11,31,185256983,160387503,207948202,237551212,31711109,0,10701819,40010509,40410709,10711909,0,20300819,31410109,11510309,-1141001,12011809,30710319,21210819,21601009,10600419,10601609,41000209,0,30011809,31800409,40511819,21600709,11600909,20501819,31510419,20410309,11710309,40500519,0,30011409,41011819,10201519,22001909,41902009,40211719
14,278,512.147866829764,0,0,467034.921668875,467035.968686852,11,1,0,36,19,127224304,71714556,104314266,159925326,41200819,20800819,0,11800119,10910519,31601209,0,10910819,0,0,10000809,0,11501609,10011819,40200319,0,0,0,0,11601109,21010219,0,41101919,30601019,0,0,0,20711019,0,0,31511909,21711719,41310409,0,40500219,-4180051
14,279,522.09140843479,1,0,467037.674538181,467038.721556158,11,1,1,26,19,53313557,154026695,65874728,158747632,0,0,0,21100419,0,0,10511719,0,21701419,21902019,0,40501019,31200919,0,20211119,0,0,40211619,30510819,21511309,10711519,0,0,0,0,-3141081,0,0,11011119,11910309,10000419,20810019,11611419,41101719,21301209,31001419
14,280,429.579130082857,0,0,467040.380342161,467041.427364757,11,0,0,23,19,114513346,64902737,88905996,165336083,30501009,0,0,0,0,41111509,11200219,31700609,0,0,11801419,0,0,0,11900909,0,0,41200409,0,11310919,10910819,30402019,-4071001,21500719,0,0,10710519,40800509,0,10111319,10800409,21710819,0,30001309,40810309,11101409
14,281,365.94893282745,0,0,467042.897923713,467043.94494323,11,0,0,22,31,238347921,247227002,180785933,185565473,10000319,41110109,21210909,30601709,11801809,30411019,40900919,21100819,31210309,0,21200009,41610509,30510219,40401309,10902019,31001309,40701109,30900519,40600319,41900019,20110519,-3161110,41900909,11211819,11600919,0,10300319,31611609,10310709,40501519,0,21610409,30910409,30510509,20110309,0
14,282,390.496353502385,0,0,467045.486065914,467046.533111608,11,1,0,33,0,0,0,0,0,0,0,0,0,0,0,0,0,0,0,0,0,0,0,0,0,0,0,0,0,0,0,0,0,0,0,0,0,0,0,0,0,-31800291,0,0,0
14,283,435.802024032455,1,0,467048.097792364,467049.144809186,11,0,1,35,31,196955413,257658522,179115332,170050792,10111209,30310019,40800319,10210409,41801319,31910119,0,0,31812019,20800219,41311809,40511609,41610619,41411219,30800319,10011409,31201319,0,0,31700719,12000009,12010809,10301519,20000019,41701019,11100919,40300319,10801709,30910409,10002019,11311109,30701609,21200819,10210319,-3011080,41901719
14,284,558.505250664894,1,0,467050.780092937,467051.827097055,11,1,1,25,19,156727503,63523927,126485965,146034846,21701019,20501019,0,21701819,10910719,30000309,40311509,11601109,0,0,31111109,0,21800809,10612009,0,0,0,0,22001409,0,41001519,41810719,10100209,10510919,-1061190,0,0,31710419,41310909,0,0,0,31412009,0,0,41601509
14,285,482.713751727715,0,0,467053.438808877,467054.485825699,11,1,0,13,31,136926103,226855954,176948922,245629441,21800719,11910209,0,20800709,0,41401519,20010719,10401719,10600509,0,20511509,31611409,-1020161,41010219,41301409,30000019,31000709,30400519,21500509,20601519,30511309,11201119,0,10800219,20810709,31411719,30111819,30501209,10001309,30201419,40300719,41200219,31111719,30510819,20901809,10900219
14,286,393.488270055968,1,0,467056.074023335,467057.121043236,11,0,1,10,9,40710809,178124755,83414447,0,0,0,0,0,0,0,0,0,40710809,-3190190,40700619,0,0,20100809,0,41211519,41510909,31410709,20701019,0,0,0,0,31501819,31211609,0,0,0,0,0,0,0,0,0,0,0
14,287,412.867204868235,1,0,467061.685660088,467062.732649963,12,1,1,33,0,0,0,0,0,0,0,0,0,0,0,0,0,0,0,0,0,0,0,0,0,0,0,0,0,0,0,0,0,0,0,0,0,0,0,0,0,-31800291,0,0,0
14,288,424.383311998099,0,0,467064.262030184,467065.30905894,12,0,0,35,9,122235385,41110609,72611928,15182810,40111719,0,20401819,20100109,30710519,10911219,0,0,0,0,0,0,0,0,0,0,41110609,0,0,0,0,41110309,31501619,0,0,0,0,0,0,0,0,0,0,12001719,-3181091,0
14,289,417.202250217088,1,0,467066.744312741,467067.791335337,12,1,1,26,19,53313557,154026695,65874728,158747632,0,0,0,21100419,0,0,10511719,0,21701419,21902019,0,40501019,31200919,0,20211119,0,0,40211619,30510819,21511309,10711519,0,0,0,0,-3141081,0,0,11011119,11910309,10000419,20810019,11611419,41101719,21301209,31001419
14,290,588.651543541346,0,0,467069.308950766,467070.355968743,12,0,0,8,3,22911799,0,10410419,21200319,0,0,0,0,0,0,0,-2011190,20900609,0,0,0,0,0,0,0,0,0,0,0,0,10410419,0,0,0,0,0,0,0,0,0,21200319,0,0,0,0
14,291,328.28088774113,1,0,467072.097100589,467073.144129345,12,0,1,23,3,41200719,41610819,1101111,11601319,0,0,0,0,0,0,0,41200719,0,0,0,41610819,0,0,0,0,0,0,0,0,0,0,-1101111,0,0,0,0,0,0,11601319,0,0,0,0,0,0
14,292,421.024527633563,1,0,467074.57938892,467075.626409977,12,1,1,3,31,199527662,268068331,193955104,205257812,31401319,31410309,-3170160,11911709,10010409,40111409,21010319,20500209,30001819,20800519,40111609,40910519,11011619,40400619,41611509,30810109,20610819,21801009,20510119,40110119,31310419,40511719,0,30201209,0,0,31311519,40310119,30711219,0,30011609,21200909,31210709,10711509,21000819,20100919
14,293,523.830662015826,0,0,467077.167556144,467078.214649959,12,0,0,11,19,146658913,168775316,102843736,70902927,20801119,11601519,10510519,0,0,40311809,30111419,21411809,11910719,41000519,-3071151,31400709,31701609,30501319,31100009,0,0,0,0,0,21011009,10110109,0,30611409,0,0,41111209,0,0,20301309,0,30001209,0,20600409,0,0
14,294,386.349169071764,1,1,467079.743979364,467080.790980403,12,1,0,24,9,11010409,41012528,94104737,82323847,0,11010409,0,0,0,0,0,0,0,0,0,0,0,0,20500709,0,20511819,0,0,0,20410509,0,31801209,-1091200,0,40801819,0,0,20201319,0,0,22011309,0,0,40111219,0
14,295,374.18016808806,0,0,467082.273291832,467083.320313658,12,1,0,20,31,246139041,188351222,239358402,184505874,40101409,21700309,40711819,40101719,30100819,11000019,31110519,21300619,10011809,30701809,0,41700919,30811919,10511619,30800619,11112009,21101809,11610519,20401019,-3010190,41500909,40501709,20711509,31110819,20600419,20610909,40910919,0,40301509,40600809,10601319,32001209,40000309,0,0,21000719
14,296,487.365619977936,0,0,467084.743811136,467085.790842587,12,1,0,13,31,136926103,226855954,176948922,245629441,21800719,11910209,0,20800709,0,41401519,20010719,10401719,10600509,0,20511509,31611409,-1020161,41010219,41301409,30000019,31000709,30400519,21500509,20601519,30511309,11201119,0,10800219,20810709,31411719,30111819,30501209,10001309,30201419,40300719,41200219,31111719,30510819,20901809,10900219
14,297,358.523035887629,1,0,467087.343752776,467088.390766904,12,1,1,4,3,3050060,41710628,10701909,0,0,0,0,-3050060,0,0,0,0,0,11310409,0,0,0,0,0,0,0,30400219,0,0,0,0,10701909,0,0,0,0,0,0,0,0,0,0,0,0,0
14,298,579.670404316857,0,0,467089.790733258,467090.837755854,12,0,0,12,31,165244612,159198433,207568512,220558722,11310209,40711419,10310319,20001119,10600309,21300509,0,30510219,20500509,11700909,21801109,-1040050,10010009,0,31312019,30911819,31610609,20811909,30901519,21800709,31010219,0,20611419,30211319,30312009,31210609,11510709,32011019,41501319,30101619,20511819,21310319,0,11811509,42010109,21301009
14,299,882.162718567997,0,0,467092.473007269,467093.520037949,12,1,0,36,19,127224304,71714556,104314266,159925326,41200819,20800819,0,11800119,10910519,31601209,0,10910819,0,0,10000809,0,11501609,10011819,40200319,0,0,0,0,11601109,21010219,0,41101919,30601019,0,0,0,20711019,0,0,31511909,21711719,41310409,0,40500219,-4180051
14,300,657.323959516361,1,0,467095.567047842,467096.614067744,12,1,1,34,3,0,0,82803018,23992180,0,0,0,0,0,0,0,0,0,0,0,0,0,0,0,0,0,0,0,0,0,0,0,41801109,0,41001909,0,0,0,0,0,0,21801109,-2191071,0,0
14,301,489.394364238251,1,0,467098.378726095,467099.425745226,12,1,1,25,19,156727503,63523927,126485965,146034846,21701019,20501019,0,21701819,10910719,30000309,40311509,11601109,0,0,31111109,0,21800809,10612009,0,0,0,0,22001409,0,41001519,41810719,10100209,10510919,-1061190,0,0,31710419,41310909,0,0,0,31412009,0,0,41601509
14,302,528.335860173684,0,0,467101.013938243,467102.060964304,12,1,0,18,9,60822528,138166605,0,71912128,30111909,0,0,0,0,0,0,0,30710619,0,20801909,31511409,20810219,21600819,0,0,41301109,-2141140,0,0,0,0,0,0,0,0,0,0,0,0,0,0,0,0,40311409,31600719
14,303,568.247842718847,1,0,467103.719753771,467104.766779062,12,0,1,29,31,188446012,178169412,289249431,207865085,0,11010719,31800609,40501109,10810609,30211019,31301309,12010219,20800419,20510419,40310209,20211319,11511619,12001819,21011509,0,21601209,31011309,30600209,31511519,31911209,30201009,40800919,42011809,40901319,31211019,10100419,41011619,-3141201,0,40100519,0,20300019,31500309,31200409,40611009
14,304,529.799481737427,1,0,467106.496157666,467107.543192966,12,0,1,5,9,14340599,114923165,94523637,0,0,0,0,0,-4040190,0,10300409,0,0,10501409,41200119,0,11210219,0,10300209,0,0,41711209,0,0,0,11101509,41910719,0,0,41511409,0,0,0,0,0,0,0,0,0,0
14,305,570.714672561735,0,0,467109.190197623,467110.23722253,12,0,0,14,9,61832537,106112747,71712618,41600109,0,30011409,0,0,0,21111009,0,10710119,0,0,0,31901109,0,-1000110,0,31200419,42011109,0,0,0,0,41202009,0,30510609,0,0,0,0,0,0,0,0,41600109,0,0,0
14,306,991.577862820122,1,0,467111.96658612,467113.013605637,12,0,1,10,19,62022438,178088214,134247474,94227375,0,0,21511519,0,0,0,0,40510919,0,-4151140,11410919,0,0,41011609,10200219,40410609,30801909,40101809,40110519,10112009,20901609,31201709,11511019,0,0,0,20410609,0,21102019,21201609,20110619,10901109,20912019,0,0,0
14,307,436.824480304495,0,0,467115.190022851,467116.237113201,12,1,0,15,9,20700519,119174937,50810318,21613428,0,0,0,0,0,0,0,20700519,0,11311809,0,40500009,0,41200509,-4161101,0,0,22001509,40210309,0,0,0,0,10600009,0,0,0,0,0,11111809,0,0,0,0,10501619,0
14,308,430.680118442979,1,0,467117.77819046,467118.825213441,12,0,1,22,19,206645384,147633675,149646975,64123437,30810719,0,41711119,31510319,30300109,40501709,0,31811409,0,0,42010219,41900609,31010519,11601019,0,0,0,21111309,0,20911309,22010819,-4001090,21511519,40500719,0,40711519,0,0,0,11401319,0,0,0,20910509,31811609,0
14,309,676.708668703213,0,0,467120.377914596,467121.425192038,12,0,0,32,31,249359822,207849022,236229082,148586853,0,20111619,21711619,21810809,21402019,42011119,40311309,40001019,42000309,20100309,11800119,41511919,20201519,20211509,31710019,31701819,0,30611809,0,10501819,41500209,10601109,30400409,40801909,31401709,30211309,40810609,11211609,21801209,21600409,10611319,-2130160,20211019,30810919,30210209,0
14,310,477.251925622113,0,0,467123.154543694,467124.201538573,12,0,0,21,0,0,0,0,0,0,0,0,0,0,0,0,0,0,0,0,0,0,0,0,0,0,0,0,0,-11901591,0,0,0,0,0,0,0,0,0,0,0,0,0,0,0
14,311,707.110960618593,1,0,467125.778021847,467126.836753416,12,1,1,7,3,1081160,31801709,11702019,21310919,0,0,0,0,0,0,-1081160,0,0,0,0,31801709,0,0,0,0,0,0,0,11702019,0,0,0,0,0,0,0,0,21310919,0,0,0,0,0,0,0
14,312,408.295793458819,1,0,467128.636713457,467129.683729124,12,0,1,28,3,20110609,0,0,46804328,0,0,0,0,0,0,20110609,0,0,0,0,0,0,0,0,0,0,0,0,0,0,0,0,0,0,0,0,-4181000,0,0,0,0,11311419,0,0,31311909
14,313,455.486232822295,1,0,467134.354195997,467135.401220904,13,1,1,15,9,20700519,119174937,50810318,21613428,0,0,0,0,0,0,0,20700519,0,11311809,0,40500009,0,41200509,-4161101,0,0,22001509,40210309,0,0,0,0,10600009,0,0,0,0,0,11111809,0,0,0,0,10501619,0
14,314,607.779098849278,0,0,467137.012953128,467138.060025769,13,0,0,28,31,178057712,255326793,187437902,231460882,11000919,21510519,10711109,30110509,30900919,0,32011919,11401409,30410409,40601809,21101019,40312009,41500809,40400019,30000809,41410319,0,0,20811109,41512009,31200409,0,30601319,20400519,12000119,10110609,20801809,-3031070,30401109,21900209,30912019,31001519,31401419,41711409,10400309,30701819
14,315,625.89151202701,0,0,467139.707035431,467140.754012987,13,1,0,25,19,156727503,63523927,126485965,146034846,21701019,20501019,0,21701819,10910719,30000309,40311509,11601109,0,0,31111109,0,21800809,10612009,0,0,0,0,22001409,0,41001519,41810719,10100209,10510919,-1061190,0,0,31710419,41310909,0,0,0,31412009,0,0,41601509
14,316,799.9296678463,1,0,467142.56573089,467143.612752332,13,1,1,24,9,11010409,41012528,94104737,82323847,0,11010409,0,0,0,0,0,0,0,0,0,0,0,0,20500709,0,20511819,0,0,0,20410509,0,31801209,-1091200,0,40801819,0,0,20201319,0,0,22011309,0,0,40111219,0
14,317,496.932669775561,1,0,467145.612697668,467146.659734123,13,0,1,14,19,144634436,112714676,208125303,62212057,0,0,40310309,41211309,0,0,21911609,41201209,0,20010409,0,10801309,0,-1071111,30410119,40411219,0,10010509,11000409,40911919,31800719,11300109,0,30711809,40600219,41800119,0,0,0,10601719,0,0,0,40710319,10900019,0
14,318,493.977709440514,1,0,467148.212637383,467149.25965305,13,1,1,33,0,0,0,0,0,0,0,0,0,0,0,0,0,0,0,0,0,0,0,0,0,0,0,0,0,0,0,0,0,0,0,0,0,0,0,0,0,-31800291,0,0,0
14,319,1293.37763233343,0,0,467150.871382964,467151.918409795,13,1,0,18,9,60822528,138166605,0,71912128,30111909,0,0,0,0,0,0,0,30710619,0,20801909,31511409,20810219,21600819,0,0,41301109,-2141140,0,0,0,0,0,0,0,0,0,0,0,0,0,0,0,0,40311409,31600719
14,320,466.973082977347,0,0,467154.247760451,467155.294794981,13,1,0,34,3,0,0,82803018,23992180,0,0,0,0,0,0,0,0,0,0,0,0,0,0,0,0,0,0,0,0,0,0,0,41801109,0,41001909,0,0,0,0,0,0,21801109,-2191071,0,0
14,321,552.720057370607,1,0,467156.882980298,467157.930010209,13,1,1,20,31,246139041,188351222,239358402,184505874,40101409,21700309,40711819,40101719,30100819,11000019,31110519,21300619,10011809,30701809,0,41700919,30811919,10511619,30800619,11112009,21101809,11610519,20401019,-3010190,41500909,40501709,20711509,31110819,20600419,20610909,40910919,0,40301509,40600809,10601319,32001209,40000309,0,0,21000719
14,322,575.257211865392,0,0,467159.518203225,467160.565226977,13,0,0,35,31,260570711,216058302,198025113,236175753,31011119,40411509,40812019,21510709,20701609,42010119,41710409,12001909,10401309,0,41311809,40100619,40501819,21710209,30710919,10810509,20010909,10901509,22000119,0,20001219,31600309,41711119,21410419,20000219,41301709,0,0,20111019,40601309,41410609,20010819,40510119,31411819,-1110040,41010019
14,323,604.747531237081,1,0,467162.282835399,467163.329857225,13,0,1,29,3,52012938,0,20711409,2190171,0,0,0,11311719,0,0,40701219,0,0,0,0,0,0,0,0,0,0,0,0,0,0,0,0,20711409,0,0,0,0,-2190171,0,0,0,0,0,0,0
14,324,862.512386287563,0,0,467165.118053629,467166.165075071,13,0,0,32,9,184743875,41200519,41823028,13131749,41300819,40011109,0,0,40410719,41011109,0,22010119,0,0,0,0,0,0,0,41200519,0,0,0,0,20811409,0,0,0,0,0,21011619,0,0,0,0,-3031130,10100619,0,0,0
14,325,564.034829905722,0,0,467168.200314012,467169.247344308,13,0,0,10,31,255749141,171446794,197540592,146605823,21201519,20611619,20110919,21110709,11101409,40301119,40510719,40300009,40501119,-4100091,40611019,20010819,31400119,10411619,11000509,0,32001209,21911409,0,10712019,30701609,42011119,20601509,41411209,11001209,30700809,10401109,11000009,40500919,10100419,11501819,30802019,11600219,0,0,31100419
14,326,693.551095726434,0,0,467170.917890868,467171.964912694,13,0,0,23,9,0,53612518,106863876,83313157,0,0,0,0,0,0,0,0,0,0,0,31901109,0,21711409,0,0,0,0,0,0,0,41111309,-3031010,21800019,30910019,0,10011519,0,21001719,0,0,20900119,0,41411319,0,0
14,327,724.958520673681,1,0,467173.74136471,467174.788356124,13,1,1,7,3,1081160,31801709,11702019,21310919,0,0,0,0,0,0,-1081160,0,0,0,0,31801709,0,0,0,0,0,0,0,11702019,0,0,0,0,0,0,0,0,21310919,0,0,0,0,0,0,0
14,328,558.24270733865,0,0,467176.553025639,467177.600048235,13,0,0,8,19,157175495,145222185,153925456,123716265,0,0,30611109,31310309,40401019,41700909,11111019,-2041130,0,0,20400619,0,0,41900119,11211219,30310219,41400009,0,0,41112019,30111409,41500719,41201309,0,0,0,0,30501709,0,10601509,0,30810309,0,10401419,0,41401319
14,329,504.802041745279,1,0,467179.329480734,467180.376489087,13,0,1,5,3,3160000,40612009,11102009,20800519,0,0,0,0,-3160000,0,0,0,0,0,0,0,0,40612009,0,0,0,0,0,0,0,0,11102009,0,0,0,0,0,0,0,0,0,0,20800519,0,0
14,330,449.649454734754,1,0,467181.95287766,467182.999904106,13,1,1,26,19,53313557,154026695,65874728,158747632,0,0,0,21100419,0,0,10511719,0,21701419,21902019,0,40501019,31200919,0,20211119,0,0,40211619,30510819,21511309,10711519,0,0,0,0,-3141081,0,0,11011119,11910309,10000419,20810019,11611419,41101719,21301209,31001419
14,331,435.304269485641,1,0,467184.588088653,467185.635120104,13,1,1,3,31,199527662,268068331,193955104,205257812,31401319,31410309,-3170160,11911709,10010409,40111409,21010319,20500209,30001819,20800519,40111609,40910519,11011619,40400619,41611509,30810109,20610819,21801009,20510119,40110119,31310419,40511719,0,30201209,0,0,31311519,40310119,30711219,0,30011609,21200909,31210709,10711509,21000819,20100919
14,332,579.45867581293,0,0,467187.199783536,467188.246813832,13,1,0,36,19,127224304,71714556,104314266,159925326,41200819,20800819,0,11800119,10910519,31601209,0,10910819,0,0,10000809,0,11501609,10011819,40200319,0,0,0,0,11601109,21010219,0,41101919,30601019,0,0,0,20711019,0,0,31511909,21711719,41310409,0,40500219,-4180051
14,333,434.928547590971,0,0,467189.964472684,467191.0114999,13,0,0,22,19,143123065,137349284,35142339,187055964,0,10611009,20900109,30700619,40311219,0,40600109,0,0,0,41311219,12002009,30911909,0,21310819,11501409,20311919,0,21010119,0,0,-4130201,0,0,0,10002019,0,0,11612009,31710909,0,40410509,40901019,21410309,0,41011209
14,334,371.568592905533,1,0,467192.505521071,467193.552550212,13,0,1,22,0,0,0,0,0,0,0,0,0,0,0,0,0,0,0,0,0,0,0,0,0,0,0,0,0,0,-20201591,0,0,0,0,0,0,0,0,0,0,0,0,0,0
14,335,499.570037296508,1,0,467194.99956919,467196.046599101,13,0,1,12,3,31110919,3050140,0,71411928,0,0,0,0,0,0,0,0,31110919,0,0,-3050140,0,0,0,0,0,0,0,0,0,0,0,0,0,0,0,31200219,0,0,0,0,0,40211709,0,0
14,336,483.62957383506,0,0,467197.752428488,467198.799461478,13,0,0,11,9,63713628,64634249,103123947,84011028,0,0,0,31811909,31901719,0,0,0,0,0,-4111021,0,20111409,0,0,0,40411819,0,0,0,0,0,0,0,40510709,30911319,31701919,42010419,0,42000609,0,0,0,0,0,0
14,337,423.603746748995,1,0,467200.317068052,467201.387423152,13,1,1,4,3,3050060,41710628,10701909,0,0,0,0,-3050060,0,0,0,0,0,11310409,0,0,0,0,0,0,0,30400219,0,0,0,0,10701909,0,0,0,0,0,0,0,0,0,0,0,0,0
14,338,1880.57398470119,0,0,467202.846414781,467203.893456241,13,1,0,13,31,136926103,226855954,176948922,245629441,21800719,11910209,0,20800709,0,41401519,20010719,10401719,10600509,0,20511509,31611409,-1020161,41010219,41301409,30000019,31000709,30400519,21500509,20601519,30511309,11201119,0,10800219,20810709,31411719,30111819,30501209,10001309,30201419,40300719,41200219,31111719,30510819,20901809,10900219
14,339,406.283602467738,1,0,467214.469611913,467215.516643748,14,1,1,20,31,246139041,188351222,239358402,184505874,40101409,21700309,40711819,40101719,30100819,11000019,31110519,21300619,10011809,30701809,0,41700919,30811919,10511619,30800619,11112009,21101809,11610519,20401019,-3010190,41500909,40501709,20711509,31110819,20600419,20610909,40910919,0,40301509,40600809,10601319,32001209,40000309,0,0,21000719
14,340,509.93126159301,1,0,467216.940144691,467217.987226187,14,1,1,7,3,1081160,31801709,11702019,21310919,0,0,0,0,0,0,-1081160,0,0,0,0,31801709,0,0,0,0,0,0,0,11702019,0,0,0,0,0,0,0,0,21310919,0,0,0,0,0,0,0
14,341,424.862973333802,0,0,467219.634190808,467220.681215714,14,1,0,34,3,0,0,82803018,23992180,0,0,0,0,0,0,0,0,0,0,0,0,0,0,0,0,0,0,0,0,0,0,0,41801109,0,41001909,0,0,0,0,0,0,21801109,-2191071,0,0
14,342,420.795090845786,1,0,467222.187080594,467223.234075089,14,1,1,24,9,11010409,41012528,94104737,82323847,0,11010409,0,0,0,0,0,0,0,0,0,0,0,0,20500709,0,20511819,0,0,0,20410509,0,31801209,-1091200,0,40801819,0,0,20201319,0,0,22011309,0,0,40111219,0
14,343,583.392206928693,0,0,467224.657568332,467225.704594778,14,0,0,22,9,112323546,73322637,1090130,71321828,21701109,0,30210709,0,40411209,0,0,0,20000519,0,20911309,0,0,30500719,0,0,21910609,0,0,0,0,-1090130,0,0,0,0,0,0,0,0,0,0,0,40310409,31011419,0
14,344,477.622642996721,0,0,467227.328146074,467228.375142108,14,0,0,5,9,15900900,52823618,32011709,154045095,11800709,0,0,0,-4100191,0,0,0,0,0,0,0,0,0,0,0,31111809,21711809,0,0,0,0,32011709,0,0,0,0,21511219,30011519,0,0,0,20411219,0,40400419,41710719
14,345,407.691404747311,0,0,467229.916238616,467230.963267371,14,1,0,33,0,0,0,0,0,0,0,0,0,0,0,0,0,0,0,0,0,0,0,0,0,0,0,0,0,0,0,0,0,0,0,0,0,0,0,0,0,-31800291,0,0,0
14,346,532.522310619242,0,0,467232.563227489,467233.610259325,14,0,0,35,19,176245094,62724166,124726075,106766247,30210819,11910709,31100019,0,0,0,31201119,31811709,40010719,0,20911119,0,10400209,21311419,0,10101419,0,0,0,0,20001219,21811919,31001509,0,40500109,0,11411319,21500819,10411419,0,0,31011409,0,40701519,-3141081,0
14,347,522.648446902167,1,0,467235.163162585,467236.210183642,14,1,1,13,31,136926103,226855954,176948922,245629441,21800719,11910209,0,20800709,0,41401519,20010719,10401719,10600509,0,20511509,31611409,-1020161,41010219,41301409,30000019,31000709,30400519,21500509,20601519,30511309,11201119,0,10800219,20810709,31411719,30111819,30501209,10001309,30201419,40300719,41200219,31111719,30510819,20901809,10900219
14,348,449.070088507142,1,0,467237.927785905,467238.974807346,14,0,1,11,19,174945364,128894506,94743846,93324246,30311809,41310319,32010409,0,10700109,40312009,20300709,0,0,0,-4160031,0,32010619,41410409,10200419,0,21001319,20111709,0,0,40611009,0,0,11610809,31610909,0,10911119,0,0,0,0,0,41001009,20600309,21510909,10212019
14,349,529.193168273196,1,0,467240.492443563,467241.539444986,14,1,1,25,19,156727503,63523927,126485965,146034846,21701019,20501019,0,21701819,10910719,30000309,40311509,11601109,0,0,31111109,0,21800809,10612009,0,0,0,0,22001409,0,41001519,41810719,10100209,10510919,-1061190,0,0,31710419,41310909,0,0,0,31412009,0,0,41601509
