sub_id,Trial,RT,Resp,Error,Fix_onset,Disp_onset,block,repeat,tid,tloc,d_setsize,quad1,quad2,quad3,quad4,loc1,loc2,loc3,loc4,loc5,loc6,loc7,loc8,loc9,loc10,loc11,loc12,loc13,loc14,loc15,loc16,loc17,loc18,loc19,loc20,loc21,loc22,loc23,loc24,loc25,loc26,loc27,loc28,loc29,loc30,loc31,loc32,loc33,loc34,loc35,loc36
16,1,533.665443246719,0,1,455930.910872846,455931.957947412,1,1,1,3,31,228035884,260263501,177516883,255338542,41410909,40101819,-3080191,40310409,0,40011119,31710009,10200219,21211209,21901909,31110609,41711219,31011809,20401209,10201309,42001709,20011709,41912019,10001309,0,0,30511209,40300119,21200309,31900919,21801709,21801309,40311819,30801919,20810209,20400519,31401819,40010019,0,40000919,31601319
16,2,461.747806402855,1,0,455933.510929589,455934.558023404,1,1,1,34,3,0,32801018,0,14983149,0,0,0,0,0,0,0,0,0,12001009,0,0,0,20800009,0,0,0,0,0,0,0,0,0,0,0,0,0,0,0,0,11802019,0,0,-3181130,0,0
16,3,703.287326905411,1,0,455936.052234361,455937.099270431,1,1,1,1,19,54622989,209435993,207156894,124035836,-3111161,41400309,0,0,0,0,10111519,0,0,0,21400919,21500709,40610609,0,41502019,11610509,32000509,40810719,41410609,41811219,22011419,40302009,21310819,0,0,0,40310819,0,40112009,0,30200609,41711809,12011409,0,0,0
16,4,387.555435299873,0,1,455938.969912769,455940.017004273,1,1,1,7,9,2120171,84312266,92402047,63102128,0,0,0,0,0,0,-2120171,0,0,0,30500219,0,0,0,21300819,11611209,20900019,0,31400319,0,0,0,0,0,0,20000809,41000919,0,0,0,0,0,0,41900919,0,21201209
16,5,320.534116937779,1,0,455941.581750472,455942.628852371,1,0,1,22,9,0,53912037,64263398,115214636,0,0,0,0,0,0,0,0,0,0,0,0,21800109,20710409,0,11401519,0,0,0,41211719,0,-3051070,20000609,0,0,0,0,0,40802009,0,42001409,10700909,0,0,0,21710309
16,6,426.883047039155,0,0,455944.040663204,455945.087750089,1,0,0,26,9,82422957,53723637,31800140,72103528,31210919,0,0,40711519,0,0,0,10500519,0,0,21511719,0,0,0,0,20601709,11610209,0,0,0,0,30710009,0,0,0,-1090131,0,0,0,0,0,0,0,30601809,41501719,0
16,7,392.479086003732,1,0,455946.628967474,455947.676054744,1,0,1,12,19,136745094,66293588,165413275,127433875,11610019,0,20800919,21011109,20011109,41611919,21700019,0,0,0,0,-2181141,0,0,31700819,0,11910909,20500719,41001319,32000809,20600619,0,40010209,0,0,31800319,0,0,31910419,0,10500119,0,32000819,41110909,11911609,0
16,8,370.188691478688,0,0,455949.07610579,455950.123183821,1,1,0,19,19,163724484,226636284,65734848,93334876,40511809,10310609,30700619,0,10800819,0,40500409,0,30900219,40510319,0,0,31311219,0,40210009,41201309,41701909,31701519,-2011091,0,0,21111919,11800619,30811219,0,0,0,0,10201019,0,0,0,40211419,22010519,0,20911919
16,9,326.948336500209,1,0,455951.5703845,455952.617375145,1,0,1,34,0,0,0,0,0,0,0,0,0,0,0,0,0,0,0,0,0,0,0,0,0,0,0,0,0,0,0,0,0,0,0,0,0,0,0,0,0,0,-21100301,0,0
16,10,331.165666051675,0,1,455954.064525779,455955.111366977,1,0,1,2,19,125733807,166346465,173644774,95212446,31510119,-2011151,0,40900019,0,40301409,0,0,11011109,40411419,0,0,30911509,0,0,31912009,31810719,31300809,11501609,21210319,0,40411009,0,40000219,0,30111509,30410109,0,0,21700319,0,20700109,41201209,11610809,0,0
16,11,304.381924914196,0,0,455956.499845793,455957.546935373,1,0,0,21,3,0,41510919,35092010,21911409,0,0,0,0,0,0,0,0,0,0,0,0,0,0,41510919,0,0,0,31901909,0,-3190101,0,0,0,0,0,0,0,0,0,0,0,0,0,21911409,0
16,12,353.824385965709,0,0,455959.029341887,455960.076424153,1,1,0,25,3,61401318,0,1040190,31910219,0,0,0,0,0,0,0,41200309,20201009,0,0,0,0,0,0,0,0,0,0,0,0,0,0,0,-1040190,0,0,0,0,31910219,0,0,0,0,0,0
16,13,338.461363920942,0,0,455961.464703862,455962.511794212,1,1,0,32,3,0,41711109,42510418,4011071,0,0,0,0,0,0,0,0,0,0,0,0,0,0,0,41711109,0,0,20800409,0,0,0,0,0,0,21710009,0,0,0,0,0,-4011071,0,0,0,0
16,14,345.184707141016,1,0,455963.958919439,455965.005980531,1,0,1,9,3,2070160,0,40922128,21110609,0,0,0,0,0,0,0,0,-2070160,0,0,0,0,0,0,0,0,0,0,0,10711909,0,0,0,30210219,0,0,0,0,0,0,0,0,21110609,0,0
16,15,358.333433687221,0,0,455966.453081506,455967.500166081,1,0,0,15,31,228327102,168807985,202430021,210356112,10402019,10600309,31910719,41200809,41901709,41110809,21000719,30200009,0,11111009,0,31000509,11101019,41102019,-2081201,40501309,0,31910919,21702009,20001819,41301219,21501409,11700309,11800109,31511219,21401419,21510509,41600109,40600009,11911719,31101419,21710409,30910619,20710809,0,11811019
16,16,296.527181460988,1,0,455969.029631378,455970.076714028,1,1,1,30,0,0,0,0,0,0,0,0,0,0,0,0,0,0,0,0,0,0,0,0,0,0,0,0,0,0,0,0,0,0,0,0,0,0,-41301001,0,0,0,0,0,0
16,17,478.838148294017,0,0,455971.500296198,455972.547376153,1,1,0,5,9,42912070,82113437,74413747,51521038,0,0,0,0,-1001051,41911019,0,0,0,0,0,0,0,0,20400009,0,20611609,41101819,22001809,0,0,0,21600419,0,0,0,30811519,0,30110319,0,21410719,0,0,0,0,0
16,18,359.408244665246,1,0,455974.182731122,455975.229809153,1,1,1,14,9,101902347,2121090,105332537,73023957,41101719,20500419,0,0,0,40300209,0,0,0,0,0,0,0,-2121090,0,0,0,0,0,31910209,31412009,0,0,0,42010319,0,0,0,0,21710919,0,0,0,40301519,11011519,0
16,19,361.65449192049,0,0,455976.759312946,455977.806425623,1,1,0,13,19,77936265,138475295,122031966,133937985,0,0,21711409,11711919,20600019,0,12011409,0,11901509,41710109,0,21301909,-4051150,30400609,0,0,10800209,30211309,40600919,0,0,10810219,0,0,0,30210309,40410519,0,0,0,10311519,31101519,31502019,30311419,30711509,0
16,20,552.463087020442,0,0,455979.241699442,455980.288787867,1,1,0,29,31,208860982,206938402,189057522,170428414,30901809,0,20410409,31411809,21810909,20401909,21411919,30601909,31910309,10700809,30101419,11711609,0,41401509,40300309,21012019,21210009,30500719,30711919,11410819,21810309,21310919,21210709,30500709,40101419,12000719,0,22000409,-3170011,22011719,30311419,0,30312019,11611109,20500519,30511209
16,21,302.201891026925,1,1,455981.888888496,455982.935918021,1,0,0,11,31,168938911,159548354,222168611,225138113,20100019,11701619,11210909,40610009,21101409,10201019,10301909,12010709,31701309,40211519,-4000160,40510909,21011419,31212019,11601619,11000709,0,0,31000819,20511609,31011709,41401809,12000019,11010609,21810319,11611409,41810309,20610109,30600619,40301409,0,0,40911819,30500819,21201419,41011919
16,22,600.808409275487,1,0,455984.277142798,455985.324217364,1,0,1,35,9,10711209,84524456,30912138,55682468,0,0,0,0,0,0,0,10711209,0,0,0,30100609,0,0,31511719,0,10900519,12011609,0,10010119,0,0,0,0,20902019,0,0,40300809,0,0,0,0,11201609,0,-4180050,0
16,23,342.772156756837,0,0,455987.077225256,455988.124307137,1,0,0,27,19,133732466,113523636,110144206,158436084,0,0,0,30510109,20710819,41510419,0,41001119,0,0,0,30700909,0,0,40610409,0,30310309,11902009,0,11701709,21200309,21800709,21510719,0,0,31900709,-2030051,32001219,30910609,21901409,21911019,0,0,41401719,0,10310109
16,24,366.948475013487,1,1,455989.547892771,455990.594966567,1,0,0,6,3,33981310,10511309,31810819,0,0,0,0,0,31911209,-2070101,0,0,0,0,0,0,0,0,0,0,10511309,0,0,0,31810819,0,0,0,0,0,0,0,0,0,0,0,0,0,0,0
16,25,535.854331334122,1,0,455992.042105653,455993.08916636,1,0,1,36,31,177958312,156439421,144934893,211558963,40201019,22000109,0,31311409,30911019,10810309,20501009,11911519,10311919,20400309,10401919,20411509,31901909,20300009,10511319,20201509,10910719,11400219,20010309,0,0,20900919,20201219,10101709,10600419,31310209,31810109,41401909,10701619,11711619,31600819,0,41600219,31911709,40510909,-2120160
16,26,332.578390545677,0,0,455994.689225028,455995.736303829,1,1,0,8,31,142587034,178868141,195068712,219345722,11500819,10301309,11910909,41901619,21211509,0,0,-4050160,41710709,10900519,11711119,30100719,31910819,11010619,10912019,30510809,30300809,11510709,10311009,10910809,42001419,20110019,30111309,40801409,10611519,0,30211219,40710409,30610119,41701019,20311309,20400619,11801019,31911109,21900119,0
16,27,448.41237377841,0,1,456007.207245051,456008.254324237,2,1,1,1,19,54622989,209435993,207156894,124035836,-3111161,41400309,0,0,0,0,10111519,0,0,0,21400919,21500709,40610609,0,41502019,11610509,32000509,40810719,41410609,41811219,22011419,40302009,21310819,0,0,0,40310819,0,40112009,0,30200609,41711809,12011409,0,0,0
16,28,404.573019535746,1,0,456009.866142692,456010.913238816,2,1,1,30,0,0,0,0,0,0,0,0,0,0,0,0,0,0,0,0,0,0,0,0,0,0,0,0,0,0,0,0,0,0,0,0,0,0,-41301001,0,0,0,0,0,0
16,29,376.080903923139,0,0,456012.489744418,456013.536825913,2,0,0,2,31,200005623,279565401,136961002,167267793,11600809,-3160130,41211009,41501019,0,31010509,30810319,30501309,10210519,40800609,11201309,40810219,10500809,31110609,41510109,31710209,41010719,30910809,30711519,11302009,20210909,0,31801709,11701809,10110419,10911209,10211419,40411519,11101909,0,11810319,31410309,30510609,20111209,0,21911919
16,30,344.872118788771,0,0,456015.042752002,456016.08990587,2,1,0,25,3,61401318,0,1040190,31910219,0,0,0,0,0,0,0,41200309,20201009,0,0,0,0,0,0,0,0,0,0,0,0,0,0,0,-1040190,0,0,0,0,31910219,0,0,0,0,0,0
16,31,400.967475201469,0,0,456017.548712353,456018.595792693,2,0,0,26,31,250959641,260180321,159935845,216024103,41010519,32001309,22010509,21011319,10210719,30611719,21401209,30901619,41800719,31810219,20610709,21711409,20611719,40711609,21111209,42001219,20410209,41202019,30511409,11500819,31100809,40810919,0,0,11901619,-2110061,32000209,30800119,0,20210019,41210009,0,41901019,20200519,41001409,20701009
16,32,354.496527812444,1,0,456020.125252986,456021.17234834,2,1,1,34,3,0,32801018,0,14983149,0,0,0,0,0,0,0,0,0,12001009,0,0,0,20800009,0,0,0,0,0,0,0,0,0,0,0,0,0,0,0,0,11802019,0,0,-3181130,0,0
16,33,401.562239858322,1,0,456022.595929739,456023.6430147,2,1,1,5,9,42912070,82113437,74413747,51521038,0,0,0,0,-1001051,41911019,0,0,0,0,0,0,0,0,20400009,0,20611609,41101819,22001809,0,0,0,21600419,0,0,0,30811519,0,30110319,0,21410719,0,0,0,0,0
16,34,476.395186036825,1,0,456025.078344723,456026.125437767,2,1,1,29,31,208860982,206938402,189057522,170428414,30901809,0,20410409,31411809,21810909,20401909,21411919,30601909,31910309,10700809,30101419,11711609,0,41401509,40300309,21012019,21210009,30500719,30711919,11410819,21810309,21310919,21210709,30500709,40101419,12000719,0,22000409,-3170011,22011719,30311419,0,30312019,11611109,20500519,30511209
16,35,360.327916394454,0,0,456027.784310771,456028.831433072,2,0,0,17,0,0,0,0,0,0,0,0,0,0,0,0,0,0,0,0,0,0,0,0,0,-21400301,0,0,0,0,0,0,0,0,0,0,0,0,0,0,0,0,0,0,0
16,36,406.011618673801,0,0,456030.219661582,456031.266773874,2,1,0,7,9,2120171,84312266,92402047,63102128,0,0,0,0,0,0,-2120171,0,0,0,30500219,0,0,0,21300819,11611209,20900019,0,31400319,0,0,0,0,0,0,20000809,41000919,0,0,0,0,0,0,41900919,0,21201209
16,37,377.638840931468,0,0,456032.866821378,456033.91388709,2,0,0,21,3,0,31010409,1121040,51901828,0,0,0,0,0,0,0,0,0,0,0,0,0,0,31010409,0,0,0,0,0,-1121040,0,0,0,0,0,0,30601109,0,0,21300719,0,0,0,0,0
16,38,338.68887583958,0,0,456035.41985899,456036.466916618,2,0,0,27,31,166447423,208949802,190449663,187358212,0,40810819,0,21001319,21011219,11601119,30710209,11100919,30211819,21010609,41500409,31111419,10310609,31201919,10311309,41501519,22002009,0,30411109,31411319,10711119,30911519,10011719,21110319,10310719,41400809,-4171031,0,10001419,20911719,32011009,31700309,21810009,30311419,20110909,20501419
16,39,362.127223925199,0,1,456037.949312738,456038.996399238,2,1,1,13,19,77936265,138475295,122031966,133937985,0,0,21711409,11711919,20600019,0,12011409,0,11901509,41710109,0,21301909,-4051150,30400609,0,0,10800209,30211309,40600919,0,0,10810219,0,0,0,30210309,40410519,0,0,0,10311519,31101519,31502019,30311419,30711509,0
16,40,405.27172369184,1,0,456040.455275013,456041.502357279,2,0,1,15,9,21012019,91283078,92813947,42512628,0,0,0,0,21012019,0,0,0,0,0,0,0,0,0,-1070151,30000509,30101209,30111209,40011519,31100909,0,21701519,0,0,0,0,0,0,0,0,0,11310719,0,0,31201909,0
16,41,418.940917472355,1,0,456042.949455558,456043.996574395,2,1,1,19,19,163724484,226636284,65734848,93334876,40511809,10310609,30700619,0,10800819,0,40500409,0,30900219,40510319,0,0,31311219,0,40210009,41201309,41701909,31701519,-2011091,0,0,21111919,11800619,30811219,0,0,0,0,10201019,0,0,0,40211419,22010519,0,20911919
16,42,550.508255255409,0,0,456045.526018904,456046.573094625,2,1,0,8,31,142587034,178868141,195068712,219345722,11500819,10301309,11910909,41901619,21211509,0,0,-4050160,41710709,10900519,11711119,30100719,31910819,11010619,10912019,30510809,30300809,11510709,10311009,10910809,42001419,20110019,30111309,40801409,10611519,0,30211219,40710409,30610119,41701019,20311309,20400619,11801019,31911109,21900119,0
16,43,423.963118169922,0,0,456048.314353124,456049.361415372,2,0,0,22,3,23310928,0,3000160,41200709,0,0,0,0,0,11800409,0,0,11510519,0,0,0,0,0,0,0,0,0,0,0,0,-3000160,0,0,0,0,0,0,0,0,41200709,0,0,0,0,0
16,44,746.877226454671,1,0,456050.914401013,456051.961552187,2,0,1,6,19,130314435,104557094,83125456,92614546,0,11800209,0,32010409,31400919,-3091080,10301209,41710609,0,20911419,0,30010009,11411809,0,0,10211719,11500219,20511919,0,20111219,0,0,10501609,0,40601319,11911309,0,0,21001509,0,0,0,20311709,0,31000209,20301119
16,45,469.679927045945,1,0,456053.902757484,456054.949815882,2,1,1,3,31,228035884,260263501,177516883,255338542,41410909,40101819,-3080191,40310409,0,40011119,31710009,10200219,21211209,21901909,31110609,41711219,31011809,20401209,10201309,42001709,20011709,41912019,10001309,0,0,30511209,40300119,21200309,31900919,21801709,21801309,40311819,30801919,20810209,20400519,31401819,40010019,0,40000919,31601319
16,46,403.121331764851,1,0,456056.491046741,456057.538127081,2,1,1,14,9,101902347,2121090,105332537,73023957,41101719,20500419,0,0,0,40300209,0,0,0,0,0,0,0,-2121090,0,0,0,0,0,31910209,31412009,0,0,0,42010319,0,0,0,0,21710919,0,0,0,40301519,11011519,0
16,47,426.135452871677,1,0,456059.091119267,456060.138212312,2,0,1,35,19,187846884,62833547,123844785,119124536,31611609,32010509,31700209,40911419,31611119,0,0,0,20002019,20211819,0,0,0,0,21610419,21011309,0,0,10611309,0,40011619,0,10610219,0,41400519,0,21211119,21210419,0,42011309,10300609,11510409,0,0,-4081181,30010609
16,48,530.156909080688,0,0,456061.750008054,456062.797108413,2,0,0,12,9,71933027,71883168,42115047,10810509,0,30010209,0,0,0,11811409,30111409,0,0,0,0,-1070140,30001919,0,0,40811109,0,0,0,11211919,0,0,20501709,0,0,0,10401419,0,10810509,0,0,0,0,0,0,0
16,49,383.042152971029,1,0,456064.491283492,456065.538425041,2,0,1,9,3,45221849,20011919,0,11100909,0,0,41101709,0,0,0,0,0,-4120140,0,0,0,0,20011919,0,0,0,0,0,0,0,0,0,0,0,0,0,0,0,0,0,0,11100909,0,0,0
16,50,665.18735565478,0,0,456067.056058948,456068.103147757,2,0,0,36,9,11101219,94944156,62123637,22491519,11101219,0,0,0,0,0,0,0,0,0,12011209,20710019,40211309,22011619,0,0,0,0,10610509,0,40501419,0,0,0,0,0,11011709,0,0,0,0,0,0,0,21310419,-1181100
16,51,474.447668588255,0,0,456069.879687544,456070.926900311,2,1,0,32,3,0,41711109,42510418,4011071,0,0,0,0,0,0,0,0,0,0,0,0,0,0,0,41711109,0,0,20800409,0,0,0,0,0,0,21710009,0,0,0,0,0,-4011071,0,0,0,0
16,52,394.786157005001,0,0,456072.597406065,456073.644487945,2,0,0,11,19,102023356,24321870,207926183,123046693,0,20110309,0,0,20311019,0,21602009,0,40000019,21310719,-3011151,0,0,0,0,0,0,0,0,20101209,31801819,40310509,20601509,0,41500409,11800519,41810209,30300709,0,0,30900519,20110319,10011609,10410919,11311409,10001209
16,53,354.212041653227,1,0,456078.33874579,456079.38583383,3,0,1,15,9,92213937,95987106,20500209,10411919,0,0,0,0,0,31410909,40501419,20301609,0,31800619,31311609,0,20812009,0,-1051060,0,11011809,0,0,20500209,0,0,0,0,0,0,0,0,0,0,0,0,10411919,0,0,0
16,54,350.184965063818,1,0,456080.832942889,456081.880014375,3,1,1,14,9,101902347,2121090,105332537,73023957,41101719,20500419,0,0,0,40300209,0,0,0,0,0,0,0,-2121090,0,0,0,0,0,31910209,31412009,0,0,0,42010319,0,0,0,0,21710919,0,0,0,40301519,11011519,0
16,55,348.404135671444,0,0,456083.350663412,456084.397743368,3,0,0,9,31,117424834,248243311,216636612,229670432,31710019,11000909,11010019,10311519,0,0,10301609,40900719,-2190040,41901819,20011719,20111609,30601309,11201809,21501909,31011019,40601909,31300209,40901119,10100109,40211119,21511809,21410319,40300609,30501509,11700019,0,31501619,30510209,41211019,12001509,41311319,0,20611919,11811919,40710919
16,56,438.736380019691,0,0,456085.88021263,456086.927234457,3,1,0,29,31,208860982,206938402,189057522,170428414,30901809,0,20410409,31411809,21810909,20401909,21411919,30601909,31910309,10700809,30101419,11711609,0,41401509,40300309,21012019,21210009,30500719,30711919,11410819,21810309,21310919,21210709,30500709,40101419,12000719,0,22000409,-3170011,22011719,30311419,0,30312019,11611109,20500519,30511209
16,57,377.291991084348,0,0,456088.409635582,456089.456714382,3,1,0,8,31,142587034,178868141,195068712,219345722,11500819,10301309,11910909,41901619,21211509,0,0,-4050160,41710709,10900519,11711119,30100719,31910819,11010619,10912019,30510809,30300809,11510709,10311009,10910809,42001419,20110019,30111309,40801409,10611519,0,30211219,40710409,30610119,41701019,20311309,20400619,11801019,31911109,21900119,0
16,58,443.624229345005,0,0,456090.974418737,456092.021502927,3,1,0,19,19,163724484,226636284,65734848,93334876,40511809,10310609,30700619,0,10800819,0,40500409,0,30900219,40510319,0,0,31311219,0,40210009,41201309,41701909,31701519,-2011091,0,0,21111919,11800619,30811219,0,0,0,0,10201019,0,0,0,40211419,22010519,0,20911919
16,59,375.386049388908,1,0,456093.468607366,456094.515690402,3,0,1,2,3,42720660,0,11001919,31600219,40600519,-2120141,0,0,0,0,0,0,0,0,0,0,0,0,0,0,0,0,0,0,11001919,0,0,0,0,0,0,0,0,0,0,0,0,0,0,31600219
16,60,475.596392061561,1,0,456096.080446225,456097.1275308,3,1,1,34,3,0,32801018,0,14983149,0,0,0,0,0,0,0,0,0,12001009,0,0,0,20800009,0,0,0,0,0,0,0,0,0,0,0,0,0,0,0,0,11802019,0,0,-3181130,0,0
16,61,499.754232238047,1,0,456098.6452263,456099.69231896,3,0,1,26,31,281259531,222485801,207181114,176823664,21210919,21810319,40201609,31701619,31611619,40610719,11810809,41800209,40501709,41611409,21510009,22011609,31410119,41710909,11810809,10300219,21710109,20410609,10411319,0,41101019,40411309,30001919,20601909,31611819,-3030001,30011819,21010719,41701309,30200409,31900009,0,11010009,0,0,41001209
16,62,514.659535663668,0,0,456101.30413934,456102.351217756,3,0,0,36,9,22810918,21800109,41210728,108644427,0,0,0,0,11000009,11810909,0,0,0,0,0,0,0,0,0,0,21800109,0,0,0,10710019,0,0,0,30500709,0,0,21710419,0,30811709,41410019,0,11511109,0,0,-3201171
16,63,405.51886864705,1,0,456104.045378206,456105.092470095,3,0,1,35,19,123626636,186547713,145212866,76545176,20702009,31911709,40711009,0,0,30301909,0,0,0,0,30510719,41401819,10010719,41000909,31101619,0,20910219,11611709,0,0,31300719,0,30210509,41700319,42001319,0,0,0,0,20601919,0,0,11811619,20110219,-3011010,21010409
16,64,484.212973271497,0,0,456106.633700569,456107.680787839,3,1,0,5,9,42912070,82113437,74413747,51521038,0,0,0,0,-1001051,41911019,0,0,0,0,0,0,0,0,20400009,0,20611609,41101819,22001809,0,0,0,21600419,0,0,0,30811519,0,30110319,0,21410719,0,0,0,0,0
16,65,354.776394437067,1,0,456109.26908133,456110.316155511,3,0,1,22,3,21601709,0,44763129,0,0,0,21601709,0,0,0,0,0,0,0,0,0,0,0,0,0,0,0,0,0,0,-4151201,0,0,10100919,0,30511009,0,0,0,0,0,0,0,0,0
16,66,518.112635472789,0,0,456111.845662769,456112.892699609,3,0,0,21,9,51210728,0,46702947,102443756,30510019,0,0,0,0,0,0,20700709,0,0,0,0,0,0,0,0,0,0,11311509,0,-3170000,21910319,0,0,0,10311119,0,0,0,0,41810809,10211419,0,30210009,20211519,0
16,67,456.32871100679,1,0,456114.504519219,456115.551606489,3,1,1,32,3,0,41711109,42510418,4011071,0,0,0,0,0,0,0,0,0,0,0,0,0,0,0,41711109,0,0,20800409,0,0,0,0,0,0,21710009,0,0,0,0,0,-4011071,0,0,0,0
16,68,424.672986206133,1,0,456117.034059199,456118.081092959,3,1,1,25,3,61401318,0,1040190,31910219,0,0,0,0,0,0,0,41200309,20201009,0,0,0,0,0,0,0,0,0,0,0,0,0,0,0,-1040190,0,0,0,0,31910219,0,0,0,0,0,0
16,69,583.34003580967,0,0,456119.563489849,456120.610577504,3,1,0,1,19,54622989,209435993,207156894,124035836,-3111161,41400309,0,0,0,0,10111519,0,0,0,21400919,21500709,40610609,0,41502019,11610509,32000509,40810719,41410609,41811219,22011419,40302009,21310819,0,0,0,40310819,0,40112009,0,30200609,41711809,12011409,0,0,0
16,70,478.071691002697,0,0,456122.257688796,456123.304776835,3,0,0,27,31,248827941,175749723,170084295,249458521,32000709,21210019,31101519,31501819,20700009,40400119,10811119,40900809,20201819,10111719,20011509,31911619,0,10001519,20401719,41301219,0,42010419,41000109,10411819,21300409,0,20500509,31910209,0,40800119,-4161121,10911209,21510609,41111109,21100419,21410609,40601019,41301209,30310519,21201819
16,71,465.111595345661,1,0,456124.928359313,456125.975442348,3,1,1,3,31,228035884,260263501,177516883,255338542,41410909,40101819,-3080191,40310409,0,40011119,31710009,10200219,21211209,21901909,31110609,41711219,31011809,20401209,10201309,42001709,20011709,41912019,10001309,0,0,30511209,40300119,21200309,31900919,21801709,21801309,40311819,30801919,20810209,20400519,31401819,40010019,0,40000919,31601319
16,72,547.943260346074,0,0,456127.46960865,456128.516687065,3,1,0,13,19,77936265,138475295,122031966,133937985,0,0,21711409,11711919,20600019,0,12011409,0,11901509,41710109,0,21301909,-4051150,30400609,0,0,10800209,30211309,40600919,0,0,10810219,0,0,0,30210309,40410519,0,0,0,10311519,31101519,31502019,30311419,30711509,0
16,73,550.903610128444,1,0,456130.175568538,456131.222654653,3,1,1,7,9,2120171,84312266,92402047,63102128,0,0,0,0,0,0,-2120171,0,0,0,30500219,0,0,0,21300819,11611209,20900019,0,31400319,0,0,0,0,0,0,20000809,41000919,0,0,0,0,0,0,41900919,0,21201209
16,74,513.769890880212,0,0,456132.975646377,456134.022747121,3,0,0,6,19,64352318,103712046,187028523,167327284,0,0,41611709,0,0,-2140090,0,20600519,0,10900509,31310609,31400719,30100209,0,0,0,0,0,0,0,41210919,10201919,41910119,31500909,10101619,41401719,10701319,0,11101609,31501619,40511909,0,11910419,30401319,0,41900409
16,75,432.427254854701,0,0,456135.611027138,456136.658112484,3,1,0,30,0,0,0,0,0,0,0,0,0,0,0,0,0,0,0,0,0,0,0,0,0,0,0,0,0,0,0,0,0,0,0,0,0,0,-41301001,0,0,0,0,0,0
16,76,432.426099956501,1,0,456138.105222697,456139.152307272,3,0,1,11,19,97143604,138864935,96425365,52622147,11710109,0,11000119,21010219,11611619,0,21410419,20401119,0,31901209,-1130070,11810819,31710019,40711709,21601109,0,0,0,11701409,20201309,21811219,0,0,0,0,31301219,11410209,10400009,30411719,0,11810419,0,0,0,0,0
16,77,465.448821138125,0,0,456140.670003928,456141.717083883,3,0,0,12,3,0,45612610,21800019,20901419,0,0,0,0,0,0,0,0,0,41511419,0,-4101191,0,0,0,0,0,0,0,0,0,0,0,21800019,0,0,0,0,0,0,20901419,0,0,0,0,0
16,78,434.666187793482,1,0,456143.340667131,456144.387752476,3,0,1,19,0,0,0,0,0,0,0,0,0,0,0,0,0,0,0,0,0,0,0,0,0,0,0,-30311291,0,0,0,0,0,0,0,0,0,0,0,0,0,0,0,0,0
16,79,792.97822638182,0,0,456149.458499061,456150.505582867,4,1,0,13,19,77936265,138475295,122031966,133937985,0,0,21711409,11711919,20600019,0,12011409,0,11901509,41710109,0,21301909,-4051150,30400609,0,0,10800209,30211309,40600919,0,0,10810219,0,0,0,30210309,40410519,0,0,0,10311519,31101519,31502019,30311419,30711509,0
16,80,378.398368891794,1,0,456152.446820886,456153.493906616,4,1,1,8,31,142587034,178868141,195068712,219345722,11500819,10301309,11910909,41901619,21211509,0,0,-4050160,41710709,10900519,11711119,30100719,31910819,11010619,10912019,30510809,30300809,11510709,10311009,10910809,42001419,20110019,30111309,40801409,10611519,0,30211219,40710409,30610119,41701019,20311309,20400619,11801019,31911109,21900119,0
16,81,325.857357122004,1,0,456154.964538714,456156.011684498,4,0,1,11,19,115333465,119284776,135564084,83643756,0,31311619,30710109,0,11010509,0,10300109,32001119,0,0,-3161120,31111509,0,0,31100609,32010319,0,21901219,0,0,0,21010409,21110619,31410019,30110009,10412009,21511019,31210619,11410219,20311909,20711009,0,0,0,0,0
16,82,415.659125312231,1,0,456157.517565546,456158.564642422,4,1,1,34,3,0,32801018,0,14983149,0,0,0,0,0,0,0,0,0,12001009,0,0,0,20800009,0,0,0,0,0,0,0,0,0,0,0,0,0,0,0,0,11802019,0,0,-3181130,0,0
16,83,418.850836635102,1,0,456160.023528207,456161.070616246,4,0,1,9,31,167887084,205746093,307335822,217866121,30811119,20811509,11400109,11601319,20410209,40600519,0,31201219,-1051081,31501919,20500819,20001619,21910409,40310009,41210209,0,0,30311109,41001619,41000319,40310219,41801609,40910109,0,20700819,40501119,41110009,10311209,21110519,41111519,40710219,21300809,30600409,20600409,10510819,21610209
16,84,514.863564982079,0,0,456162.635353207,456163.682460494,4,0,0,36,3,11801809,0,11900119,13401129,0,11801809,0,0,0,0,0,0,0,0,0,0,0,0,0,0,0,0,0,0,0,0,11900119,0,0,0,0,0,0,0,0,11210109,0,0,0,-2191020
16,85,450.50733134849,1,0,456165.364845374,456166.411921865,4,1,1,7,9,2120171,84312266,92402047,63102128,0,0,0,0,0,0,-2120171,0,0,0,30500219,0,0,0,21300819,11611209,20900019,0,31400319,0,0,0,0,0,0,20000809,41000919,0,0,0,0,0,0,41900919,0,21201209
16,86,451.977112272289,0,0,456167.953160423,456169.000229214,4,1,0,14,9,101902347,2121090,105332537,73023957,41101719,20500419,0,0,0,40300209,0,0,0,0,0,0,0,-2121090,0,0,0,0,0,31910209,31412009,0,0,0,42010319,0,0,0,0,21710919,0,0,0,40301519,11011519,0
16,87,513.625145540573,0,0,456170.482649972,456171.529735317,4,1,0,32,3,0,41711109,42510418,4011071,0,0,0,0,0,0,0,0,0,0,0,0,0,0,0,41711109,0,0,20800409,0,0,0,0,0,0,21710009,0,0,0,0,0,-4011071,0,0,0,0
16,88,338.061004527844,0,0,456173.070957322,456174.118047672,4,0,0,21,3,0,0,43201759,52111228,0,0,0,0,0,0,0,0,0,0,0,0,0,0,0,0,0,0,0,0,-2201040,0,0,0,0,0,41000719,21110709,0,0,0,31000519,0,0,0,0
16,89,509.18693060521,0,0,456175.518089478,456176.565170589,4,1,0,5,9,42912070,82113437,74413747,51521038,0,0,0,0,-1001051,41911019,0,0,0,0,0,0,0,0,20400009,0,20611609,41101819,22001809,0,0,0,21600419,0,0,0,30811519,0,30110319,0,21410719,0,0,0,0,0
16,90,470.472561719362,0,0,456178.247581645,456179.294665836,4,0,0,2,9,86292288,40912019,63610818,84613547,0,-3090051,0,0,0,30800609,31101109,0,21300519,0,0,0,0,0,0,0,0,40912019,0,0,0,22000509,0,0,0,0,41610309,0,0,21201809,0,32001719,0,31410019,0,0
16,91,410.827095329296,1,0,456180.824124203,456181.871213398,4,0,1,13,0,0,0,0,0,0,0,0,0,0,0,0,0,0,0,0,0,-20001001,0,0,0,0,0,0,0,0,0,0,0,0,0,0,0,0,0,0,0,0,0,0,0
16,92,456.911541870795,1,0,456183.424212128,456184.471295164,4,1,1,30,0,0,0,0,0,0,0,0,0,0,0,0,0,0,0,0,0,0,0,0,0,0,0,0,0,0,0,0,0,0,0,0,0,0,-41301001,0,0,0,0,0,0
16,93,542.305122129619,0,0,456186.059582495,456187.106662066,4,0,0,22,3,11011619,0,65912269,0,0,0,11011619,0,0,0,0,0,0,0,0,0,0,0,0,0,0,0,0,0,0,-3090151,21210409,0,0,41611709,0,0,0,0,0,0,0,0,0,0
16,94,612.148589279968,1,0,456188.706750761,456189.753795685,4,0,1,6,19,147814147,93622157,132514246,266957822,0,31401819,40200009,0,31310819,-3100191,0,41801309,0,0,0,40400019,42010419,0,0,0,11211719,0,30701409,0,40001519,0,21100409,0,0,40710909,0,40301119,20710219,40110409,31911109,40901019,0,41501519,11310509,40211919
16,95,407.81439084094,0,0,456191.389197619,456192.436292973,4,1,0,19,19,163724484,226636284,65734848,93334876,40511809,10310609,30700619,0,10800819,0,40500409,0,30900219,40510319,0,0,31311219,0,40210009,41201309,41701909,31701519,-2011091,0,0,21111919,11800619,30811219,0,0,0,0,10201019,0,0,0,40211419,22010519,0,20911919
16,96,462.094656249974,1,0,456194.012751225,456195.059838495,4,1,1,25,3,61401318,0,1040190,31910219,0,0,0,0,0,0,0,41200309,20201009,0,0,0,0,0,0,0,0,0,0,0,0,0,0,0,-1040190,0,0,0,0,31910219,0,0,0,0,0,0
16,97,460.824285051785,0,0,456196.601121708,456197.648150079,4,0,0,35,31,196957403,187568612,217379231,137026233,31910419,0,10210619,11810409,40801419,20011319,41211609,41001609,0,20110809,21111009,11911219,30711609,32011419,10900719,40200119,20611709,0,21711319,11310609,31100719,10111709,20911019,40810219,10601409,30711209,40111019,0,11500009,21111909,22000509,20010309,10111409,40900509,-1181060,10210519
16,98,402.581616479438,1,0,456199.295257521,456200.34235172,4,0,1,27,31,198538622,219757132,170037035,257157641,20410319,41410719,21510019,22001209,11101909,40401519,0,20502019,21200909,31400509,10701319,20311019,41711519,0,40711719,11800219,21810019,41310809,31411419,11810919,0,40610319,0,30810309,20711519,30511409,-4171141,20901119,21010109,40911819,41610809,20410019,20700919,30200919,41111219,20300709
16,99,499.22144622542,1,0,456201.777693677,456202.824774787,4,0,1,12,9,94022937,36042698,115443656,0,41411909,0,41900309,0,0,0,0,10710719,0,0,0,-4030160,0,11411119,20601419,0,0,0,0,42011519,0,0,0,0,11410909,31211019,30810209,0,0,0,0,0,0,0,0,0
16,100,423.449195281137,1,0,456204.342472213,456205.389559098,4,0,1,26,9,72313357,22522428,66643628,33512228,0,41800419,0,0,0,10210919,20302019,0,0,0,0,0,11411319,11111109,0,0,0,0,0,0,0,0,0,21102009,41400609,-4141010,0,0,11710509,0,0,0,0,21801719,0,0
16,101,433.641806710511,0,0,456206.8601962,456207.907305028,4,1,0,29,31,208860982,206938402,189057522,170428414,30901809,0,20410409,31411809,21810909,20401909,21411919,30601909,31910309,10700809,30101419,11711609,0,41401509,40300309,21012019,21210009,30500719,30711919,11410819,21810309,21310919,21210709,30500709,40101419,12000719,0,22000409,-3170011,22011719,30311419,0,30312019,11611109,20500519,30511209
16,102,459.036526386626,0,0,456209.542623425,456210.589706461,4,1,0,3,31,228035884,260263501,177516883,255338542,41410909,40101819,-3080191,40310409,0,40011119,31710009,10200219,21211209,21901909,31110609,41711219,31011809,20401209,10201309,42001709,20011709,41912019,10001309,0,0,30511209,40300119,21200309,31900919,21801709,21801309,40311819,30801919,20810209,20400519,31401819,40010019,0,40000919,31601319
16,103,453.361046907958,0,0,456212.060343948,456213.107427369,4,0,0,15,19,116340084,48095056,114834456,115824955,10001309,11802019,0,0,10201109,41812019,12011919,0,30511709,11511119,0,0,11600909,10911609,-2061010,12010409,0,0,0,0,0,0,30911519,31201109,21411009,31310819,0,11300119,31210209,0,0,21701709,11301609,0,40311309,0
16,104,535.469755297527,1,0,456214.613362697,456215.660454586,4,1,1,1,19,54622989,209435993,207156894,124035836,-3111161,41400309,0,0,0,0,10111519,0,0,0,21400919,21500709,40610609,0,41502019,11610509,32000509,40810719,41410609,41811219,22011419,40302009,21310819,0,0,0,40310819,0,40112009,0,30200609,41711809,12011409,0,0,0
16,105,462.205525022,1,0,456220.272346569,456221.31942691,5,1,1,32,3,0,41711109,42510418,4011071,0,0,0,0,0,0,0,0,0,0,0,0,0,0,0,41711109,0,0,20800409,0,0,0,0,0,0,21710009,0,0,0,0,0,-4011071,0,0,0,0
16,106,476.596135704312,0,0,456222.990075099,456224.037168913,5,0,0,12,9,42011538,55612438,31601438,72734557,0,0,21101019,20910519,0,0,0,0,0,0,0,-4001120,21411309,0,0,0,30200009,0,0,20601219,0,0,11000219,0,0,0,0,0,0,41911619,0,10011619,0,20811319,0,0
16,107,425.440213410184,1,0,456225.684268271,456226.731377099,5,0,1,27,19,142434084,52103428,135217565,145554674,0,0,30001519,10900109,30110109,20001509,20110819,0,31310019,0,41601909,0,10501519,0,0,0,0,0,41401819,10610919,0,0,20210019,21701819,0,40101919,-1191070,21910109,20001309,0,20411319,10610109,0,0,40810419,31811409
16,108,480.881906056311,1,0,456228.260832387,456229.307941214,5,1,1,25,3,61401318,0,1040190,31910219,0,0,0,0,0,0,0,41200309,20201009,0,0,0,0,0,0,0,0,0,0,0,0,0,0,0,-1040190,0,0,0,0,31910219,0,0,0,0,0,0
16,109,566.080311080441,1,0,456230.884433727,456231.931515223,5,0,1,6,3,2120020,40410109,10800819,30001019,0,0,0,0,0,-2120020,0,0,0,0,40410109,0,0,0,0,0,0,0,0,0,0,0,0,0,0,0,10800819,0,0,30001019,0,0,0,0,0,0
16,110,509.18731559068,0,0,456233.684515801,456234.731601146,5,1,0,7,9,2120171,84312266,92402047,63102128,0,0,0,0,0,0,-2120171,0,0,0,30500219,0,0,0,21300819,11611209,20900019,0,31400319,0,0,0,0,0,0,20000809,41000919,0,0,0,0,0,0,41900919,0,21201209
16,111,479.359385441057,0,0,456236.449301574,456237.496389614,5,0,0,21,3,31011909,0,26282558,0,0,0,0,0,0,0,0,31011909,0,0,0,0,0,0,0,0,0,0,0,11311619,-4160130,0,0,0,10810809,0,0,0,0,0,0,0,0,0,0,0
16,112,463.592154439539,1,0,456239.131785003,456240.178834162,5,0,1,26,19,115825755,164626475,116644187,197115184,31011609,0,41601319,20510809,0,0,11000709,11701309,0,31801509,40101919,0,30400619,0,0,0,21111109,41211319,31610009,0,41911919,0,0,40111109,0,-3011150,0,40600009,32000809,0,40511419,31401109,0,40901019,0,11700819
16,113,562.134076259099,0,0,456241.649455096,456242.696529663,5,1,0,30,0,0,0,0,0,0,0,0,0,0,0,0,0,0,0,0,0,0,0,0,0,0,0,0,0,0,0,0,0,0,0,0,0,0,-41301001,0,0,0,0,0,0
16,114,505.719202279579,0,0,456244.390780579,456245.437796246,5,1,0,3,31,228035884,260263501,177516883,255338542,41410909,40101819,-3080191,40310409,0,40011119,31710009,10200219,21211209,21901909,31110609,41711219,31011809,20401209,10201309,42001709,20011709,41912019,10001309,0,0,30511209,40300119,21200309,31900919,21801709,21801309,40311819,30801919,20810209,20400519,31401819,40010019,0,40000919,31601319
16,115,683.767881360836,0,0,456247.155497829,456248.202637068,5,0,0,36,9,50410318,54923957,40911709,88383628,0,0,40310009,0,0,0,0,0,10100309,21602019,0,0,11510319,0,21811619,0,0,0,0,0,0,0,0,0,0,40911709,0,0,0,11901019,0,40700709,0,0,31611809,-4170091
16,116,391.85313944472,0,0,456250.002701049,456251.04972942,5,1,0,34,3,0,32801018,0,14983149,0,0,0,0,0,0,0,0,0,12001009,0,0,0,20800009,0,0,0,0,0,0,0,0,0,0,0,0,0,0,0,0,11802019,0,0,-3181130,0,0
16,117,458.294321666472,0,0,456252.579179318,456253.626268128,5,0,0,2,31,188177564,219468441,327351111,155628283,21311319,-1131060,40310919,11510919,40701909,41510119,31701319,0,0,10811519,32010209,20001719,31311219,12010909,20310719,41200219,11610209,40201719,20411109,30400009,41601009,40712009,41411109,41500219,40201819,40301819,30812009,10810509,10501919,0,30600919,40700909,31902009,21101309,10010709,0
16,118,496.716120280325,0,0,456255.214566239,456256.261647734,5,1,0,1,19,54622989,209435993,207156894,124035836,-3111161,41400309,0,0,0,0,10111519,0,0,0,21400919,21500709,40610609,0,41502019,11610509,32000509,40810719,41410609,41811219,22011419,40302009,21310819,0,0,0,40310819,0,40112009,0,30200609,41711809,12011409,0,0,0
16,119,439.572130271699,1,0,456257.908758256,456258.955842831,5,1,1,14,9,101902347,2121090,105332537,73023957,41101719,20500419,0,0,0,40300209,0,0,0,0,0,0,0,-2121090,0,0,0,0,0,31910209,31412009,0,0,0,42010319,0,0,0,0,21710919,0,0,0,40301519,11011519,0
16,120,421.440853970125,1,0,456260.461773154,456261.508864659,5,0,1,9,19,73633517,115136094,114334065,104826085,41510509,10010809,0,0,0,20101019,0,0,-2011180,11510519,0,40601119,10701719,0,0,10810709,21510309,20001719,30610919,0,30901519,0,0,10210109,11501509,0,31110009,0,0,0,0,20900419,20411719,22000719,10701719,30811509
16,121,540.411884139758,1,0,456262.967725421,456264.014823469,5,1,1,29,31,208860982,206938402,189057522,170428414,30901809,0,20410409,31411809,21810909,20401909,21411919,30601909,31910309,10700809,30101419,11711609,0,41401509,40300309,21012019,21210009,30500719,30711919,11410819,21810309,21310919,21210709,30500709,40101419,12000719,0,22000409,-3170011,22011719,30311419,0,30312019,11611109,20500519,30511209
16,122,511.186417832505,0,0,456265.603101562,456266.650185367,5,1,0,5,9,42912070,82113437,74413747,51521038,0,0,0,0,-1001051,41911019,0,0,0,0,0,0,0,0,20400009,0,20611609,41101819,22001809,0,0,0,21600419,0,0,0,30811519,0,30110319,0,21410719,0,0,0,0,0
16,123,578.12535460107,1,0,456268.214946195,456269.262028845,5,1,1,13,19,77936265,138475295,122031966,133937985,0,0,21711409,11711919,20600019,0,12011409,0,11901509,41710109,0,21301909,-4051150,30400609,0,0,10800209,30211309,40600919,0,0,10810219,0,0,0,30210309,40410519,0,0,0,10311519,31101519,31502019,30311419,30711509,0
16,124,620.763245678972,0,0,456270.991538336,456272.03858711,5,1,0,19,19,163724484,226636284,65734848,93334876,40511809,10310609,30700619,0,10800819,0,40500409,0,30900219,40510319,0,0,31311219,0,40210009,41201309,41701909,31701519,-2011091,0,0,21111919,11800619,30811219,0,0,0,0,10201019,0,0,0,40211419,22010519,0,20911919
16,125,422.743946779519,0,0,456273.803426007,456274.850494414,5,0,0,15,3,12010009,21541330,0,21511819,0,12010009,0,0,0,0,0,0,0,0,0,0,0,20401319,-1140011,0,0,0,0,0,0,0,0,0,0,0,0,0,0,0,0,0,0,0,0,21511819
16,126,553.509025950916,1,0,456276.391658675,456277.438747099,5,0,1,11,31,237366112,223659184,208937692,137278722,41800119,20310609,40101319,40811509,20811109,40910519,0,20910109,11710819,31411709,-4101001,41811509,40511009,21400909,0,40810419,11911909,31700719,21401009,21600509,41210719,0,20501809,31401219,31311209,20200209,21311009,21311119,10012009,30811319,11011209,30411919,0,11510409,11410419,10800319
16,127,594.752203498501,1,0,456279.168208085,456280.215323457,5,0,1,35,31,189249702,226837183,295957841,158119843,11800309,21402009,41910319,0,21411309,30511619,20602019,30200909,11411209,40001209,20410909,0,41801609,0,41310109,31800319,11311509,40201519,30610219,31310619,30601809,40410019,30800619,10511509,40511609,41201319,40000119,20501609,30611709,21300119,10110919,30401709,11911409,0,-3081160,30201209
16,128,395.654436666518,1,0,456281.944762499,456282.991640158,5,0,1,22,9,72103247,34611747,2070160,73234637,0,0,0,20001419,0,22001519,0,0,30100309,11800819,0,11200319,0,0,0,0,11610609,0,0,0,0,-2070160,0,0,0,0,0,0,0,0,31612009,20211919,0,21410709,0,0
16,129,581.582689017523,0,0,456284.462491876,456285.509571832,5,1,0,8,31,142587034,178868141,195068712,219345722,11500819,10301309,11910909,41901619,21211509,0,0,-4050160,41710709,10900519,11711119,30100719,31910819,11010619,10912019,30510809,30300809,11510709,10311009,10910809,42001419,20110019,30111309,40801409,10611519,0,30211219,40710409,30610119,41701019,20311309,20400619,11801019,31911109,21900119,0
16,130,451.791176106781,1,0,456287.13314892,456288.180224256,5,0,1,3,0,0,0,0,0,0,0,-20201001,0,0,0,0,0,0,0,0,0,0,0,0,0,0,0,0,0,0,0,0,0,0,0,0,0,0,0,0,0,0,0,0,0
16,131,436.039343534503,0,0,456292.709778864,456293.756876913,6,0,0,22,19,166638203,196226875,26160839,145934594,0,20800819,10601209,30611319,31401609,0,42011919,20701009,10510319,40612009,0,32010909,41301219,41300819,0,0,41001919,0,0,0,0,-4150030,0,22010809,0,0,0,0,30101419,11710219,0,0,30910309,20601209,21300919,31310519
16,132,420.415702974424,0,0,456295.321635816,456296.368717311,6,0,0,27,3,0,0,34121439,50611928,0,0,0,0,0,0,0,0,0,0,0,0,0,0,0,0,0,0,0,0,0,0,0,0,31010319,0,-3111120,0,0,20400919,0,30211009,0,0,0,0
16,133,398.437896685209,1,0,456297.933472749,456298.980553475,6,0,1,15,9,62602837,86761498,41111838,30201719,0,0,0,11201009,0,21300119,0,0,30101709,10610109,41300709,0,0,30800509,-4050171,0,0,0,0,0,0,0,0,0,30201319,10910519,0,0,30201719,0,0,0,0,0,0,0
16,134,370.017383829691,1,0,456300.47473171,456301.521817825,6,0,1,35,3,31602009,21000219,30010419,3070201,0,0,0,31602009,0,0,0,0,0,0,0,0,0,0,0,0,21000219,0,0,0,0,0,0,0,0,0,30010419,0,0,0,0,0,0,0,-3070201,0
16,135,516.440365114249,0,0,456303.086569029,456304.133655144,6,0,0,2,19,95692907,226139423,81634447,125014455,20510119,-3070151,21101819,0,0,30310209,20700609,0,0,40411019,30901619,21802019,40310509,0,40710819,0,10401419,41602019,20611319,0,0,0,20511719,40511409,0,0,0,20000119,0,41401709,10711409,21301209,31600009,0,0,0
16,136,427.899344009347,0,0,456305.768994329,456306.816086218,6,0,0,11,9,122614956,41302200,0,63732866,0,40901019,0,30001119,0,0,21701209,30011609,0,0,-1200181,0,40102019,0,0,0,0,0,0,0,0,0,0,0,0,0,0,10711219,0,30810209,0,11510919,10700519,0,0,0
16,137,398.710064124316,1,0,456308.31024867,456309.35733902,6,1,1,14,9,101902347,2121090,105332537,73023957,41101719,20500419,0,0,0,40300209,0,0,0,0,0,0,0,-2121090,0,0,0,0,0,31910209,31412009,0,0,0,42010319,0,0,0,0,21710919,0,0,0,40301519,11011519,0
16,138,501.833791320678,0,0,456310.875035675,456311.922115631,6,1,0,32,3,0,41711109,42510418,4011071,0,0,0,0,0,0,0,0,0,0,0,0,0,0,0,41711109,0,0,20800409,0,0,0,0,0,0,21710009,0,0,0,0,0,-4011071,0,0,0,0
16,139,457.721499784384,0,0,456313.475095113,456314.522178919,6,1,0,19,19,163724484,226636284,65734848,93334876,40511809,10310609,30700619,0,10800819,0,40500409,0,30900219,40510319,0,0,31311219,0,40210009,41201309,41701909,31701519,-2011091,0,0,21111919,11800619,30811219,0,0,0,0,10201019,0,0,0,40211419,22010519,0,20911919
16,140,359.99184550019,1,0,456315.992835269,456317.039947562,6,0,1,21,19,93724366,113926455,196477165,92243556,11910819,0,20911519,0,40501409,0,0,0,20400619,11410709,0,0,0,20001409,41111009,31401709,10001619,0,40911319,21812009,-1121191,40201709,0,41710509,10210119,0,40510309,20810909,0,0,0,10810509,0,0,40211819,20410319
16,141,460.912441136315,1,0,456318.451721824,456319.498805244,6,1,1,7,9,2120171,84312266,92402047,63102128,0,0,0,0,0,0,-2120171,0,0,0,30500219,0,0,0,21300819,11611209,20900019,0,31400319,0,0,0,0,0,0,20000809,41000919,0,0,0,0,0,0,41900919,0,21201209
16,142,498.450369457714,0,0,456321.028270156,456322.075358966,6,1,0,25,3,61401318,0,1040190,31910219,0,0,0,0,0,0,0,41200309,20201009,0,0,0,0,0,0,0,0,0,0,0,0,0,0,0,-1040190,0,0,0,0,31910219,0,0,0,0,0,0
16,143,555.169362574816,0,0,456323.76952596,456324.81660938,6,1,0,30,0,0,0,0,0,0,0,0,0,0,0,0,0,0,0,0,0,0,0,0,0,0,0,0,0,0,0,0,0,0,0,0,0,0,-41301001,0,0,0,0,0,0
16,144,457.361176260747,1,0,456326.487254875,456327.534337911,6,0,1,12,9,83321357,56513628,31010119,54012038,11011019,0,40500219,0,0,0,0,31810119,0,20500919,0,-4100181,0,0,20311209,0,11601319,0,0,0,0,0,0,0,31010119,0,0,0,22011919,0,0,0,0,32000119,0,0
16,145,446.762046136428,1,0,456329.205039995,456330.252064516,6,1,1,34,3,0,32801018,0,14983149,0,0,0,0,0,0,0,0,0,12001009,0,0,0,20800009,0,0,0,0,0,0,0,0,0,0,0,0,0,0,0,0,11802019,0,0,-3181130,0,0
16,146,508.373123186175,0,0,456331.793295375,456332.84038149,6,0,0,9,31,161297215,220951021,188148503,246848611,31701709,0,22000609,20010119,11001309,41000519,31511819,0,-4071131,11100219,11501119,40411219,12010209,21911909,31501809,40702009,31101609,20710919,30201119,12011219,0,20511409,30400309,0,41501109,21511919,32011419,20600719,11510509,40601309,21212009,40501119,30800709,30211109,20710219,30700909
16,147,443.288928363472,1,0,456334.45220418,456335.49928375,6,1,1,8,31,142587034,178868141,195068712,219345722,11500819,10301309,11910909,41901619,21211509,0,0,-4050160,41710709,10900519,11711119,30100719,31910819,11010619,10912019,30510809,30300809,11510709,10311009,10910809,42001419,20110019,30111309,40801409,10611519,0,30211219,40710409,30610119,41701019,20311309,20400619,11801019,31911109,21900119,0
16,148,360.318677383475,1,0,456337.005218693,456338.052294799,6,1,1,29,31,208860982,206938402,189057522,170428414,30901809,0,20410409,31411809,21810909,20401909,21411919,30601909,31910309,10700809,30101419,11711609,0,41401509,40300309,21012019,21210009,30500719,30711919,11410819,21810309,21310919,21210709,30500709,40101419,12000719,0,22000409,-3170011,22011719,30311419,0,30312019,11611109,20500519,30511209
16,149,479.92758784676,1,0,456339.593529508,456340.640604074,6,1,1,3,31,228035884,260263501,177516883,255338542,41410909,40101819,-3080191,40310409,0,40011119,31710009,10200219,21211209,21901909,31110609,41711219,31011809,20401209,10201309,42001709,20011709,41912019,10001309,0,0,30511209,40300119,21200309,31900919,21801709,21801309,40311819,30801919,20810209,20400519,31401819,40010019,0,40000919,31601319
16,150,601.07518726727,0,0,456342.205361052,456343.252452557,6,0,0,6,31,109773225,175850293,268759711,259979931,30811209,0,11300209,21010619,0,-4020061,10410109,10410009,21811009,20400209,0,41811719,40501909,0,11711109,30701419,10711919,20012009,30401709,30300409,40412009,21811009,20610219,11611309,31410709,41901519,40300819,31000919,31811019,31511219,10710419,31910809,21011509,30301309,40910719,30812009
16,151,503.084529482294,1,0,456344.958390887,456346.005463914,6,0,1,26,31,208729602,229339902,161037053,179647522,20912009,41011109,41600819,20100919,11900309,0,11801919,20601409,40801109,0,21300709,21611609,42000909,20912009,31810319,30400619,20201809,41101919,11511209,20610209,22000619,0,20500419,21410009,40001709,-3201060,21801819,31200419,21000209,40412009,11410819,21601019,21901809,0,10110519,22010719
16,152,607.528287859168,0,0,456347.593783582,456348.640849679,6,1,0,1,19,54622989,209435993,207156894,124035836,-3111161,41400309,0,0,0,0,10111519,0,0,0,21400919,21500709,40610609,0,41502019,11610509,32000509,40810719,41410609,41811219,22011419,40302009,21310819,0,0,0,40310819,0,40112009,0,30200609,41711809,12011409,0,0,0
16,153,502.38736520987,1,0,456350.335016289,456351.382100094,6,1,1,5,9,42912070,82113437,74413747,51521038,0,0,0,0,-1001051,41911019,0,0,0,0,0,0,0,0,20400009,0,20611609,41101819,22001809,0,0,0,21600419,0,0,0,30811519,0,30110319,0,21410719,0,0,0,0,0
16,154,483.316784142517,0,0,456352.982159917,456354.029241027,6,0,0,14,0,0,0,0,0,0,0,0,0,0,0,0,0,0,0,0,0,0,-10200291,0,0,0,0,0,0,0,0,0,0,0,0,0,0,0,0,0,0,0,0,0,0
16,155,485.022931126878,1,0,456355.582279024,456356.629313939,6,1,1,13,19,77936265,138475295,122031966,133937985,0,0,21711409,11711919,20600019,0,12011409,0,11901509,41710109,0,21301909,-4051150,30400609,0,0,10800209,30211309,40600919,0,0,10810219,0,0,0,30210309,40410519,0,0,0,10311519,31101519,31502019,30311419,30711509,0
16,156,566.68700958835,0,0,456358.170549417,456359.217630528,6,0,0,36,3,0,0,72322428,24311590,0,0,0,0,0,0,0,0,0,0,0,0,0,0,0,0,0,0,0,0,0,0,41610619,0,30711809,0,0,0,0,0,0,0,0,0,21310519,-3001071
16,157,722.19237475656,1,0,456363.958947156,456365.006039045,7,0,1,36,31,217851812,197860583,207850542,152498032,30911909,41310919,12011519,30600719,30801509,30901219,20502009,20812009,0,11411009,41612019,0,30001619,32001409,10811809,0,31712009,40310709,41202019,40911819,31910809,0,10711319,10601019,30701419,10801019,31011119,30711409,11310309,12010009,10400519,21801619,21611909,20700309,20801919,-3150030
16,158,416.738170897588,0,0,456366.829698053,456367.876702171,7,1,0,14,9,101902347,2121090,105332537,73023957,41101719,20500419,0,0,0,40300209,0,0,0,0,0,0,0,-2121090,0,0,0,0,0,31910209,31412009,0,0,0,42010319,0,0,0,0,21710919,0,0,0,40301519,11011519,0
16,159,436.767304723617,1,0,456369.488552964,456370.535612516,7,0,1,35,19,72232657,156453784,154433775,114176025,0,0,0,0,40511719,10510819,21210119,0,0,0,30910519,11410109,21200119,30010319,0,0,31911209,31011509,30410209,0,31410519,41400419,0,0,30400719,20811909,0,30802019,11210819,20601809,0,0,40201009,0,-1150150,10210219
16,160,462.367593601812,1,0,456372.076837216,456373.12392564,7,1,1,19,19,163724484,226636284,65734848,93334876,40511809,10310609,30700619,0,10800819,0,40500409,0,30900219,40510319,0,0,31311219,0,40210009,41201309,41701909,31701519,-2011091,0,0,21111919,11800619,30811219,0,0,0,0,10201019,0,0,0,40211419,22010519,0,20911919
16,161,393.217441102024,1,0,456374.618085398,456375.665183831,7,1,1,25,3,61401318,0,1040190,31910219,0,0,0,0,0,0,0,41200309,20201009,0,0,0,0,0,0,0,0,0,0,0,0,0,0,0,-1040190,0,0,0,0,31910219,0,0,0,0,0,0
16,162,529.674553021323,0,0,456377.159352058,456378.206473974,7,1,0,13,19,77936265,138475295,122031966,133937985,0,0,21711409,11711919,20600019,0,12011409,0,11901509,41710109,0,21301909,-4051150,30400609,0,0,10800209,30211309,40600919,0,0,10810219,0,0,0,30210309,40410519,0,0,0,10311519,31101519,31502019,30311419,30711509,0
16,163,450.894602050539,1,0,456379.771183987,456380.818267022,7,1,1,5,9,42912070,82113437,74413747,51521038,0,0,0,0,-1001051,41911019,0,0,0,0,0,0,0,0,20400009,0,20611609,41101819,22001809,0,0,0,21600419,0,0,0,30811519,0,30110319,0,21410719,0,0,0,0,0
16,164,481.022801774088,1,0,456382.38302169,456383.430099721,7,0,1,2,3,4181070,31411809,41321038,0,0,-4181070,0,0,0,0,0,0,0,0,0,0,31411809,0,0,0,0,0,0,10610019,0,0,0,0,0,30711019,0,0,0,0,0,0,0,0,0,0
16,165,444.938101107255,0,0,456384.983176214,456386.030244621,7,0,0,27,9,22321628,75522747,76591869,42322738,10810609,11511019,0,0,0,0,0,0,0,12000919,31610109,0,0,0,31911719,0,0,0,0,31510719,0,0,40900019,0,0,0,-4181131,0,0,31811519,0,0,0,10511219,0,0
16,166,392.955667630304,1,0,456387.594940005,456388.6420215,7,1,1,7,9,2120171,84312266,92402047,63102128,0,0,0,0,0,0,-2120171,0,0,0,30500219,0,0,0,21300819,11611209,20900019,0,31400319,0,0,0,0,0,0,20000809,41000919,0,0,0,0,0,0,41900919,0,21201209
16,167,536.339382117148,1,0,456390.112667072,456391.159748568,7,1,1,32,3,0,41711109,42510418,4011071,0,0,0,0,0,0,0,0,0,0,0,0,0,0,0,41711109,0,0,20800409,0,0,0,0,0,0,21710009,0,0,0,0,0,-4011071,0,0,0,0
16,168,388.444310112391,1,0,456392.877440911,456393.924563983,7,0,1,22,31,160148802,197848903,191439112,198138422,11711509,31510109,10711409,0,40400119,11400509,21411519,11001819,22001809,0,31301019,0,31900709,11211819,40700319,30811709,10811509,41111819,30511409,11301509,21611919,-3180020,31410219,30901209,20600809,20811409,21110609,20111319,40700409,20801809,0,11200019,20501109,21812019,21511119,41500619
16,169,617.020270263311,0,0,456395.359875913,456396.406967032,7,0,0,11,19,64932127,126004795,154224395,145422794,11110409,0,0,0,31810709,0,0,0,22011009,0,-2090200,31000419,10800619,0,0,30011119,11801719,40300719,0,40700619,0,41711419,10400819,31211319,30200219,0,0,32001109,0,20000709,20110819,0,22010019,31200019,0,20100119
16,170,505.994449369609,1,0,456398.218776172,456399.265869601,7,0,1,6,9,78456026,11810209,52111318,20121828,10801609,0,0,11402009,0,-4150090,11502009,40600309,0,0,0,0,0,0,0,0,11810209,0,30610109,0,21501209,0,0,0,0,0,0,0,10111309,0,0,0,0,0,10010519,0
16,171,448.849304462783,1,0,456400.912977813,456401.960119747,7,0,1,21,3,81110828,40301309,1130120,0,0,0,40700019,0,0,0,0,0,40410809,0,0,0,40301309,0,0,0,0,0,0,0,-1130120,0,0,0,0,0,0,0,0,0,0,0,0,0,0,0
16,172,487.692250404507,1,0,456403.560129525,456404.607203321,7,1,1,29,31,208860982,206938402,189057522,170428414,30901809,0,20410409,31411809,21810909,20401909,21411919,30601909,31910309,10700809,30101419,11711609,0,41401509,40300309,21012019,21210009,30500719,30711919,11410819,21810309,21310919,21210709,30500709,40101419,12000719,0,22000409,-3170011,22011719,30311419,0,30312019,11611109,20500519,30511209
16,173,531.084280053619,0,0,456406.136663229,456407.183751268,7,1,0,8,31,142587034,178868141,195068712,219345722,11500819,10301309,11910909,41901619,21211509,0,0,-4050160,41710709,10900519,11711119,30100719,31910819,11010619,10912019,30510809,30300809,11510709,10311009,10910809,42001419,20110019,30111309,40801409,10611519,0,30211219,40710409,30610119,41701019,20311309,20400619,11801019,31911109,21900119,0
16,174,393.749842129182,1,0,456408.913236121,456409.960297984,7,0,1,15,31,210858202,191785812,163839083,208067332,31600919,0,21411109,11001509,40910209,20800419,41711819,32011809,11410409,10600309,31210119,11801409,41610119,20810209,-3030110,20211919,41011009,11500609,0,30701819,30910709,10110319,10212009,0,40700809,30601809,10601609,31310519,31400809,10201719,40510619,31911209,31511219,0,10210319,21010919
16,175,383.065635629464,0,0,456411.489764051,456412.536853245,7,0,0,9,3,3061171,11200019,20822738,0,0,0,0,0,0,0,0,0,-3061171,0,0,0,0,0,0,0,0,11200019,0,0,10711319,0,0,0,0,0,10111419,0,0,0,0,0,0,0,0,0
16,176,572.062219434883,0,0,456414.089840427,456415.136924232,7,0,0,12,19,185628664,35873418,165357984,73424056,0,40901509,20901819,0,0,31301109,40211209,11501809,40811209,11310509,0,-4050181,0,0,10310719,0,0,10202009,30310909,31411319,0,41711809,40010719,11711709,0,10201519,0,0,0,0,11510609,0,11300719,20301209,30311519,0
16,177,573.717045073863,0,0,456416.889905947,456417.972109093,7,0,0,36,0,0,0,0,0,0,0,0,0,0,0,0,0,0,0,0,0,0,0,0,0,0,0,0,0,0,0,0,0,0,0,0,0,0,0,0,0,0,0,0,-40210601
16,178,486.812229675706,0,0,456419.690012274,456420.737094924,7,1,0,3,31,228035884,260263501,177516883,255338542,41410909,40101819,-3080191,40310409,0,40011119,31710009,10200219,21211209,21901909,31110609,41711219,31011809,20401209,10201309,42001709,20011709,41912019,10001309,0,0,30511209,40300119,21200309,31900919,21801709,21801309,40311819,30801919,20810209,20400519,31401819,40010019,0,40000919,31601319
16,179,448.199490376282,0,0,456422.266548287,456423.313629013,7,1,0,34,3,0,32801018,0,14983149,0,0,0,0,0,0,0,0,0,12001009,0,0,0,20800009,0,0,0,0,0,0,0,0,0,0,0,0,0,0,0,0,11802019,0,0,-3181130,0,0
16,180,414.58970378153,0,0,456424.890170801,456425.937242672,7,0,0,26,9,103505356,43425037,3150040,20911328,20401309,0,40801719,0,20501019,0,0,0,21801309,0,0,0,0,11811809,0,20202019,0,11411209,0,0,0,0,0,0,0,-3150040,0,0,10201019,0,0,0,0,10710309,0,0
16,181,413.869441777933,0,0,456427.513764442,456428.560850172,7,1,0,30,0,0,0,0,0,0,0,0,0,0,0,0,0,0,0,0,0,0,0,0,0,0,0,0,0,0,0,0,0,0,0,0,0,0,-41301001,0,0,0,0,0,0
16,182,475.008556677494,0,0,456430.031536935,456431.078578009,7,1,0,1,19,54622989,209435993,207156894,124035836,-3111161,41400309,0,0,0,0,10111519,0,0,0,21400919,21500709,40610609,0,41502019,11610509,32000509,40810719,41410609,41811219,22011419,40302009,21310819,0,0,0,40310819,0,40112009,0,30200609,41711809,12011409,0,0,0
16,183,435.431105201133,1,0,456435.608116834,456436.655207568,8,1,1,30,0,0,0,0,0,0,0,0,0,0,0,0,0,0,0,0,0,0,0,0,0,0,0,0,0,0,0,0,0,0,0,0,0,0,-41301001,0,0,0,0,0,0
16,184,592.993701808155,1,0,456438.243496055,456439.290575625,8,0,1,6,31,188196724,247423322,239367431,185857803,0,20610219,10500619,40511709,41501919,-1150101,21011119,21110419,31800619,20300819,41910519,31600809,40500109,11110519,0,41100019,30600519,30300009,30200909,10910319,30310319,21211709,31810009,11111619,40310519,41701219,21800809,40811009,0,21201019,41010509,20711619,21201219,0,30211419,10711009
16,185,542.621175060049,0,0,456440.937728108,456441.98488698,8,0,0,12,3,10700019,74592539,0,0,10700019,0,0,0,0,0,0,0,0,0,0,-3170011,0,40911419,0,30511109,0,0,0,0,0,0,0,0,0,0,0,0,0,0,0,0,0,0,0,0
16,186,734.377929009497,0,0,456443.573064213,456444.620152253,8,1,0,13,19,77936265,138475295,122031966,133937985,0,0,21711409,11711919,20600019,0,12011409,0,11901509,41710109,0,21301909,-4051150,30400609,0,0,10800209,30211309,40600919,0,0,10810219,0,0,0,30210309,40410519,0,0,0,10311519,31101519,31502019,30311419,30711509,0
16,187,543.934276909567,0,0,456446.561388732,456447.608466378,8,0,0,35,9,115032646,135122866,0,24721610,0,0,0,0,41400919,0,32011409,31410109,10210209,11410819,0,0,0,42000719,40601109,41110219,0,0,0,0,0,0,0,0,0,0,0,0,0,0,0,20710409,0,0,-4011201,0
16,188,634.875144634862,1,0,456449.361468111,456450.408620055,8,1,1,1,19,54622989,209435993,207156894,124035836,-3111161,41400309,0,0,0,0,10111519,0,0,0,21400919,21500709,40610609,0,41502019,11610509,32000509,40810719,41410609,41811219,22011419,40302009,21310819,0,0,0,40310819,0,40112009,0,30200609,41711809,12011409,0,0,0
16,189,584.434864751529,1,0,456452.185124809,456453.232178972,8,0,1,12,0,0,0,0,0,0,0,0,0,0,0,0,0,0,0,0,-20901591,0,0,0,0,0,0,0,0,0,0,0,0,0,0,0,0,0,0,0,0,0,0,0,0
16,190,576.920041814446,0,0,456454.97339782,456456.020488555,8,0,0,2,9,94665997,0,112233946,62013028,0,-3031060,0,0,30111819,0,30811609,30711509,0,0,0,0,0,0,0,0,0,0,40310319,0,30101709,0,0,11810209,0,0,30011709,30801419,31211609,0,0,0,0,0,0,0
16,191,523.35580374347,0,0,456457.655831205,456458.702921554,8,0,0,21,19,176538574,103821557,187505914,144624066,0,20212009,11801419,21011409,0,41811809,40001319,41700609,0,0,31810919,0,0,0,0,0,40110319,31900319,0,30610119,-1050120,0,41510319,31611509,31011609,30301519,21410719,0,41200319,0,41810009,40902019,0,20711719,0,0
16,192,496.410846302751,0,0,456460.314733081,456461.36182266,8,1,0,8,31,142587034,178868141,195068712,219345722,11500819,10301309,11910909,41901619,21211509,0,0,-4050160,41710709,10900519,11711119,30100719,31910819,11010619,10912019,30510809,30300809,11510709,10311009,10910809,42001419,20110019,30111309,40801409,10611519,0,30211219,40710409,30610119,41701019,20311309,20400619,11801019,31911109,21900119,0
16,193,465.275588678196,1,0,456462.961885178,456464.008957049,8,1,1,5,9,42912070,82113437,74413747,51521038,0,0,0,0,-1001051,41911019,0,0,0,0,0,0,0,0,20400009,0,20611609,41101819,22001809,0,0,0,21600419,0,0,0,30811519,0,30110319,0,21410719,0,0,0,0,0
16,194,522.677502594888,0,0,456465.632543761,456466.679624102,8,1,0,29,31,208860982,206938402,189057522,170428414,30901809,0,20410409,31411809,21810909,20401909,21411919,30601909,31910309,10700809,30101419,11711609,0,41401509,40300309,21012019,21210009,30500719,30711919,11410819,21810309,21310919,21210709,30500709,40101419,12000719,0,22000409,-3170011,22011719,30311419,0,30312019,11611109,20500519,30511209
16,195,371.256573183928,1,0,456468.314967907,456469.362059411,8,0,1,15,3,0,1110040,0,82314537,0,0,0,0,0,0,0,0,0,0,0,0,0,0,-1110040,0,0,0,0,0,0,0,0,0,0,0,0,0,0,0,41201309,0,10601709,0,0,30511519
16,196,451.254155603237,1,0,456470.926814464,456471.97389827,8,0,1,9,9,41831779,100511837,10110619,113912556,0,0,0,0,0,0,0,40700719,-1131060,0,30000609,0,0,40501209,30010019,0,0,0,0,0,10110619,0,0,0,0,0,0,31501909,0,40100109,0,0,11100419,0,31210119,0
16,197,595.724999788217,0,0,456473.503409762,456474.550446602,8,0,0,11,19,117446194,168316236,124034665,103013637,10811509,0,11401019,0,11100519,10911919,31611109,41610119,0,31410809,-3061081,0,41910209,0,41110409,40612009,10211719,0,10511409,0,22000909,0,30500909,30011019,0,0,31010419,0,0,21912019,40600609,0,0,40501009,0,0
16,198,548.27201704029,1,0,456476.338728852,456477.385825746,8,1,1,7,9,2120171,84312266,92402047,63102128,0,0,0,0,0,0,-2120171,0,0,0,30500219,0,0,0,21300819,11611209,20900019,0,31400319,0,0,0,0,0,0,20000809,41000919,0,0,0,0,0,0,41900919,0,21201209
16,199,362.452515983023,1,0,456479.091762152,456480.138848652,8,0,1,22,3,10601209,11310909,4101121,41001809,0,0,0,0,0,0,10601209,0,0,0,0,0,0,0,0,11310909,0,0,0,0,0,-4101121,0,0,0,0,0,0,0,0,0,0,0,41001809,0,0
16,200,448.339616181329,1,0,456481.691830059,456482.73890963,8,0,1,27,19,104425056,178144774,127114477,122515765,0,0,0,40101709,0,21700019,31611809,11011519,0,20810909,0,41901009,10900909,21010019,0,0,41711719,41810209,40500319,0,40602019,31401209,0,0,11610919,0,-3000011,0,0,30901209,40410719,20101619,10601809,20500409,0,0
16,201,460.075535986107,0,0,456484.291910285,456485.338996015,8,1,0,14,9,101902347,2121090,105332537,73023957,41101719,20500419,0,0,0,40300209,0,0,0,0,0,0,0,-2121090,0,0,0,0,0,31910209,31412009,0,0,0,42010319,0,0,0,0,21710919,0,0,0,40301519,11011519,0
16,202,482.535313349217,0,0,456486.821403299,456487.868484795,8,0,0,26,31,247958221,219428293,218798523,230182032,11701409,40100409,31610109,31511319,10511109,30311719,30500119,21010819,40701209,20501519,41500509,0,41211509,41301319,41510309,11401509,0,22001619,31301719,30111919,40311019,40410719,0,10800919,41710409,-4051100,20100719,30801819,41711319,41911019,10211919,40511509,41511119,0,11811509,11711819
16,203,416.046396014281,1,0,456489.492107308,456490.539146843,8,1,1,25,3,61401318,0,1040190,31910219,0,0,0,0,0,0,0,41200309,20201009,0,0,0,0,0,0,0,0,0,0,0,0,0,0,0,-1040190,0,0,0,0,31910219,0,0,0,0,0,0
16,204,664.597595459782,0,0,456492.139214365,456493.186339746,8,1,0,3,31,228035884,260263501,177516883,255338542,41410909,40101819,-3080191,40310409,0,40011119,31710009,10200219,21211209,21901909,31110609,41711219,31011809,20401209,10201309,42001709,20011709,41912019,10001309,0,0,30511209,40300119,21200309,31900919,21801709,21801309,40311819,30801919,20810209,20400519,31401819,40010019,0,40000919,31601319
16,205,479.07528426731,1,0,456495.009875951,456496.056945128,8,1,1,34,3,0,32801018,0,14983149,0,0,0,0,0,0,0,0,0,12001009,0,0,0,20800009,0,0,0,0,0,0,0,0,0,0,0,0,0,0,0,0,11802019,0,0,-3181130,0,0
16,206,577.875899907667,0,0,456497.551178413,456498.598271072,8,0,0,36,31,196657921,226627782,190059512,178605965,11101319,11810509,20300919,20201609,30610119,10100309,21210519,41011709,30310909,21110709,30700009,20000209,30701519,10911809,40801109,30402009,0,42000409,31611809,11911619,21600509,30711009,42001519,10001419,0,31711119,10510509,21810909,31201509,0,20701409,40201119,41900209,20600809,0,-2190001
16,207,502.826605632436,0,0,456500.362976388,456501.410060963,8,1,0,19,19,163724484,226636284,65734848,93334876,40511809,10310609,30700619,0,10800819,0,40500409,0,30900219,40510319,0,0,31311219,0,40210009,41201309,41701909,31701519,-2011091,0,0,21111919,11800619,30811219,0,0,0,0,10201019,0,0,0,40211419,22010519,0,20911919
16,208,518.067595025059,1,0,456503.080702994,456504.127787569,8,1,1,32,3,0,41711109,42510418,4011071,0,0,0,0,0,0,0,0,0,0,0,0,0,0,0,41711109,0,0,20800409,0,0,0,0,0,0,21710009,0,0,0,0,0,-4011071,0,0,0,0
16,209,503.91412031604,1,0,456509.833838693,456510.880918264,9,1,1,8,31,142587034,178868141,195068712,219345722,11500819,10301309,11910909,41901619,21211509,0,0,-4050160,41710709,10900519,11711119,30100719,31910819,11010619,10912019,30510809,30300809,11510709,10311009,10910809,42001419,20110019,30111309,40801409,10611519,0,30211219,40710409,30610119,41701019,20311309,20400619,11801019,31911109,21900119,0
16,210,441.695189976599,1,0,456512.528046109,456513.575122215,9,1,1,30,0,0,0,0,0,0,0,0,0,0,0,0,0,0,0,0,0,0,0,0,0,0,0,0,0,0,0,0,0,0,0,0,0,0,-41301001,0,0,0,0,0,0
16,211,534.456923021935,0,0,456515.022233198,456516.069318928,9,0,0,15,31,249925031,170102933,165936133,207469002,20800009,30700019,40410709,40600419,31801619,11800309,11100519,21000609,41710819,11210109,31710509,21010019,30600109,30010709,-4150040,0,31010919,10400519,11000519,0,0,20002019,10901819,30910519,20400419,31610519,41110319,20311819,0,41510709,30910019,21411719,30500909,31211209,20201709,11410909
16,212,593.099181132857,1,0,456517.704655034,456518.751745383,9,1,1,1,19,54622989,209435993,207156894,124035836,-3111161,41400309,0,0,0,0,10111519,0,0,0,21400919,21500709,40610609,0,41502019,11610509,32000509,40810719,41410609,41811219,22011419,40302009,21310819,0,0,0,40310819,0,40112009,0,30200609,41711809,12011409,0,0,0
16,213,475.155226769857,0,0,456520.457689103,456521.504774834,9,0,0,12,9,62602038,2151071,75536845,52921828,0,0,0,0,31800119,30801919,0,0,0,0,0,-2151071,0,0,0,0,0,0,0,10211009,0,0,21810709,10901409,0,11701709,20912009,41610619,11311209,0,0,0,0,0,0,0
16,214,472.360795189161,1,0,456523.034220882,456524.081317776,9,0,1,27,9,20201419,91612247,64994257,40611828,0,0,0,0,0,0,0,20201419,0,30400109,0,0,0,40010219,0,0,0,21201919,0,20110809,0,11910919,0,0,31811509,0,-1161020,0,0,0,0,20501509,0,0,20110319,0
16,215,537.376081978437,0,0,456525.728422908,456526.775505944,9,1,0,25,3,61401318,0,1040190,31910219,0,0,0,0,0,0,0,41200309,20201009,0,0,0,0,0,0,0,0,0,0,0,0,0,0,0,-1040190,0,0,0,0,31910219,0,0,0,0,0,0
16,216,480.439585924614,1,0,456528.39909997,456529.446177616,9,1,1,32,3,0,41711109,42510418,4011071,0,0,0,0,0,0,0,0,0,0,0,0,0,0,0,41711109,0,0,20800409,0,0,0,0,0,0,21710009,0,0,0,0,0,-4011071,0,0,0,0
16,217,553.930558206048,0,0,456530.928575276,456531.975664086,9,1,0,5,9,42912070,82113437,74413747,51521038,0,0,0,0,-1001051,41911019,0,0,0,0,0,0,0,0,20400009,0,20611609,41101819,22001809,0,0,0,21600419,0,0,0,30811519,0,30110319,0,21410719,0,0,0,0,0
16,218,431.242345017381,0,0,456533.646306116,456534.693389921,9,0,0,2,9,33463359,41700219,83923257,42822737,20211209,-2040141,0,11212009,0,0,0,0,0,0,0,0,41700219,0,0,0,0,0,0,0,0,41511319,31810019,10601919,0,0,0,0,0,0,10810419,12000909,0,0,20011409,0
16,219,513.137399975676,1,0,456536.293464757,456537.340543173,9,1,1,13,19,77936265,138475295,122031966,133937985,0,0,21711409,11711919,20600019,0,12011409,0,11901509,41710109,0,21301909,-4051150,30400609,0,0,10800209,30211309,40600919,0,0,10810219,0,0,0,30210309,40410519,0,0,0,10311519,31101519,31502019,30311419,30711509,0
16,220,397.60137652047,0,0,456538.917048775,456539.964133735,9,0,0,18,0,0,0,0,0,0,0,0,0,0,0,0,0,0,0,0,0,0,0,0,0,0,-31100101,0,0,0,0,0,0,0,0,0,0,0,0,0,0,0,0,0,0
16,221,417.566991818603,0,0,456541.4818327,456542.52892074,9,0,0,22,31,247350031,259658212,137956155,210529702,21601009,30101719,30810909,40710909,20000119,20302019,21311419,20801419,41710509,41910909,41001719,20600409,20101819,41211809,0,41710309,11210119,41911119,0,10811019,30800119,-2141171,10100609,10301809,31900319,41901109,0,0,21301519,11700709,31001709,41800409,20912019,31711319,30801109,21300909
16,222,443.514900456648,0,0,456544.081896758,456545.128990572,9,0,0,26,19,143135365,165112795,105953938,168537874,0,31712019,0,0,40000309,10811509,30100519,30511009,0,0,0,40810719,30400219,22000019,40700319,31201519,0,0,42010209,0,31101009,0,31801609,0,0,-1041111,0,0,11801909,41312019,41110309,21811809,0,0,11100409,41401419
16,223,487.115578900557,1,0,456546.611395546,456547.658477427,9,0,1,35,19,115627375,115234065,184838574,77416157,0,0,31412019,11510709,10900809,41702019,0,0,20101819,20410809,40000119,21601919,0,0,0,0,12010109,21211109,21011909,0,0,40201409,0,31901219,40710409,40001809,11011819,0,0,0,0,0,21011319,21312009,-4081120,31011709
16,224,448.192176118027,1,0,456549.223241334,456550.270325524,9,1,1,14,9,101902347,2121090,105332537,73023957,41101719,20500419,0,0,0,40300209,0,0,0,0,0,0,0,-2121090,0,0,0,0,0,31910209,31412009,0,0,0,42010319,0,0,0,0,21710919,0,0,0,40301519,11011519,0
16,225,440.464084851556,1,0,456551.893907617,456552.940989497,9,0,1,9,3,35690819,31000609,41112009,0,0,0,0,31600819,0,0,0,0,-4090000,0,31000609,0,0,0,0,0,0,0,0,0,0,0,0,0,0,41112009,0,0,0,0,0,0,0,0,0,0
16,226,490.03550776979,1,0,456554.423392546,456555.470473272,9,0,1,6,3,4061021,0,11400309,71110828,0,0,0,0,0,-4061021,0,0,0,0,0,0,0,0,0,0,0,0,0,0,0,0,11400309,0,0,0,0,0,0,0,0,0,0,30310119,40800709,0
16,227,525.207465980202,1,0,456557.094058059,456558.141143019,9,1,1,7,9,2120171,84312266,92402047,63102128,0,0,0,0,0,0,-2120171,0,0,0,30500219,0,0,0,21300819,11611209,20900019,0,31400319,0,0,0,0,0,0,20000809,41000919,0,0,0,0,0,0,41900919,0,21201209
16,228,510.147408233024,0,0,456559.788256621,456560.835336191,9,1,0,3,31,228035884,260263501,177516883,255338542,41410909,40101819,-3080191,40310409,0,40011119,31710009,10200219,21211209,21901909,31110609,41711219,31011809,20401209,10201309,42001709,20011709,41912019,10001309,0,0,30511209,40300119,21200309,31900919,21801709,21801309,40311819,30801919,20810209,20400519,31401819,40010019,0,40000919,31601319
16,229,588.751432020217,0,0,456562.47068654,456563.517768806,9,1,0,29,31,208860982,206938402,189057522,170428414,30901809,0,20410409,31411809,21810909,20401909,21411919,30601909,31910309,10700809,30101419,11711609,0,41401509,40300309,21012019,21210009,30500719,30711919,11410819,21810309,21310919,21210709,30500709,40101419,12000719,0,22000409,-3170011,22011719,30311419,0,30312019,11611109,20500519,30511209
16,230,484.321917232592,0,0,456565.306065685,456566.353151415,9,1,0,19,19,163724484,226636284,65734848,93334876,40511809,10310609,30700619,0,10800819,0,40500409,0,30900219,40510319,0,0,31311219,0,40210009,41201309,41701909,31701519,-2011091,0,0,21111919,11800619,30811219,0,0,0,0,10201019,0,0,0,40211419,22010519,0,20911919
16,231,651.236755365971,0,0,456567.964965636,456569.012045591,9,0,0,36,31,156649803,259669821,195874993,271339433,21401319,41412019,20611309,10611209,10701019,20611209,0,0,31301719,30210319,31210219,40911809,41810809,40612009,11402019,20910609,31600519,11001509,12010209,31412009,40710809,30310019,20410009,0,0,30210819,30811119,20701619,41000419,31600309,40601419,31411509,41401419,40010209,20511409,-4101121
16,232,443.392867804505,0,0,456570.682768463,456571.729771812,9,1,0,34,3,0,32801018,0,14983149,0,0,0,0,0,0,0,0,0,12001009,0,0,0,20800009,0,0,0,0,0,0,0,0,0,0,0,0,0,0,0,0,11802019,0,0,-3181130,0,0
16,233,516.674421320204,1,0,456573.341587572,456574.388681387,9,0,1,11,19,124535965,139107586,95223236,125633665,11411909,0,11311809,40801319,0,0,0,30610009,30400919,0,-3051201,41712019,21510519,0,41610309,10311719,0,20911819,32001409,0,0,0,0,31300609,10110009,0,21811209,0,0,0,0,30511109,31010009,10200619,21901119,32010809
16,234,428.850967495237,1,0,456575.965205466,456577.012365879,9,0,1,21,3,33524038,31710009,4020141,0,11912019,0,0,0,0,0,0,0,21612019,31710009,0,0,0,0,0,0,0,0,0,0,-4020141,0,0,0,0,0,0,0,0,0,0,0,0,0,0,0
16,235,570.632474438753,0,0,456582.459506889,456583.506599548,10,0,0,12,3,0,32562770,0,63511928,0,0,0,0,0,0,0,0,0,0,0,-2051151,0,0,30511619,0,0,0,0,0,0,0,0,0,0,0,0,0,0,0,0,0,0,31601519,0,31910409
16,236,477.77257632697,1,0,456585.165476017,456586.212554818,10,1,1,30,0,0,0,0,0,0,0,0,0,0,0,0,0,0,0,0,0,0,0,0,0,0,0,0,0,0,0,0,0,0,0,0,0,0,-41301001,0,0,0,0,0,0
16,237,471.98391839629,1,0,456587.847897082,456588.89500668,10,0,1,2,31,167976154,235935422,217127602,163439422,40600409,-3040061,11201519,21111319,21901309,40010609,10000719,0,20110209,0,40510209,30600219,20110409,40500819,41001319,11500019,10701319,41011109,0,40700319,21100319,31011209,10400709,41711209,30301419,20701209,21201209,10100509,20312019,10301219,21401409,10111419,20501219,40211319,30500309,0
16,238,530.225047201384,1,0,456590.459750954,456591.50683168,10,1,1,7,9,2120171,84312266,92402047,63102128,0,0,0,0,0,0,-2120171,0,0,0,30500219,0,0,0,21300819,11611209,20900019,0,31400319,0,0,0,0,0,0,20000809,41000919,0,0,0,0,0,0,41900919,0,21201209
16,239,586.163339437917,0,0,456593.165702759,456594.212790414,10,1,0,25,3,61401318,0,1040190,31910219,0,0,0,0,0,0,0,41200309,20201009,0,0,0,0,0,0,0,0,0,0,0,0,0,0,0,-1040190,0,0,0,0,31910219,0,0,0,0,0,0
16,240,408.93847681582,1,0,456595.95402389,456597.00111039,10,1,1,5,9,42912070,82113437,74413747,51521038,0,0,0,0,-1001051,41911019,0,0,0,0,0,0,0,0,20400009,0,20611609,41101819,22001809,0,0,0,21600419,0,0,0,30811519,0,30110319,0,21410719,0,0,0,0,0
16,241,533.942615205888,0,0,456598.554102961,456599.601190231,10,1,0,8,31,142587034,178868141,195068712,219345722,11500819,10301309,11910909,41901619,21211509,0,0,-4050160,41710709,10900519,11711119,30100719,31910819,11010619,10912019,30510809,30300809,11510709,10311009,10910809,42001419,20110019,30111309,40801409,10611519,0,30211219,40710409,30610119,41701019,20311309,20400619,11801019,31911109,21900119,0
16,242,453.443043632433,0,0,456601.283592434,456602.330675854,10,0,0,20,0,0,0,0,0,0,0,0,0,0,0,0,0,0,0,0,0,0,0,0,0,0,0,0,-21500091,0,0,0,0,0,0,0,0,0,0,0,0,0,0,0,0
16,243,444.623588002287,1,0,456603.860146925,456604.907221106,10,0,1,21,19,134843656,133224765,88371507,136425894,40311709,31710219,0,31111109,0,0,31710619,0,0,0,0,40100919,0,31100609,20701409,10210109,0,31111719,0,0,-3150141,0,0,11700019,30910619,21410309,21200419,21401019,41401419,10110819,0,0,20100409,31711709,0,11700519
16,244,402.956183534116,0,0,456606.471978469,456607.519074978,10,0,0,27,9,51803157,82721327,43931229,72910018,30402019,10200319,0,0,11200819,0,0,0,0,40800709,0,30010209,0,0,0,11910409,0,0,40811119,0,0,0,0,0,0,0,-3120110,0,41310009,0,0,0,0,0,31600009,0
16,245,377.339726255741,1,0,456609.095587124,456610.14266477,10,0,1,15,19,157728874,86973627,116434775,102235256,0,11900909,0,0,30511419,31701409,31801409,30902009,20911719,0,0,21000019,0,0,-3050181,31301009,20611409,11011009,22011719,10511619,41300119,0,30711209,11900109,0,0,0,40311019,30901919,0,10711009,0,0,0,20311309,0
16,246,498.163188574836,0,0,456611.589779218,456612.636858019,10,0,0,9,9,43451179,51411818,83524656,52901328,0,40410019,0,0,0,0,0,0,-3041160,0,0,0,0,0,41111609,0,0,10300209,10100809,0,0,31910619,20711819,0,0,0,20801409,0,0,0,21600909,31300419,0,0,0,0
16,247,531.786063860636,1,0,456614.189842121,456615.236949794,10,1,1,1,19,54622989,209435993,207156894,124035836,-3111161,41400309,0,0,0,0,10111519,0,0,0,21400919,21500709,40610609,0,41502019,11610509,32000509,40810719,41410609,41811219,22011419,40302009,21310819,0,0,0,40310819,0,40112009,0,30200609,41711809,12011409,0,0,0
16,248,605.231995694339,0,0,456616.860521877,456617.907612997,10,1,0,29,31,208860982,206938402,189057522,170428414,30901809,0,20410409,31411809,21810909,20401909,21411919,30601909,31910309,10700809,30101419,11711609,0,41401509,40300309,21012019,21210009,30500719,30711919,11410819,21810309,21310919,21210709,30500709,40101419,12000719,0,22000409,-3170011,22011719,30311419,0,30312019,11611109,20500519,30511209
16,249,350.925244973041,1,0,456619.554722363,456620.601801164,10,0,1,22,3,11110109,11900809,32801130,0,0,0,0,11110109,0,0,0,0,0,0,0,0,0,0,11900809,0,0,0,0,31710019,0,-1091111,0,0,0,0,0,0,0,0,0,0,0,0,0,0
16,250,527.54571888363,1,0,456622.08419382,456623.131288404,10,0,1,36,31,197867392,297668621,227658602,167945594,30110719,31511709,31711809,10210309,11100109,41501519,30811109,10910109,0,21610419,40111819,41311209,10001109,41811519,41311009,40800619,30710209,30000709,31511819,0,40510209,41800309,21911509,10201719,40610709,10301709,30810619,0,0,11110419,30510719,30200609,30610109,20611109,40711619,-4191010
16,251,391.98402618058,0,0,456624.707813638,456625.754895519,10,1,0,34,3,0,32801018,0,14983149,0,0,0,0,0,0,0,0,0,12001009,0,0,0,20800009,0,0,0,0,0,0,0,0,0,0,0,0,0,0,0,0,11802019,0,0,-3181130,0,0
16,252,584.156153025106,0,0,456627.225538396,456628.272621046,10,1,0,13,19,77936265,138475295,122031966,133937985,0,0,21711409,11711919,20600019,0,12011409,0,11901509,41710109,0,21301909,-4051150,30400609,0,0,10800209,30211309,40600919,0,0,10810219,0,0,0,30210309,40410519,0,0,0,10311519,31101519,31502019,30311419,30711509,0
16,253,479.635787429288,0,0,456630.049194709,456631.096229624,10,1,0,3,31,228035884,260263501,177516883,255338542,41410909,40101819,-3080191,40310409,0,40011119,31710009,10200219,21211209,21901909,31110609,41711219,31011809,20401209,10201309,42001709,20011709,41912019,10001309,0,0,30511209,40300119,21200309,31900919,21801709,21801309,40311819,30801919,20810209,20400519,31401819,40010019,0,40000919,31601319
16,254,598.498258623295,0,0,456632.602157638,456633.649252992,10,1,0,14,9,101902347,2121090,105332537,73023957,41101719,20500419,0,0,0,40300209,0,0,0,0,0,0,0,-2121090,0,0,0,0,0,31910209,31412009,0,0,0,42010319,0,0,0,0,21710919,0,0,0,40301519,11011519,0
16,255,456.663242075592,0,0,456635.36695034,456636.414034915,10,1,0,19,19,163724484,226636284,65734848,93334876,40511809,10310609,30700619,0,10800819,0,40500409,0,30900219,40510319,0,0,31311219,0,40210009,41201309,41701909,31701519,-2011091,0,0,21111919,11800619,30811219,0,0,0,0,10201019,0,0,0,40211419,22010519,0,20911919
16,256,582.426908425987,1,0,456638.061146207,456639.108240406,10,0,1,6,31,239554444,211547931,239725122,157947293,41100119,41801209,41601019,40110009,30600409,-3120041,0,10210619,31011019,21800919,41100609,32010519,11901119,40710719,31411609,10001809,12000109,10610519,21900119,41000619,41801719,0,20510009,21800709,11401519,40810309,40500119,0,21711209,10011709,41200819,10701219,21210519,12010609,0,41101209
16,257,448.776161880232,1,0,456640.884758249,456641.931842825,10,0,1,11,9,144133775,42082150,41901909,72211628,11011309,0,0,21010009,0,30100019,41011219,41001219,0,0,-1171031,0,40911119,0,0,0,0,0,0,0,41901909,0,0,0,0,0,0,0,0,41510809,0,0,0,0,0,30700819
16,258,520.822375663556,1,0,456643.496599803,456644.543720179,10,0,1,26,3,0,62710328,2130200,11300509,0,0,0,0,0,0,0,0,0,0,0,0,0,0,0,31110219,0,31600109,0,0,0,0,0,0,0,-2130200,0,0,0,0,0,0,0,11300509,0,0
16,259,473.417513014283,0,0,456646.179033572,456647.226122767,10,1,0,32,3,0,41711109,42510418,4011071,0,0,0,0,0,0,0,0,0,0,0,0,0,0,0,41711109,0,0,20800409,0,0,0,0,0,0,21710009,0,0,0,0,0,-4011071,0,0,0,0
16,260,500.850985990837,1,0,456648.90851881,456649.955652275,10,0,1,35,19,105224766,126626875,98015484,94244247,0,0,41601119,11211619,40410309,0,0,12001719,0,22001019,0,11701119,31201619,30711809,31011309,0,0,0,11101509,11501209,11100909,0,31100419,0,11600019,0,21611419,40800909,10400319,0,21511309,0,0,0,-1131191,20400519
16,261,458.558789861854,0,0,456654.696925787,456655.744013442,11,0,0,22,31,217246313,290357041,138099064,187679631,40000409,41411619,31011119,20701319,10410019,0,42010909,31700919,0,12010019,41500709,21601309,40310019,41211819,21510719,40200809,31210019,40801619,20511209,10301709,40000309,-4151200,10311609,30911309,0,0,21911719,10101019,10411109,41511819,30411419,31700009,11310309,20211719,21510919,10511309
16,262,522.104680654593,0,0,456657.379443863,456658.426446057,11,1,0,32,3,0,41711109,42510418,4011071,0,0,0,0,0,0,0,0,0,0,0,0,0,0,0,41711109,0,0,20800409,0,0,0,0,0,0,21710009,0,0,0,0,0,-4011071,0,0,0,0
16,263,402.318303182255,0,0,456659.955909044,456661.002997469,11,1,0,25,3,61401318,0,1040190,31910219,0,0,0,0,0,0,0,41200309,20201009,0,0,0,0,0,0,0,0,0,0,0,0,0,0,0,-1040190,0,0,0,0,31910219,0,0,0,0,0,0
16,264,518.299341551028,1,0,456662.508929332,456663.556007748,11,1,1,13,19,77936265,138475295,122031966,133937985,0,0,21711409,11711919,20600019,0,12011409,0,11901509,41710109,0,21301909,-4051150,30400609,0,0,10800209,30211309,40600919,0,0,10810219,0,0,0,30210309,40410519,0,0,0,10311519,31101519,31502019,30311419,30711509,0
16,265,654.892344609834,0,0,456665.191409682,456666.238440363,11,0,0,12,3,40411819,4061120,30210119,30211609,0,0,0,0,0,0,40411819,0,0,0,0,-4061120,0,0,0,0,0,0,0,0,30210119,0,0,0,0,0,0,0,0,30211609,0,0,0,0,0,0
16,266,475.831988151185,1,0,456668.08557044,456669.132640387,11,1,1,34,3,0,32801018,0,14983149,0,0,0,0,0,0,0,0,0,12001009,0,0,0,20800009,0,0,0,0,0,0,0,0,0,0,0,0,0,0,0,0,11802019,0,0,-3181130,0,0
16,267,516.71522721881,1,0,456670.638574175,456671.685662215,11,0,1,26,19,144925456,75815965,126664426,137226864,31301519,40812009,0,0,0,0,41111019,0,31700909,11710919,10501219,20900209,0,0,20901709,0,11801909,0,0,0,0,31501319,21600809,0,40501709,-1050170,32010419,41700819,12011609,0,0,20600909,41700909,10711509,0,10501109
16,268,529.66877858853,1,0,456673.238655556,456674.285741671,11,0,1,35,31,247647312,176861312,206146873,216128923,20811509,30810709,0,20511409,41710519,31300519,40601009,21301219,40600419,10111109,11700719,41002009,10011419,41011709,41501609,11411519,10111219,0,11112009,31302009,0,31000919,40110009,31910809,40411009,0,20300109,40111209,30410109,10010619,11600209,40211119,21201819,20011919,-1170101,41401819
16,269,477.51657734625,1,0,456675.838729622,456676.885819202,11,0,1,1,0,0,0,0,0,-10711291,0,0,0,0,0,0,0,0,0,0,0,0,0,0,0,0,0,0,0,0,0,0,0,0,0,0,0,0,0,0,0,0,0,0,0
16,270,438.92270111246,0,0,456678.474099219,456679.521185334,11,1,0,14,9,101902347,2121090,105332537,73023957,41101719,20500419,0,0,0,40300209,0,0,0,0,0,0,0,-2121090,0,0,0,0,0,31910209,31412009,0,0,0,42010319,0,0,0,0,21710919,0,0,0,40301519,11011519,0
16,271,594.786464993376,0,0,456681.015352406,456682.062435441,11,1,0,1,19,54622989,209435993,207156894,124035836,-3111161,41400309,0,0,0,0,10111519,0,0,0,21400919,21500709,40610609,0,41502019,11610509,32000509,40810719,41410609,41811219,22011419,40302009,21310819,0,0,0,40310819,0,40112009,0,30200609,41711809,12011409,0,0,0
16,272,478.327690099832,0,0,456683.85073001,456684.8978142,11,1,0,3,31,228035884,260263501,177516883,255338542,41410909,40101819,-3080191,40310409,0,40011119,31710009,10200219,21211209,21901909,31110609,41711219,31011809,20401209,10201309,42001709,20011709,41912019,10001309,0,0,30511209,40300119,21200309,31900919,21801709,21801309,40311819,30801919,20810209,20400519,31401819,40010019,0,40000919,31601319
16,273,532.216065214016,0,0,456686.403749528,456687.450832564,11,0,0,11,31,135857203,221757234,199939031,245536592,11012009,0,20310919,10200419,21011609,21410319,40201209,0,11710719,0,-4101021,31510319,30711319,30811609,30310509,41800719,41401519,11110219,32011619,31900509,30300209,11301319,30411719,31100409,10701319,10910719,11301209,31900419,0,30301009,20011819,30111409,30600109,31210209,30400509,41001109
16,274,470.544164360035,0,0,456689.121479598,456690.168558014,11,0,0,6,9,33971479,11400809,82631937,132915156,0,0,0,31911319,0,-2060160,0,0,0,0,0,0,0,11400809,0,0,0,0,0,40610719,0,21710209,0,0,0,20311009,0,0,20701409,30501219,0,41711419,40001109,0,0,0
16,275,522.605899779592,1,0,456691.686261984,456692.733365037,11,0,1,36,9,83412038,118625645,0,45003088,0,0,0,0,0,0,41810919,41601119,0,22001109,31211909,0,41900809,11810009,11701809,0,0,0,0,0,0,0,0,0,0,0,0,0,0,30911719,0,11911209,0,0,0,-2180160
16,276,474.138544930611,1,0,456694.40397627,456695.45106431,11,0,1,21,19,153815075,133332446,107553605,114915475,0,31501809,20611009,0,41200419,0,40101519,0,20400319,30500109,0,0,30411309,0,0,0,31510609,40910419,31711019,0,-3140130,0,0,10400419,10901519,10400509,41000009,20400719,21911019,31801619,0,0,0,30102009,10700109,0
16,277,493.855860375334,1,0,456697.004059961,456698.051192656,11,1,1,7,9,2120171,84312266,92402047,63102128,0,0,0,0,0,0,-2120171,0,0,0,30500219,0,0,0,21300819,11611209,20900019,0,31400319,0,0,0,0,0,0,20000809,41000919,0,0,0,0,0,0,41900919,0,21201209
16,278,484.800808655564,0,0,456699.757144846,456700.804164747,11,0,0,2,3,4010011,0,73111238,30901509,0,-4010011,0,0,0,0,0,0,0,0,0,0,0,0,0,0,0,0,0,41501119,0,0,0,0,31610119,0,0,0,30901509,0,0,0,0,0,0,0
16,279,368.908696284052,1,0,456702.357164633,456703.404240739,11,1,1,30,0,0,0,0,0,0,0,0,0,0,0,0,0,0,0,0,0,0,0,0,0,0,0,0,0,0,0,0,0,0,0,0,0,0,-41301001,0,0,0,0,0,0
16,280,473.128407320473,0,0,456704.874877456,456705.921962801,11,1,0,8,31,142587034,178868141,195068712,219345722,11500819,10301309,11910909,41901619,21211509,0,0,-4050160,41710709,10900519,11711119,30100719,31910819,11010619,10912019,30510809,30300809,11510709,10311009,10910809,42001419,20110019,30111309,40801409,10611519,0,30211219,40710409,30610119,41701019,20311309,20400619,11801019,31911109,21900119,0
16,281,456.627825624309,1,0,456707.604418899,456708.651456893,11,1,1,19,19,163724484,226636284,65734848,93334876,40511809,10310609,30700619,0,10800819,0,40500409,0,30900219,40510319,0,0,31311219,0,40210009,41201309,41701909,31701519,-2011091,0,0,21111919,11800619,30811219,0,0,0,0,10201019,0,0,0,40211419,22010519,0,20911919
16,282,515.892950585112,1,0,456710.286796079,456711.333890278,11,1,1,5,9,42912070,82113437,74413747,51521038,0,0,0,0,-1001051,41911019,0,0,0,0,0,0,0,0,20400009,0,20611609,41101819,22001809,0,0,0,21600419,0,0,0,30811519,0,30110319,0,21410719,0,0,0,0,0
16,283,443.669654719997,0,0,456712.969236777,456714.016314038,11,0,0,27,9,20910309,42722928,41380769,124634375,0,0,0,0,0,0,0,0,20910309,31811409,0,0,0,0,0,10911519,0,0,40200719,0,0,0,0,0,0,0,-1180050,40710419,0,20501809,0,10511809,41600119,0,0,11310219
16,284,431.968766381033,1,0,456715.487001186,456716.53404457,11,0,1,15,3,20301009,85041468,0,0,20301009,0,0,0,0,0,0,0,0,0,0,0,0,0,-3040040,0,40700019,41301409,0,0,0,0,0,0,0,0,0,0,0,0,0,0,0,0,0,0
16,285,407.54029864911,0,0,456718.075298527,456719.134187545,11,0,0,9,19,189634236,103833056,186556704,83136766,40600209,0,0,41210609,0,30011809,41811319,31800209,-4200081,0,0,10400819,0,31111009,0,0,31110209,31211019,40801609,30711619,0,0,0,21611419,21311119,30510219,41610719,0,11712009,0,20401119,40211619,0,0,10812019,0
16,286,465.292526991107,1,0,456720.616517067,456721.663600102,11,1,1,29,31,208860982,206938402,189057522,170428414,30901809,0,20410409,31411809,21810909,20401909,21411919,30601909,31910309,10700809,30101419,11711609,0,41401509,40300309,21012019,21210009,30500719,30711919,11410819,21810309,21310919,21210709,30500709,40101419,12000719,0,22000409,-3170011,22011719,30311419,0,30312019,11611109,20500519,30511209
16,287,696.406534698326,0,0,456726.193143546,456727.240235435,12,0,0,11,31,158258423,182066383,207658012,239079711,10800319,0,21911319,21210819,21611919,41912009,20600719,0,20211319,10611919,-4200160,0,11710319,10201219,41910719,40411419,41710109,21310519,31911219,20210919,10000909,40000919,21810109,31601019,20610909,0,31512009,10710909,10400219,21501509,41011309,41511409,20610909,31311309,40511819,21510319
16,288,635.051071760245,1,0,456729.028530389,456730.075616119,12,0,1,36,31,196146873,227250592,208668612,188716132,30501119,31111709,41411209,11211409,20500309,20800409,0,40610709,0,41211609,0,30511109,40500619,20701909,41711919,10611709,11501409,30500309,11611319,41000709,21300409,31611109,40711319,0,31911719,10210609,20311419,41501019,40211419,10210009,31600019,21210109,11610309,20211609,11000619,-1161020
16,289,556.016276706941,0,0,456731.781553295,456732.828647495,12,0,0,6,31,159046543,216878921,270160541,145334784,11001019,21301019,0,30010609,11300209,-1100140,20810709,31811319,31711519,20811809,21911119,30200119,20211319,11011409,20911909,20410609,40910519,30500109,21201719,41301509,21711119,10800909,20711019,40911119,41211619,41401219,30910309,0,40200409,10001619,0,41010919,22000609,11410109,20711119,0
16,290,394.021624524612,1,0,456734.487518188,456735.534604688,12,0,1,35,0,0,0,0,0,0,0,0,0,0,0,0,0,0,0,0,0,0,0,0,0,0,0,0,0,0,0,0,0,0,0,0,0,0,0,0,0,0,0,-31411391,0
16,291,413.476011715829,0,0,456737.016996189,456738.064079994,12,1,0,8,31,142587034,178868141,195068712,219345722,11500819,10301309,11910909,41901619,21211509,0,0,-4050160,41710709,10900519,11711119,30100719,31910819,11010619,10912019,30510809,30300809,11510709,10311009,10910809,42001419,20110019,30111309,40801409,10611519,0,30211219,40710409,30610119,41701019,20311309,20400619,11801019,31911109,21900119,0
16,292,515.627712476999,0,0,456739.675904609,456740.722990339,12,1,0,34,3,0,32801018,0,14983149,0,0,0,0,0,0,0,0,0,12001009,0,0,0,20800009,0,0,0,0,0,0,0,0,0,0,0,0,0,0,0,0,11802019,0,0,-3181130,0,0
16,293,383.386693021748,0,0,456742.32302514,456743.370126653,12,1,0,19,19,163724484,226636284,65734848,93334876,40511809,10310609,30700619,0,10800819,0,40500409,0,30900219,40510319,0,0,31311219,0,40210009,41201309,41701909,31701519,-2011091,0,0,21111919,11800619,30811219,0,0,0,0,10201019,0,0,0,40211419,22010519,0,20911919
16,294,404.198067553807,0,0,456744.86429257,456745.911377145,12,1,0,29,31,208860982,206938402,189057522,170428414,30901809,0,20410409,31411809,21810909,20401909,21411919,30601909,31910309,10700809,30101419,11711609,0,41401509,40300309,21012019,21210009,30500719,30711919,11410819,21810309,21310919,21210709,30500709,40101419,12000719,0,22000409,-3170011,22011719,30311419,0,30312019,11611109,20500519,30511209
16,295,532.68533264054,1,0,456747.334947381,456748.382035421,12,1,1,13,19,77936265,138475295,122031966,133937985,0,0,21711409,11711919,20600019,0,12011409,0,11901509,41710109,0,21301909,-4051150,30400609,0,0,10800209,30211309,40600919,0,0,10810219,0,0,0,30210309,40410519,0,0,0,10311519,31101519,31502019,30311419,30711509,0
16,296,460.555197380017,1,0,456749.993863885,456751.040940761,12,1,1,1,19,54622989,209435993,207156894,124035836,-3111161,41400309,0,0,0,0,10111519,0,0,0,21400919,21500709,40610609,0,41502019,11610509,32000509,40810719,41410609,41811219,22011419,40302009,21310819,0,0,0,40310819,0,40112009,0,30200609,41711809,12011409,0,0,0
16,297,395.952203776687,1,0,456752.523329952,456753.570417992,12,0,1,2,3,1110200,11000809,72522728,0,0,-1110200,0,0,0,0,0,0,0,0,0,0,0,0,0,0,11000809,0,0,0,0,41512019,0,0,0,0,31010709,0,0,0,0,0,0,0,0,0
16,298,444.33910184307,1,0,456754.993995157,456756.041085121,12,1,1,14,9,101902347,2121090,105332537,73023957,41101719,20500419,0,0,0,40300209,0,0,0,0,0,0,0,-2121090,0,0,0,0,0,31910209,31412009,0,0,0,42010319,0,0,0,0,21710919,0,0,0,40301519,11011519,0
16,299,365.376679459587,1,0,456757.499949348,456758.547037773,12,0,1,21,3,0,0,22540290,60020418,0,0,0,0,0,0,0,0,0,0,0,0,0,0,0,0,0,0,0,0,-2130181,0,0,0,0,0,20410109,0,0,0,0,30010109,0,0,0,30010309
16,300,519.894234777894,1,0,456760.123612282,456761.170683769,12,1,1,5,9,42912070,82113437,74413747,51521038,0,0,0,0,-1001051,41911019,0,0,0,0,0,0,0,0,20400009,0,20611609,41101819,22001809,0,0,0,21600419,0,0,0,30811519,0,30110319,0,21410719,0,0,0,0,0
16,301,447.434187983163,0,0,456762.805991002,456763.853088666,12,0,0,26,9,83512947,121501647,47062988,41011319,0,30811619,11500409,0,0,41200919,0,0,0,40700119,40601309,0,0,0,0,0,0,40200219,0,0,0,0,21301119,0,21700719,-4061150,0,0,0,0,0,0,0,0,0,41011319
16,302,425.594197760802,0,0,456765.32371037,456766.370798795,12,0,0,27,19,132447565,165619074,65812038,115142975,10510409,30711819,41012009,0,0,0,20112009,30101319,0,0,0,31501909,20112009,0,31500919,41101919,11301309,30101009,0,11111509,0,41810319,0,0,10800019,0,-2090191,0,40510119,21400509,0,31210719,0,10611319,11410309,0
16,303,364.177911018487,0,0,456767.91202234,456768.959109609,12,1,0,32,3,0,41711109,42510418,4011071,0,0,0,0,0,0,0,0,0,0,0,0,0,0,0,41711109,0,0,20800409,0,0,0,0,0,0,21710009,0,0,0,0,0,-4011071,0,0,0,0
16,304,469.086702214554,1,0,456770.51210218,456771.559186371,12,1,1,7,9,2120171,84312266,92402047,63102128,0,0,0,0,0,0,-2120171,0,0,0,30500219,0,0,0,21300819,11611209,20900019,0,31400319,0,0,0,0,0,0,20000809,41000919,0,0,0,0,0,0,41900919,0,21201209
16,305,360.987354593817,0,0,456773.053417731,456774.100436092,12,1,0,25,3,61401318,0,1040190,31910219,0,0,0,0,0,0,0,41200309,20201009,0,0,0,0,0,0,0,0,0,0,0,0,0,0,0,-1040190,0,0,0,0,31910219,0,0,0,0,0,0
16,306,503.391728329007,0,0,456775.629895615,456776.676987119,12,1,0,3,31,228035884,260263501,177516883,255338542,41410909,40101819,-3080191,40310409,0,40011119,31710009,10200219,21211209,21901909,31110609,41711219,31011809,20401209,10201309,42001709,20011709,41912019,10001309,0,0,30511209,40300119,21200309,31900919,21801709,21801309,40311819,30801919,20810209,20400519,31401819,40010019,0,40000919,31601319
16,307,390.810665150639,0,0,456778.312334774,456779.359422044,12,0,0,15,19,238444203,36044748,85425476,107844665,40811109,41610219,0,0,40310419,41500519,30300309,11910719,32000909,11401109,0,11911909,0,0,-1131121,11600609,0,0,0,31201919,0,0,31610719,0,0,11611719,11001119,0,21112009,32000709,0,11910109,0,21110319,21711519,0
16,308,369.232833385468,1,0,456780.935936884,456781.983017995,12,1,1,30,0,0,0,0,0,0,0,0,0,0,0,0,0,0,0,0,0,0,0,0,0,0,0,0,0,0,0,0,0,0,0,0,0,0,-41301001,0,0,0,0,0,0
16,309,370.140186394565,1,0,456783.488958327,456784.536028659,12,0,1,12,3,43502328,1071130,41000909,0,0,0,21700919,0,0,0,0,21801409,0,0,0,-1071130,0,0,0,0,0,0,0,0,0,0,0,0,41000909,0,0,0,0,0,0,0,0,0,0,0
16,310,513.113147462718,1,0,456786.030204585,456787.077293009,12,0,1,35,19,116849404,105935575,113524047,155365756,21102019,0,0,21110719,11211519,10801719,0,21111709,31511719,41300409,0,21611819,10510619,20811919,11700809,0,0,0,0,31701819,0,0,0,0,41411609,40410619,0,0,11000319,0,31211819,40700919,41101509,30300119,-1051071,0
16,311,335.125292185694,0,0,456788.747933885,456789.795010376,12,0,0,22,9,43115247,81423347,34691350,42412118,0,0,10411809,0,0,0,0,11302019,21401419,0,0,20510919,0,30112019,0,0,30800409,0,0,0,0,-3191031,0,0,31500319,0,0,0,10901709,0,0,0,0,0,0,31510409
16,312,423.219373624306,1,0,456791.31271473,456792.359798536,12,0,1,9,9,112472628,102323737,20701109,73021318,0,41110409,0,30310309,40011719,0,0,0,-1040191,40601019,21311309,0,0,0,0,0,0,40411409,0,0,0,0,0,20701109,0,0,0,0,41810109,0,0,0,31211209,0,0,0
16,313,463.537105009891,0,0,456797.124653987,456798.171731247,13,1,0,34,3,0,32801018,0,14983149,0,0,0,0,0,0,0,0,0,12001009,0,0,0,20800009,0,0,0,0,0,0,0,0,0,0,0,0,0,0,0,0,11802019,0,0,-3181130,0,0
16,314,437.288156885188,1,0,456799.724729208,456800.771806854,13,0,1,27,19,125735475,72924537,148395294,112735075,0,21810419,0,10500609,0,21201309,0,41811319,30411819,30511309,0,31111419,0,11301809,0,0,0,0,0,31010509,0,10400609,10800909,30100609,31411719,31600919,-3070020,30411019,0,20610819,0,11000209,10312019,0,40401009,0
16,315,386.686963378452,1,0,456802.395431677,456803.442473521,13,0,1,11,9,86631566,22351509,62000818,42011428,21210419,0,0,11400109,0,0,0,12010719,42010319,0,-1141090,0,21210419,0,0,0,0,0,0,0,0,0,31000009,0,0,31000809,0,10611019,0,0,0,0,31400409,0,0,0
16,316,495.969681011047,1,0,456804.924874646,456805.971964226,13,0,1,36,31,259245202,249779021,226556283,237000244,0,41310609,20510809,20400109,40300219,21810209,42000719,31310519,41602009,21711409,10210509,31512019,11200519,41011319,31110409,30610209,40901519,31511109,41210409,30010909,21310309,40201919,0,41010309,0,31801509,21010919,40201709,20700719,40901609,30111109,0,30501609,40312019,30100319,-4171151
16,317,462.79682504246,1,0,456807.524953332,456808.572084873,13,0,1,9,19,85354547,74623436,157036265,178442593,0,0,30411619,0,11700809,0,40100919,0,-3141200,11810109,0,0,0,32000609,20001809,0,0,10810909,40511109,21600809,11710819,0,0,41612019,0,0,41601509,10710809,0,42000319,11410519,11300009,0,31600019,41310509,30110409
16,318,520.150618860498,0,0,456810.195625004,456811.242708425,13,0,0,26,19,74734065,146733794,76963698,135926275,30711119,10210309,10910409,0,0,12000309,10901919,0,0,11400619,20710309,31410519,20500609,0,0,31710719,31001019,0,0,41211119,21811109,0,10910409,0,0,-3031061,0,20902009,0,21411109,0,41601219,12011119,0,40000819,0
16,319,378.385665244423,0,0,456812.913349685,456813.96043657,13,1,0,14,9,101902347,2121090,105332537,73023957,41101719,20500419,0,0,0,40300209,0,0,0,0,0,0,0,-2121090,0,0,0,0,0,31910209,31412009,0,0,0,42010319,0,0,0,0,21710919,0,0,0,40301519,11011519,0
16,320,390.010716277175,1,0,456815.548721977,456816.595793848,13,0,1,29,0,0,0,0,0,0,0,0,0,0,0,0,0,0,0,0,0,0,0,0,0,0,0,0,0,0,0,0,0,0,0,0,0,-30710091,0,0,0,0,0,0,0
16,321,467.76513120858,0,0,456818.184090419,456819.231181539,13,0,0,15,9,52713028,96442367,126023156,0,0,0,32011609,0,20701419,0,0,0,0,0,0,41210009,40411719,11700509,-3120130,0,0,0,21712009,0,0,41210419,0,0,41300109,21800619,0,0,0,0,0,0,0,0,0,0
16,322,502.265717543196,1,1,456820.713578814,456821.760659924,13,0,0,6,3,44932079,20111619,0,11710709,0,40801009,0,0,0,-4131070,0,0,0,0,0,20111619,0,0,0,0,0,0,0,0,0,0,0,0,0,0,0,0,0,0,0,0,0,11710709,0,0
16,323,486.439202504698,0,0,456823.431305419,456824.478392304,13,0,0,2,3,3131071,0,20900009,52220928,0,-3131071,0,0,0,0,0,0,0,0,0,0,0,0,0,0,0,0,0,0,0,0,0,0,20900009,0,0,0,0,0,0,0,0,10410609,41810319,0
16,324,416.156109888107,0,0,456826.125537087,456827.172570847,13,0,0,22,9,91513137,73732647,44141879,62310438,40111909,0,0,0,0,30701019,20700209,0,0,31410809,20410619,0,21911219,0,0,0,0,0,0,41111709,0,-3030170,0,0,0,0,0,31010119,0,0,0,0,31300319,0,0,0
16,325,416.484096669592,0,0,456828.690273662,456829.737369786,13,0,0,21,3,10411409,0,44072529,20700309,0,0,10411409,0,0,0,0,0,0,0,0,0,0,0,0,0,0,0,0,42011519,-2061010,0,0,0,0,0,0,0,0,20700309,0,0,0,0,0,0
16,326,443.771284422837,0,0,456831.207998805,456832.25508492,13,1,0,29,31,208860982,206938402,189057522,170428414,30901809,0,20410409,31411809,21810909,20401909,21411919,30601909,31910309,10700809,30101419,11711609,0,41401509,40300309,21012019,21210009,30500719,30711919,11410819,21810309,21310919,21210709,30500709,40101419,12000719,0,22000409,-3170011,22011719,30311419,0,30312019,11611109,20500519,30511209
16,327,666.116651380435,1,0,456833.843370711,456834.890460676,13,1,1,1,19,54622989,209435993,207156894,124035836,-3111161,41400309,0,0,0,0,10111519,0,0,0,21400919,21500709,40610609,0,41502019,11610509,32000509,40810719,41410609,41811219,22011419,40302009,21310819,0,0,0,40310819,0,40112009,0,30200609,41711809,12011409,0,0,0
16,328,510.455377050675,1,0,456836.655209493,456837.702324865,13,1,1,30,0,0,0,0,0,0,0,0,0,0,0,0,0,0,0,0,0,0,0,0,0,0,0,0,0,0,0,0,0,0,0,0,0,0,-41301001,0,0,0,0,0,0
16,329,506.691228714772,0,0,456839.325887324,456840.372974594,13,1,0,7,9,2120171,84312266,92402047,63102128,0,0,0,0,0,0,-2120171,0,0,0,30500219,0,0,0,21300819,11611209,20900019,0,31400319,0,0,0,0,0,0,20000809,41000919,0,0,0,0,0,0,41900919,0,21201209
16,330,520.077861205209,1,0,456841.996551682,456843.043633948,13,1,1,32,3,0,41711109,42510418,4011071,0,0,0,0,0,0,0,0,0,0,0,0,0,0,0,41711109,0,0,20800409,0,0,0,0,0,0,21710009,0,0,0,0,0,-4011071,0,0,0,0
16,331,497.981486958452,1,0,456844.655493594,456845.702538518,13,1,1,3,31,228035884,260263501,177516883,255338542,41410909,40101819,-3080191,40310409,0,40011119,31710009,10200219,21211209,21901909,31110609,41711219,31011809,20401209,10201309,42001709,20011709,41912019,10001309,0,0,30511209,40300119,21200309,31900919,21801709,21801309,40311819,30801919,20810209,20400519,31401819,40010019,0,40000919,31601319
16,332,516.53930003522,1,0,456847.337894257,456848.384978062,13,1,1,25,3,61401318,0,1040190,31910219,0,0,0,0,0,0,0,41200309,20201009,0,0,0,0,0,0,0,0,0,0,0,0,0,0,0,-1040190,0,0,0,0,31910219,0,0,0,0,0,0
16,333,483.24903100729,0,0,456849.926196987,456850.973285797,13,1,0,5,9,42912070,82113437,74413747,51521038,0,0,0,0,-1001051,41911019,0,0,0,0,0,0,0,0,20400009,0,20611609,41101819,22001809,0,0,0,21600419,0,0,0,30811519,0,30110319,0,21410719,0,0,0,0,0
16,334,466.599084495101,0,0,456852.549809492,456853.596887137,13,1,0,8,31,142587034,178868141,195068712,219345722,11500819,10301309,11910909,41901619,21211509,0,0,-4050160,41710709,10900519,11711119,30100719,31910819,11010619,10912019,30510809,30300809,11510709,10311009,10910809,42001419,20110019,30111309,40801409,10611519,0,30211219,40710409,30610119,41701019,20311309,20400619,11801019,31911109,21900119,0
16,335,539.515310025308,1,0,456855.149882788,456856.196962359,13,0,1,12,31,260138731,181556693,177958822,159565903,40400509,30301819,32010619,30800919,41101009,10810219,30711709,12000609,32001319,0,21611919,-3010170,31210819,31500219,11211309,41900019,10210719,30901519,30800319,10101619,0,20811309,11512019,21511309,31410319,30001509,21810419,20810709,42000019,10911009,0,21111419,22011919,30910509,11810319,0
16,336,543.801850348245,1,0,456857.773486054,456858.820592956,13,0,1,35,31,221345941,208617503,246947011,168713505,11600219,40700909,31710719,21301009,40210319,11901209,11911119,31600119,20410319,40700909,31601009,0,20701909,31110819,22000919,21700819,40801119,0,30110719,30701409,21410719,40500609,21211009,40900109,10210919,21101509,30800009,31100009,20200109,41810719,31910709,0,0,21101119,-2180121,20410719
16,337,433.269549394026,0,0,456860.502979376,456861.550060871,13,1,0,19,19,163724484,226636284,65734848,93334876,40511809,10310609,30700619,0,10800819,0,40500409,0,30900219,40510319,0,0,31311219,0,40210009,41201309,41701909,31701519,-2011091,0,0,21111919,11800619,30811219,0,0,0,0,10201019,0,0,0,40211419,22010519,0,20911919
16,338,585.599371639546,1,0,456863.173644503,456864.220729848,13,1,1,13,19,77936265,138475295,122031966,133937985,0,0,21711409,11711919,20600019,0,12011409,0,11901509,41710109,0,21301909,-4051150,30400609,0,0,10800209,30211309,40600919,0,0,10810219,0,0,0,30210309,40410519,0,0,0,10311519,31101519,31502019,30311419,30711509,0
16,339,524.279325152747,0,0,456869.009101795,456870.056195224,14,0,0,35,9,51811438,52722547,72311518,55212218,0,0,30300019,0,0,21511419,0,0,0,0,0,0,0,0,0,30710309,10501119,11511119,0,0,0,41101509,0,0,0,31210009,0,0,0,12000309,0,0,42011909,0,-1200000,0
16,340,358.1124660559,0,0,456871.609247464,456872.656288154,14,0,0,15,3,0,2000180,30311319,42211928,0,0,0,0,0,0,0,0,0,0,0,0,0,0,-2000180,0,0,0,0,0,0,0,0,0,0,0,30311319,0,0,31010119,0,0,11201809,0,0,0
16,341,448.934765765443,1,0,456874.150534912,456875.197522862,14,0,1,6,9,86123407,123313156,31213318,0,0,0,11711209,30602019,0,-3000060,0,0,40810119,0,0,40300419,0,10210709,0,41801019,0,31001009,0,0,0,21211409,0,0,0,10001909,0,0,0,0,0,0,0,0,0,0
16,342,702.57899875287,0,0,456876.797579605,456877.844656096,14,0,0,2,19,79694816,146127174,144632066,114034076,0,-4180151,10101009,10801109,0,11910519,11100019,31602009,0,0,20512009,20411219,0,11901709,0,40400809,40900019,12001409,0,0,0,40600519,21810009,42010419,0,40211119,0,30310019,21701519,0,0,0,0,21110519,0,40912019
16,343,568.995235487819,1,0,456879.72707593,456880.77415858,14,1,1,1,19,54622989,209435993,207156894,124035836,-3111161,41400309,0,0,0,0,10111519,0,0,0,21400919,21500709,40610609,0,41502019,11610509,32000509,40810719,41410609,41811219,22011419,40302009,21310819,0,0,0,40310819,0,40112009,0,30200609,41711809,12011409,0,0,0
16,344,506.340144318528,1,0,456882.397739903,456883.444823323,14,1,1,30,0,0,0,0,0,0,0,0,0,0,0,0,0,0,0,0,0,0,0,0,0,0,0,0,0,0,0,0,0,0,0,0,0,0,-41301001,0,0,0,0,0,0
16,345,633.123957144562,0,0,456885.044872752,456886.091961177,14,1,0,14,9,101902347,2121090,105332537,73023957,41101719,20500419,0,0,0,40300209,0,0,0,0,0,0,0,-2121090,0,0,0,0,0,31910209,31412009,0,0,0,42010319,0,0,0,0,21710919,0,0,0,40301519,11011519,0
16,346,501.05540023651,0,0,456887.892017843,456888.939102803,14,0,0,9,31,132729284,159855812,200248512,238651111,31600719,11511919,0,21011809,31611419,0,21701419,11211919,-4080080,22000019,30111309,20410219,0,11800319,21701719,11710409,11610809,30511009,11411409,21701119,11611409,30101619,20900509,0,41810809,41901219,20810419,40900719,30201309,41811609,30811509,20600809,21701419,10510609,21611609,20501519
16,347,513.066567189526,0,0,456890.503851697,456891.550947436,14,1,0,3,31,228035884,260263501,177516883,255338542,41410909,40101819,-3080191,40310409,0,40011119,31710009,10200219,21211209,21901909,31110609,41711219,31011809,20401209,10201309,42001709,20011709,41912019,10001309,0,0,30511209,40300119,21200309,31900919,21801709,21801309,40311819,30801919,20810209,20400519,31401819,40010019,0,40000919,31601319
16,348,575.729742529802,0,0,456893.080406574,456894.127488839,14,1,0,7,9,2120171,84312266,92402047,63102128,0,0,0,0,0,0,-2120171,0,0,0,30500219,0,0,0,21300819,11611209,20900019,0,31400319,0,0,0,0,0,0,20000809,41000919,0,0,0,0,0,0,41900919,0,21201209
16,349,665.738234762102,1,0,456895.786472327,456896.833448728,14,1,1,25,3,61401318,0,1040190,31910219,0,0,0,0,0,0,0,41200309,20201009,0,0,0,0,0,0,0,0,0,0,0,0,0,0,0,-1040190,0,0,0,0,31910219,0,0,0,0,0,0
16,350,579.662503732834,1,0,456898.539392448,456899.586473173,14,0,1,36,3,0,0,101833327,4001170,0,0,0,0,0,0,0,0,0,0,0,0,0,0,0,0,0,0,0,0,0,0,40211809,0,0,20010609,41610909,0,0,0,0,0,0,0,0,-4001170
