sub_id,Trial,RT,Resp,Error,Fix_onset,Disp_onset,block,repeat,tid,tloc,d_setsize,quad1,quad2,quad3,quad4,loc1,loc2,loc3,loc4,loc5,loc6,loc7,loc8,loc9,loc10,loc11,loc12,loc13,loc14,loc15,loc16,loc17,loc18,loc19,loc20,loc21,loc22,loc23,loc24,loc25,loc26,loc27,loc28,loc29,loc30,loc31,loc32,loc33,loc34,loc35,loc36
19,1,653.029736480676,0,0,642559.711578724,642560.758613254,1,1,0,26,9,63811128,41611419,56013557,62913337,0,0,0,21811009,0,42000119,0,0,0,0,0,0,0,41611419,0,0,0,0,0,0,0,11601509,10400619,30011319,0,-4000110,0,0,0,30101109,0,0,0,21210409,11601819,0
19,2,916.452362784185,0,0,642562.570338857,642563.617367228,1,0,0,5,31,163411092,189345303,229750492,229557192,31901919,20411509,31800709,21901819,-2171080,11801009,11601119,11611119,20210809,0,31510419,0,30001009,30901209,21310109,31800319,11810219,32012019,40911609,41210409,41501509,0,21101819,10311209,30700919,12011509,32001509,40511409,31811209,40311609,30610009,11300419,41910409,0,11500619,21601509
19,3,474.330088472925,1,0,642565.57025378,642566.617276762,1,0,1,3,3,3140141,41710009,31210409,20901219,0,0,-3140141,0,0,0,0,0,0,0,0,41710009,0,0,0,0,0,0,0,0,0,0,0,31210409,0,0,0,0,0,0,0,0,0,20901219,0,0
19,4,563.057815656066,1,0,642568.205469008,642569.252496994,1,0,1,2,31,116668273,176557873,188148802,220556721,21002009,-1120180,11011109,40910919,10011109,11000309,0,10610719,11001919,20311309,11211009,31701309,31311809,41310409,0,10300909,0,30411119,31801609,30211819,11600809,20401809,11410909,0,32010709,20111019,30600119,11611609,30901819,30510409,41400719,11800209,11910019,21111319,20700309,40610309
19,5,459.415930905379,1,0,642570.817165431,642571.864181868,1,0,1,11,9,102022147,34424837,30400119,31600718,30210319,0,40210809,0,31601019,0,0,0,0,0,-2000000,0,0,11812019,10301409,0,0,10311409,0,0,0,0,0,0,0,0,30400119,0,0,20300309,0,0,0,0,0,11300409
19,6,490.555422962643,1,0,642573.475916402,642574.522935534,1,1,1,22,19,104613056,93032646,148537003,93012356,0,10001709,31500009,0,0,0,31511119,31600219,0,20410109,0,0,40511009,0,20610909,11500619,0,0,30201509,0,21911009,-1111090,21001719,10700219,10400119,31700219,21511119,20701209,20400219,21400219,0,0,0,0,30510709,0
19,7,634.215924306773,0,0,642576.193480169,642577.240501226,1,1,0,31,3,20410719,20400119,0,43731429,0,0,0,0,0,0,20410719,0,0,0,0,20400119,0,0,0,0,0,0,0,0,0,0,0,0,0,0,0,0,0,0,-2130010,0,41601419,0,0,0
19,8,643.41918611899,0,0,642579.063985846,642580.111015372,1,0,0,4,19,94675726,143834004,184904865,92523847,22001509,10510709,40211419,-1040071,0,0,0,10111109,10800909,10210319,0,0,40010019,10100019,21111219,20601309,0,41801119,0,30600709,41101419,31301319,40100909,0,0,0,41800509,0,31311319,30901119,0,30311409,0,0,0,0
19,9,458.453913452104,0,0,642581.863910086,642582.910937302,1,1,0,13,19,105743856,148040225,112403236,136306555,0,0,11310619,0,0,41711119,11611509,0,41110609,20601019,30611509,31011409,-3111051,0,30401419,0,10301809,22002009,40401409,0,0,11300709,40000009,0,20701109,0,0,20800909,0,0,22001019,41401909,31301409,0,20801309,0
19,10,492.184577742592,0,0,642584.499119924,642585.546154839,1,1,0,27,3,20411719,31000709,32980559,0,0,0,0,0,0,20411719,0,0,0,0,31000709,0,0,0,0,0,0,0,31910509,0,0,0,0,0,0,0,-1070050,0,0,0,0,0,0,0,0,0
19,11,604.283669847064,0,0,642587.09905425,642588.146077616,1,0,0,29,9,10401919,20210109,105334575,76293138,0,0,0,10401919,0,0,0,0,0,0,0,0,0,0,0,0,20210109,0,0,0,30610319,10701019,21211209,0,0,31010019,11802009,31301909,-3080010,0,0,0,0,0,41911219,0
19,12,890.63380099833,1,0,642589.863680649,642590.910704015,1,1,1,1,31,148384575,167547202,250268821,227769092,-2080101,10901919,31500409,10600509,0,0,20901209,40400109,32000319,0,10400809,31300109,31411609,30511909,11200409,30210219,12000419,10511719,21310809,41700919,20610719,21801119,11500209,40010219,20811009,30612009,41911809,41310909,30111219,41000319,10111809,0,21611609,21801409,21111409,40710409
19,13,589.612807612866,1,0,642592.898879554,642593.945899456,1,1,1,34,31,178457922,259952712,216750302,239920933,31811309,30111509,0,31810819,11310319,10211919,31400009,20600119,11201919,40801809,31002019,42011709,30400809,32011709,0,41401819,31111319,11211519,41312009,0,31301909,30300919,11811319,40810809,20901719,10201309,30110309,20201109,41712019,0,31211519,41211909,31002009,-1081130,31801219,41700019
19,14,1042.36000450328,1,0,642595.639982914,642596.68701013,1,1,1,16,9,63112937,44672278,102903347,10900619,0,41101409,0,0,0,12001019,0,10010509,0,0,10211219,31401019,0,0,0,-3060040,0,0,0,0,0,0,40901319,20501609,0,41500419,0,0,0,0,10900619,0,0,0,0,0
19,15,407.827697461471,0,0,642598.910488822,642599.957513728,1,1,0,32,0,0,0,0,0,0,0,0,0,0,0,0,0,0,0,0,0,0,0,0,0,0,0,0,0,0,0,0,0,0,0,0,0,0,0,0,-20601501,0,0,0,0
19,16,612.288933014497,1,0,642601.486884325,642602.533900762,1,0,1,15,3,0,43671530,22211818,0,0,0,0,0,0,0,0,0,0,0,41501519,0,0,0,-2170011,0,0,0,0,0,0,0,11401609,0,0,0,10810209,0,0,0,0,0,0,0,0,0
19,17,557.458943338133,0,0,642604.227980755,642605.275000272,1,0,0,14,19,164512965,118525286,93813327,165435674,0,21400409,21500909,40010519,0,40600119,41001009,0,0,40010709,0,41810209,11001119,-4001121,0,0,11400309,10301819,30701609,0,0,0,0,41301609,21810109,0,0,0,31510709,20300609,41600609,31710309,0,30001619,10311819,0
19,18,440.052779391408,1,0,642606.969121456,642608.016100552,1,1,1,28,3,0,11511609,41410319,33501269,0,0,0,0,0,0,0,0,0,0,0,0,11511609,0,0,0,0,0,0,0,0,0,0,0,41410319,0,0,-2190050,0,0,0,0,0,0,31311219,0
19,19,567.572252708487,1,0,642609.533709436,642610.580740887,1,0,1,18,9,71721938,45275847,61610828,32401728,0,41310019,0,30411919,0,0,0,0,0,10311909,0,0,0,0,10101009,20701919,0,-4161010,41400609,0,0,0,0,20210219,0,0,0,0,0,0,0,0,10801719,0,21600009,0
19,20,514.249000232667,1,0,642612.321868499,642613.36889533,1,1,1,20,19,103016675,146854104,107393547,154513846,0,40000219,30002019,0,11001009,0,11112019,0,10901409,31511719,41500819,11410009,10510419,0,40210519,0,0,11710619,0,-2070001,40611009,31010419,0,0,0,21900109,11802009,30801619,40210509,41900609,41601109,0,0,0,0,0
19,21,606.221494963393,0,0,642614.957087961,642616.003915836,1,1,0,19,31,237859122,169417902,209106274,208846302,31311419,20611119,40810219,30101609,41301809,30410909,11500219,0,31811819,21401209,20201309,11910919,21000309,41600309,31400519,0,10101819,11801509,-3060081,40410709,31100009,0,30001619,30701819,20410909,31610319,21810809,21001019,41600609,40211709,21710209,11400709,20501319,41010219,0,11410509
19,22,540.111062582582,0,1,642617.662913114,642618.709920697,1,0,1,7,31,218464584,241169941,209247132,164257993,21910409,20700509,40410219,0,41501219,21301519,-1040071,40700119,30900519,11610209,32011419,20111119,31100619,40911319,32000109,20511719,31901619,21011809,0,10000819,21910609,20111419,42000309,41801819,21111419,41600019,10710719,30211419,30111819,0,0,30011109,11600409,40411219,11001809,10910209
19,23,659.949409775436,0,0,642620.392239748,642621.43925657,1,1,0,10,9,83121247,43381249,104003447,42502428,20510009,41310319,0,0,0,21300919,0,0,0,-3080140,0,0,0,40301109,0,0,0,0,0,0,0,0,31800309,30601819,41601319,0,0,0,0,0,10501409,32001019,0,0,0,0
19,24,725.679569062777,1,0,642623.121562147,642624.168581664,1,0,1,31,0,0,0,0,0,0,0,0,0,0,0,0,0,0,0,0,0,0,0,0,0,0,0,0,0,0,0,0,0,0,0,0,0,0,0,-10901691,0,0,0,0,0
19,25,700.840348028578,0,0,642625.98032228,642627.027329093,1,0,0,17,3,0,1161130,21210219,52111328,0,0,0,0,0,0,0,0,0,0,0,0,0,0,0,0,-1161130,0,0,0,0,21210219,0,0,0,0,0,0,0,0,0,0,31010119,0,0,21101209
19,26,655.24595673196,0,0,642628.756702308,642629.80371682,1,0,0,9,19,131427095,82423237,165447623,113034556,11301219,40601409,31911619,0,0,0,21810219,21611509,-4191120,31101319,20110109,0,0,0,0,31211809,0,0,0,10311519,10810909,10811619,30210319,21200819,40901319,41201119,0,31400119,20311619,0,0,21311409,0,0,0,40011409
19,27,572.908196714707,0,0,642639.721098423,642640.76816452,2,1,0,26,9,63811128,41611419,56013557,62913337,0,0,0,21811009,0,42000119,0,0,0,0,0,0,0,41611419,0,0,0,0,0,0,0,11601509,10400619,30011319,0,-4000110,0,0,0,30101109,0,0,0,21210409,11601819,0
19,28,444.818981108256,1,0,642642.462193699,642643.509213215,2,1,1,27,3,20411719,31000709,32980559,0,0,0,0,0,0,20411719,0,0,0,0,31000709,0,0,0,0,0,0,0,31910509,0,0,0,0,0,0,0,-1070050,0,0,0,0,0,0,0,0,0
19,29,538.941166130826,0,0,642645.0268221,642646.073847391,2,1,0,13,19,105743856,148040225,112403236,136306555,0,0,11310619,0,0,41711119,11611509,0,41110609,20601019,30611509,31011409,-3111051,0,30401419,0,10301809,22002009,40401409,0,0,11300709,40000009,0,20701109,0,0,20800909,0,0,22001019,41401909,31301409,0,20801309,0
19,30,468.303909525275,1,0,642647.791452734,642648.83847379,2,0,1,17,19,226456783,107547966,126714476,61511037,40311209,40100009,0,41511409,0,31211219,20800509,41411909,11110519,20111719,30001319,0,0,20101619,0,21601519,-4131171,11600619,21600619,0,0,41802019,31311219,0,0,32000619,0,10000719,0,0,0,0,20710109,0,30800209,0
19,31,476.780749973841,1,0,642650.403144537,642651.450163669,2,1,1,22,19,104613056,93032646,148537003,93012356,0,10001709,31500009,0,0,0,31511119,31600219,0,20410109,0,0,40511009,0,20610909,11500619,0,0,30201509,0,21911009,-1111090,21001719,10700219,10400119,31700219,21511119,20701209,20400219,21400219,0,0,0,0,30510709,0
19,32,573.524519219063,1,0,642653.097178335,642654.14421171,2,0,1,7,31,166647223,237689711,238707813,186862502,30611409,20101209,11710009,20500309,31010509,30511919,-1001050,21200809,0,31512019,41510819,20010609,22001209,20510309,10011409,40410509,30512009,21210819,41000919,31501819,40901719,31400419,41700709,0,20301919,0,31900309,21911409,10401809,31101909,31410219,10111609,40301809,11011719,30612019,0
19,33,550.079626613297,0,0,642655.767694098,642656.814710535,2,1,0,1,31,148384575,167547202,250268821,227769092,-2080101,10901919,31500409,10600509,0,0,20901209,40400109,32000319,0,10400809,31300109,31411609,30511909,11200409,30210219,12000419,10511719,21310809,41700919,20610719,21801119,11500209,40010219,20811009,30612009,41911809,41310909,30111219,41000319,10111809,0,21611609,21801409,21111409,40710409
19,34,871.755700442009,1,0,642658.544089524,642659.59111058,2,0,1,14,3,0,32312179,30811019,0,0,0,0,0,0,0,0,0,0,0,20811019,0,0,-1001151,10500009,0,0,0,0,0,0,0,0,0,0,30811019,0,0,0,0,0,0,0,0,0,0
19,35,489.082562387921,0,0,642661.614636314,642662.661610406,2,0,0,9,19,87334816,123825465,207236074,124012456,10911109,21201319,21000309,31101009,0,0,0,0,-3121070,10100719,0,0,30911919,0,40010709,22001909,20800209,0,41901309,30610419,41811319,0,41901009,0,10901609,40110409,0,40111919,21000209,0,0,0,0,41400109,21500219,0
19,36,772.57166383788,1,0,642664.23804171,642665.285071621,2,1,1,31,3,20410719,20400119,0,43731429,0,0,0,0,0,0,20410719,0,0,0,0,20400119,0,0,0,0,0,0,0,0,0,0,0,0,0,0,0,0,0,0,-2130010,0,41601419,0,0,0
19,37,531.9953156868,0,0,642667.15559847,642668.202620682,2,0,0,4,0,0,0,0,0,0,0,0,-42009991,0,0,0,0,0,0,0,0,0,0,0,0,0,0,0,0,0,0,0,0,0,0,0,0,0,0,0,0,0,0,0,0
19,38,539.26992288325,0,0,642669.920236034,642670.96726248,2,1,0,28,3,0,11511609,41410319,33501269,0,0,0,0,0,0,0,0,0,0,0,0,11511609,0,0,0,0,0,0,0,0,0,0,0,41410319,0,0,-2190050,0,0,0,0,0,0,31311219,0
19,39,720.522632007487,0,0,642672.531924372,642673.578946584,2,1,0,34,31,178457922,259952712,216750302,239920933,31811309,30111509,0,31810819,11310319,10211919,31400009,20600119,11201919,40801809,31002019,42011709,30400809,32011709,0,41401819,31111319,11211519,41312009,0,31301909,30300919,11811319,40810809,20901719,10201309,30110309,20201109,41712019,0,31211519,41211909,31002009,-1081130,31801219,41700019
19,40,470.759190502577,1,0,642675.43772404,642676.48476704,2,0,1,29,9,40800419,0,84623956,138933486,0,0,0,0,40800419,0,0,0,0,0,0,0,0,0,0,0,0,0,0,0,0,0,11610809,20411409,10801119,41800619,0,40800019,-4000120,0,0,0,0,41711719,41510209,10911419
19,41,637.181663652882,1,0,642678.049425083,642679.09643767,2,0,1,3,3,55873519,0,0,41711719,0,0,-4061191,0,0,11801619,0,40010709,0,0,0,0,0,0,0,0,0,0,0,0,0,0,0,0,0,0,0,0,0,41711719,0,0,0,0,0,0
19,42,514.538105926476,0,0,642680.872876981,642681.919888029,2,1,0,32,0,0,0,0,0,0,0,0,0,0,0,0,0,0,0,0,0,0,0,0,0,0,0,0,0,0,0,0,0,0,0,0,0,0,0,0,-20601501,0,0,0,0
19,43,860.430149012245,0,0,642683.461026497,642684.508052173,2,0,0,5,31,170715405,245127232,215250922,251187821,30600419,0,0,41900109,-4100201,40810319,20101819,11200819,22001719,0,41001719,20001319,40101909,31300609,10200519,30610219,31310119,40600819,20601519,30710609,41401509,20011719,10600209,41601819,0,20211519,30112019,41210519,31711419,41710119,31611009,31411609,11310519,10910909,41300909,10010809
19,44,435.051366686821,0,0,642686.390354209,642687.43737796,2,1,0,16,9,63112937,44672278,102903347,10900619,0,41101409,0,0,0,12001019,0,10010509,0,0,10211219,31401019,0,0,0,-3060040,0,0,0,0,0,0,40901319,20501609,0,41500419,0,0,0,0,10900619,0,0,0,0,0
19,45,492.197281564586,1,0,642688.943225132,642689.990247344,2,0,1,18,19,175355084,116307484,73623737,106324476,0,31010609,0,10410319,41111409,41211209,21010919,30600619,0,10800919,10112009,41600819,30111609,0,0,11510819,10011109,-2160200,0,0,0,0,0,0,11211019,40800809,21611909,0,0,0,12011919,11701319,41511219,41100019,0,0
19,46,476.137480232865,0,0,642691.684323103,642692.731351473,2,1,0,20,19,103016675,146854104,107393547,154513846,0,40000219,30002019,0,11001009,0,11112019,0,10901409,31511719,41500819,11410009,10510419,0,40210519,0,0,11710619,0,-2070001,40611009,31010419,0,0,0,21900109,11802009,30801619,40210509,41900609,41601109,0,0,0,0,0
19,47,715.458085644059,1,0,642694.354837711,642695.401863387,2,0,1,2,31,151077375,205158922,239760641,217228102,0,-3161071,20900709,0,31111119,31601019,31601519,10700919,22001019,20001219,40412019,30510209,10011609,20001719,41310009,11711719,0,31200419,41601919,31511019,20010809,32011709,11900119,11611619,40500519,10311419,40301509,41300709,30400809,11510419,30801919,0,30511709,20501609,31900309,20300619
19,48,475.383726647124,0,0,642697.23710587,642698.284133856,2,0,0,15,9,101813737,45922830,63423347,43501838,0,0,0,31001209,0,0,40111519,0,30701009,0,41901809,0,0,0,-4021021,0,0,0,41001509,0,10510719,0,0,11911119,0,0,0,0,11501419,32000419,0,0,0,0,0,0
19,49,459.534883848391,1,0,642699.954469816,642701.00171918,2,0,1,4,9,43420269,73012437,82723657,42902128,0,0,0,-2120060,0,41300209,0,0,0,0,0,0,12000709,30611109,0,30400619,0,0,40810919,0,0,0,0,0,30501619,11411119,0,0,0,0,0,0,0,11301119,31601009,0
19,50,674.472062033601,1,0,642702.495785007,642703.542809528,2,1,1,10,9,83121247,43381249,104003447,42502428,20510009,41310319,0,0,0,21300919,0,0,0,-3080140,0,0,0,40301109,0,0,0,0,0,0,0,0,31800309,30601819,41601319,0,0,0,0,0,10501409,32001019,0,0,0,0
19,51,536.787309683859,0,0,642705.354523583,642706.401548874,2,1,0,19,31,237859122,169417902,209106274,208846302,31311419,20611119,40810219,30101609,41301809,30410909,11500219,0,31811819,21401209,20201309,11910919,21000309,41600309,31400519,0,10101819,11801509,-3060081,40410709,31100009,0,30001619,30701819,20410909,31610319,21810809,21001019,41600609,40211709,21710209,11400709,20501319,41010219,0,11410509
19,52,482.593660475686,1,0,642707.989740735,642709.036756402,2,0,1,11,3,41710419,12631430,0,21511509,0,0,0,0,0,41710419,0,0,0,0,-2020111,0,0,0,0,10611319,0,0,0,0,0,0,0,0,0,0,0,0,21511509,0,0,0,0,0,0,0
19,53,667.681350721978,1,0,642716.648325788,642717.695351849,3,0,1,5,19,179397474,103536975,164434875,103413627,31900419,10800009,40012019,41911519,-2151090,31510409,0,0,21112009,40400709,0,11101309,10612019,0,20711519,20711419,0,0,41310609,0,0,0,40901809,0,10610919,40801219,30810319,0,0,40311509,0,41300209,0,0,0,21801909
19,54,742.047724197619,1,0,642719.412947953,642720.459975169,3,1,1,22,19,104613056,93032646,148537003,93012356,0,10001709,31500009,0,0,0,31511119,31600219,0,20410109,0,0,40511009,0,20610909,11500619,0,0,30201509,0,21911009,-1111090,21001719,10700219,10400119,31700219,21511119,20701209,20400219,21400219,0,0,0,0,30510709,0
19,55,542.048186180182,0,0,642722.354046231,642723.401059588,3,0,0,17,3,0,44113039,0,21100009,0,0,0,0,0,0,0,0,0,0,11511319,0,0,0,31401619,0,-1200101,0,0,0,0,0,0,0,0,0,0,0,0,0,0,0,0,21100009,0,0
19,56,508.855697116815,1,0,642725.095248526,642726.142206834,3,0,1,18,31,167745713,161368743,179446412,239349021,0,20200709,21611119,30200019,11811119,21310019,41810919,20801809,0,0,20401619,20101509,11511719,21810619,20510419,31101409,31810409,-4121040,21300209,11401409,0,31910819,31110209,10011219,10910209,31500519,31301819,40700419,10911609,41310309,10901119,11310509,30501109,20100709,31611319,42001919
19,57,718.639402999543,0,0,642727.824474685,642728.871506135,3,1,0,13,19,105743856,148040225,112403236,136306555,0,0,11310619,0,0,41711119,11611509,0,41110609,20601019,30611509,31011409,-3111051,0,30401419,0,10301809,22002009,40401409,0,0,11300709,40000009,0,20701109,0,0,20800909,0,0,22001019,41401909,31301409,0,20801309,0
19,58,561.479090712965,0,0,642730.718517645,642731.765527923,3,1,0,1,31,148384575,167547202,250268821,227769092,-2080101,10901919,31500409,10600509,0,0,20901209,40400109,32000319,0,10400809,31300109,31411609,30511909,11200409,30210219,12000419,10511719,21310809,41700919,20610719,21801119,11500209,40010219,20811009,30612009,41911809,41310909,30111219,41000319,10111809,0,21611609,21801409,21111409,40710409
19,59,563.724952982739,0,0,642733.4831375,642734.530164716,3,1,0,32,0,0,0,0,0,0,0,0,0,0,0,0,0,0,0,0,0,0,0,0,0,0,0,0,0,0,0,0,0,0,0,0,0,0,0,0,-20601501,0,0,0,0
19,60,459.231149638072,0,0,642736.141871533,642737.188908758,3,1,0,26,9,63811128,41611419,56013557,62913337,0,0,0,21811009,0,42000119,0,0,0,0,0,0,0,41611419,0,0,0,0,0,0,0,11601509,10400619,30011319,0,-4000110,0,0,0,30101109,0,0,0,21210409,11601819,0
19,61,531.708904658444,0,0,642738.824202517,642739.871184693,3,0,0,4,31,139194046,220857602,248870541,260368311,30811119,11800409,0,-3050061,31611419,0,0,40411019,21510019,20801819,40700009,41611309,11900119,31111309,0,30810719,12010309,31912009,41901719,11400109,10211519,21312009,40211309,40711419,40911019,21910619,20300819,20611219,31711919,32011409,10700409,41501209,41010119,30510309,40510609,11801109
19,62,541.597781819291,0,0,642741.459380789,642742.506406465,3,1,0,19,31,237859122,169417902,209106274,208846302,31311419,20611119,40810219,30101609,41301809,30410909,11500219,0,31811819,21401209,20201309,11910919,21000309,41600309,31400519,0,10101819,11801509,-3060081,40410709,31100009,0,30001619,30701819,20410909,31610319,21810809,21001019,41600609,40211709,21710209,11400709,20501319,41010219,0,11410509
19,63,565.806821687147,0,0,642744.17695572,642745.224009113,3,0,0,29,9,92504047,32412518,61221828,66012168,0,40301109,0,0,20400919,0,31802019,0,0,0,0,0,0,20701009,0,0,0,11711509,0,0,0,0,0,20810519,0,40411309,0,0,-3200140,0,0,31211019,0,0,31601009,0
19,64,485.419444157742,1,0,642746.941586738,642747.988401286,3,1,1,10,9,83121247,43381249,104003447,42502428,20510009,41310319,0,0,0,21300919,0,0,0,-3080140,0,0,0,40301109,0,0,0,0,0,0,0,0,31800309,30601819,41601319,0,0,0,0,0,10501409,32001019,0,0,0,0
19,65,1293.47234929446,0,0,642749.553275847,642750.600294594,3,1,0,16,9,63112937,44672278,102903347,10900619,0,41101409,0,0,0,12001019,0,10010509,0,0,10211219,31401019,0,0,0,-3060040,0,0,0,0,0,0,40901319,20501609,0,41500419,0,0,0,0,10900619,0,0,0,0,0
19,66,409.511131700128,0,1,642752.953177913,642754.000202819,3,1,1,31,3,20410719,20400119,0,43731429,0,0,0,0,0,0,20410719,0,0,0,0,20400119,0,0,0,0,0,0,0,0,0,0,0,0,0,0,0,0,0,0,-2130010,0,41601419,0,0,0
19,67,692.047069780529,1,0,642755.564908597,642756.611895777,3,0,1,3,3,64032059,0,0,10111519,0,0,-2120131,0,31211619,0,0,0,30700309,0,0,0,0,0,0,0,0,0,0,0,0,0,0,0,0,0,0,0,0,0,0,10111519,0,0,0,0
19,68,534.156871493906,1,0,642758.329494191,642759.376511783,3,1,1,27,3,20411719,31000709,32980559,0,0,0,0,0,0,20411719,0,0,0,0,31000709,0,0,0,0,0,0,0,31910509,0,0,0,0,0,0,0,-1070050,0,0,0,0,0,0,0,0,0
19,69,591.987631749362,0,0,642761.058852007,642762.10585805,3,0,0,9,19,167675006,84214566,124224046,134827064,41300519,0,11500209,40110419,0,40510709,0,31202019,-3051131,0,0,21301819,0,10810819,30501809,21600119,0,0,0,0,0,30610609,0,42000109,0,40211609,11401719,20000609,30400709,11010409,0,0,21901909,20001719,0,31511709
19,70,536.576351034455,1,0,642763.846982582,642764.894005564,3,1,1,34,31,178457922,259952712,216750302,239920933,31811309,30111509,0,31810819,11310319,10211919,31400009,20600119,11201919,40801809,31002019,42011709,30400809,32011709,0,41401819,31111319,11211519,41312009,0,31301909,30300919,11811319,40810809,20901719,10201309,30110309,20201109,41712019,0,31211519,41211909,31002009,-1081130,31801219,41700019
19,71,822.551145334728,0,0,642766.541034858,642767.588050911,3,0,0,2,9,23662389,50822447,114223637,41801609,0,-2150051,0,0,0,0,10911219,10601119,0,0,10100709,0,0,0,0,30211119,10510619,0,0,41111819,0,0,31910109,41201709,0,0,0,0,0,0,41801609,0,0,0,0,0
19,72,514.367953175679,1,0,642769.529179216,642770.576197963,3,0,1,7,3,2030010,21710909,0,61902918,0,0,0,0,0,0,-2030010,0,0,0,0,0,0,0,0,21710909,0,0,0,0,0,0,0,0,0,0,0,0,0,0,0,0,40701909,21201009,0,0
19,73,466.396812931634,0,0,642772.117339125,642773.164360567,3,0,0,15,9,62512728,86975058,73023647,21311809,0,0,21601909,0,0,0,0,0,40910819,40211909,0,11201319,0,0,-4061011,0,31500819,0,30010219,0,11201809,0,31811619,0,0,0,0,0,0,0,21311809,0,0,0,0,0
19,74,551.478574750945,1,0,642774.670208124,642775.717228026,3,0,1,18,0,0,0,0,0,0,0,0,0,0,0,0,0,0,0,0,0,0,0,0,0,0,-10010391,0,0,0,0,0,0,0,0,0,0,0,0,0,0,0,0,0,0
19,75,536.152509041131,0,0,642777.399542842,642778.446568903,3,0,0,14,31,217847901,168749643,197554993,198360002,31000519,30911809,20900609,10110209,40710209,21202009,30701309,11600609,20710619,0,41801909,10011219,30210709,-1011050,30410019,22001809,11300919,22002009,21810709,41310609,30511309,0,0,21310019,31601619,20200609,30810119,40911209,21601209,10011819,0,31412009,21301419,31010219,11101709,31010409
19,76,400.713233859278,1,0,642780.081816468,642781.128840219,3,0,1,11,19,104324056,129087416,112632636,121419304,0,11710609,10900109,0,0,0,0,40401919,41311419,0,-4051171,20801409,11211909,31501509,0,31011109,0,30510309,0,0,0,0,30010309,41511509,30900309,0,10210509,0,12011319,0,0,11900409,21801819,21901919,32001919,21801919
19,77,519.784353906289,1,0,642782.575863046,642783.622891802,3,1,1,20,19,103016675,146854104,107393547,154513846,0,40000219,30002019,0,11001009,0,11112019,0,10901409,31511719,41500819,11410009,10510419,0,40210519,0,0,11710619,0,-2070001,40611009,31010419,0,0,0,21900109,11802009,30801619,40210509,41900609,41601109,0,0,0,0,0
19,78,433.710932615213,1,0,642785.222868089,642786.269887605,3,1,1,28,3,0,11511609,41410319,33501269,0,0,0,0,0,0,0,0,0,0,0,0,11511609,0,0,0,0,0,0,0,0,0,0,0,41410319,0,0,-2190050,0,0,0,0,0,0,31311219,0
19,79,414.284647558816,1,0,642792.105004976,642793.152033732,4,1,1,10,9,83121247,43381249,104003447,42502428,20510009,41310319,0,0,0,21300919,0,0,0,-3080140,0,0,0,40301109,0,0,0,0,0,0,0,0,31800309,30601819,41601319,0,0,0,0,0,10501409,32001019,0,0,0,0
19,80,446.946275420487,1,0,642794.622645812,642795.669601426,4,0,1,11,3,31411519,32160440,41511519,0,0,31411519,0,0,0,0,0,0,0,0,-1150021,0,0,0,0,0,0,31010419,0,0,0,0,0,41511519,0,0,0,0,0,0,0,0,0,0,0,0
19,81,639.080291148275,1,0,642797.281315556,642798.328377034,4,0,1,14,31,238065403,148256464,248278441,221549792,0,21510109,20510419,41711519,31411119,0,41810609,40100809,41010819,10800719,30100819,20501219,30610219,-4021151,11001319,11010209,0,30210809,22010319,42011509,21000709,20400809,31111719,30011019,10811519,40510719,30410119,12001309,31910309,31800909,10501409,31811609,21311219,40211909,42001119,0
19,82,574.351415270939,1,0,642800.045956199,642801.092982645,4,1,1,26,9,63811128,41611419,56013557,62913337,0,0,0,21811009,0,42000119,0,0,0,0,0,0,0,41611419,0,0,0,0,0,0,0,11601509,10400619,30011319,0,-4000110,0,0,0,30101109,0,0,0,21210409,11601819,0
19,83,667.434205650352,0,0,642802.798820116,642803.845831549,4,0,0,2,3,66631369,20900919,0,0,0,-3110131,0,41810719,0,0,21710519,0,0,0,0,0,0,0,0,0,0,20900919,0,0,0,0,0,0,0,0,0,0,0,0,0,0,0,0,0,0
19,84,656.441645463929,0,0,642805.539925786,642806.586939143,4,0,0,4,9,41181909,63513046,60902628,33811438,0,0,40001719,-1180190,0,0,0,0,0,30300419,0,0,0,10810409,10900509,0,0,11501709,0,40000809,20901819,0,0,0,0,0,0,0,22011319,11800119,0,0,0,0,0,0
19,85,487.641268526204,1,0,642808.398657817,642809.445684648,4,0,1,5,19,155435184,71804346,143749384,42023147,0,41010919,0,10110109,-1001100,40700419,31811709,20700719,10100209,0,10600909,0,20701009,10500809,0,0,30001619,0,10910709,10511419,41311919,30601709,0,0,10311619,0,40102009,0,0,0,0,21311709,0,10100919,10610519,0
19,86,486.620737006888,1,0,642810.998376318,642812.045612044,4,1,1,34,31,178457922,259952712,216750302,239920933,31811309,30111509,0,31810819,11310319,10211919,31400009,20600119,11201919,40801809,31002019,42011709,30400809,32011709,0,41401819,31111319,11211519,41312009,0,31301909,30300919,11811319,40810809,20901719,10201309,30110309,20201109,41712019,0,31211519,41211909,31002009,-1081130,31801219,41700019
19,87,550.553898559883,1,0,642813.53968865,642814.586714326,4,1,1,22,19,104613056,93032646,148537003,93012356,0,10001709,31500009,0,0,0,31511119,31600219,0,20410109,0,0,40511009,0,20610909,11500619,0,0,30201509,0,21911009,-1111090,21001719,10700219,10400119,31700219,21511119,20701209,20400219,21400219,0,0,0,0,30510709,0
19,88,567.123003304005,0,0,642816.16315025,642817.210171691,4,0,0,19,0,0,0,0,0,0,0,0,0,0,0,0,0,0,0,0,0,0,0,0,0,0,0,-11100691,0,0,0,0,0,0,0,0,0,0,0,0,0,0,0,0,0
19,89,639.307418023236,1,0,642818.880716711,642819.927744312,4,1,1,31,3,20410719,20400119,0,43731429,0,0,0,0,0,0,20410719,0,0,0,0,20400119,0,0,0,0,0,0,0,0,0,0,0,0,0,0,0,0,0,0,-2130010,0,41601419,0,0,0
19,90,600.637704599649,0,0,642821.739462601,642822.786480193,4,0,0,9,31,169406855,217847002,328084811,177248102,10511519,11610409,0,21310609,41710609,41001809,0,41211819,-2050081,40611909,21800709,11210919,10810809,0,41601309,30100009,41500019,20211319,40811319,30810509,40910509,40810809,21210109,41610019,41210309,30210819,40500409,30001309,21001709,0,11810709,21510609,11100219,20311919,41010109,20501519
19,91,561.517201829702,0,0,642824.586422911,642825.63346514,4,1,0,20,19,103016675,146854104,107393547,154513846,0,40000219,30002019,0,11001009,0,11112019,0,10901409,31511719,41500819,11410009,10510419,0,40210519,0,0,11710619,0,-2070001,40611009,31010419,0,0,0,21900109,11802009,30801619,40210509,41900609,41601109,0,0,0,0,0
19,92,573.446757043712,0,1,642827.374590828,642828.421620353,4,1,1,13,19,105743856,148040225,112403236,136306555,0,0,11310619,0,0,41711119,11611509,0,41110609,20601019,30611509,31011409,-3111051,0,30401419,0,10301809,22002009,40401409,0,0,11300709,40000009,0,20701109,0,0,20800909,0,0,22001019,41401909,31301409,0,20801309,0
19,93,1019.87327996176,0,0,642830.033328325,642831.080375559,4,0,0,18,31,235561321,210664913,204238713,219157322,40701219,41011719,10901709,40010209,21310209,30001909,20711819,20701519,10211009,31611719,41000019,31800309,31700219,0,22011019,31000209,20510409,-1031010,40101019,40212009,0,30700319,40311609,31401419,11000419,0,10511919,21800019,40900319,41211019,0,11911709,40010619,21610119,31412009,10301509
19,94,682.309097377583,1,0,642833.209763248,642834.256743113,4,1,1,1,31,148384575,167547202,250268821,227769092,-2080101,10901919,31500409,10600509,0,0,20901209,40400109,32000319,0,10400809,31300109,31411609,30511909,11200409,30210219,12000419,10511719,21310809,41700919,20610719,21801119,11500209,40010219,20811009,30612009,41911809,41310909,30111219,41000319,10111809,0,21611609,21801409,21111409,40710409
19,95,739.683293970302,0,0,642836.033235164,642837.080226194,4,0,0,29,19,105315036,144946414,147517285,87034287,0,0,11401809,0,30911909,0,21000709,0,42000609,0,41301119,21011219,30811019,10810419,30811319,10201319,0,0,0,0,0,20501219,31811519,11501809,42000919,0,41701819,21901209,-4120121,0,0,0,0,20001519,10801319,30210119
19,96,545.194472069852,0,0,642838.85662085,642839.903648836,4,0,0,7,19,125284556,62322038,127536255,175669893,0,0,10210009,20810809,40901409,30511219,-1141091,21710019,0,21010319,0,0,41311719,0,0,0,0,0,31711409,21500409,0,0,41801909,22012019,10510509,0,0,20611809,20411609,10410719,30111219,0,31701809,30911719,0,31511009
19,97,630.170369637199,1,0,642841.538897555,642842.585917072,4,1,1,27,3,20411719,31000709,32980559,0,0,0,0,0,0,20411719,0,0,0,0,31000709,0,0,0,0,0,0,0,31910509,0,0,0,0,0,0,0,-1070050,0,0,0,0,0,0,0,0,0
19,98,536.04972444009,0,0,642844.291763782,642845.338786763,4,0,0,3,3,1071091,11800409,31012019,31601119,0,0,-1071091,0,0,0,0,0,0,0,0,0,11800409,0,0,0,0,0,0,0,0,0,0,0,0,31012019,0,0,0,31601119,0,0,0,0,0,0
19,99,574.936940916814,0,0,642846.879984515,642847.926943208,4,0,0,15,9,40011819,126024297,91912427,82512918,0,0,40011819,0,0,0,0,0,0,41700619,0,0,0,0,-3101150,0,40611409,40611119,0,0,0,40201209,21110909,30600309,0,0,0,0,41311109,0,0,41201809,0,0,0,0
19,100,678.245064336807,1,0,642849.538674278,642850.585694565,4,1,1,32,0,0,0,0,0,0,0,0,0,0,0,0,0,0,0,0,0,0,0,0,0,0,0,0,0,0,0,0,0,0,0,0,0,0,0,0,-20601501,0,0,0,0
19,101,971.511789248325,0,0,642852.432708769,642853.491495387,4,0,0,17,9,85423446,56064009,40523338,30500419,20200709,11601009,31810709,21811019,0,0,0,0,0,0,31512019,0,21511919,0,0,0,-3040071,0,0,30111919,0,0,0,0,10411419,0,0,0,0,0,0,0,0,30500419,0,0
19,102,557.594449608587,0,0,642855.59732385,642856.644346831,4,1,0,19,31,237859122,169417902,209106274,208846302,31311419,20611119,40810219,30101609,41301809,30410909,11500219,0,31811819,21401209,20201309,11910919,21000309,41600309,31400519,0,10101819,11801509,-3060081,40410709,31100009,0,30001619,30701819,20410909,31610319,21810809,21001019,41600609,40211709,21710209,11400709,20501319,41010219,0,11410509
19,103,664.087355136871,1,0,642858.232539463,642859.279568219,4,1,1,16,9,63112937,44672278,102903347,10900619,0,41101409,0,0,0,12001019,0,10010509,0,0,10211219,31401019,0,0,0,-3060040,0,0,0,0,0,0,40901319,20501609,0,41500419,0,0,0,0,10900619,0,0,0,0,0
19,104,626.064760959707,0,0,642861.114875375,642862.161846002,4,1,0,28,3,0,11511609,41410319,33501269,0,0,0,0,0,0,0,0,0,0,0,0,11511609,0,0,0,0,0,0,0,0,0,0,0,41410319,0,0,-2190050,0,0,0,0,0,0,31311219,0
19,105,929.252699716017,0,0,642867.232304637,642868.279315299,5,1,0,19,31,237859122,169417902,209106274,208846302,31311419,20611119,40810219,30101609,41301809,30410909,11500219,0,31811819,21401209,20201309,11910919,21000309,41600309,31400519,0,10101819,11801509,-3060081,40410709,31100009,0,30001619,30701819,20410909,31610319,21810809,21001019,41600609,40211709,21710209,11400709,20501319,41010219,0,11410509
19,106,612.903715693392,1,0,642870.349883648,642871.396871598,5,1,1,32,0,0,0,0,0,0,0,0,0,0,0,0,0,0,0,0,0,0,0,0,0,0,0,0,0,0,0,0,0,0,0,0,0,0,0,0,-20601501,0,0,0,0
19,107,474.658075254411,0,0,642873.138001135,642874.185024116,5,1,0,26,9,63811128,41611419,56013557,62913337,0,0,0,21811009,0,42000119,0,0,0,0,0,0,0,41611419,0,0,0,0,0,0,0,11601509,10400619,30011319,0,-4000110,0,0,0,30101109,0,0,0,21210409,11601819,0
19,108,2098.27288938686,1,0,642875.76145927,642876.808478787,5,0,1,15,9,42512328,83962668,21511709,92523557,0,0,0,0,11100509,0,0,0,31411819,0,0,30311919,0,0,-1040021,40710109,0,11900619,0,0,0,0,0,0,0,21511709,0,0,40000319,0,0,0,0,41911619,0,10611619
19,109,496.652819681913,0,0,642880.031921678,642881.078951588,5,1,0,27,3,20411719,31000709,32980559,0,0,0,0,0,0,20411719,0,0,0,0,31000709,0,0,0,0,0,0,0,31910509,0,0,0,0,0,0,0,-1070050,0,0,0,0,0,0,0,0,0
19,110,492.581472499296,1,0,642882.773025037,642883.820049944,5,1,1,22,19,104613056,93032646,148537003,93012356,0,10001709,31500009,0,0,0,31511119,31600219,0,20410109,0,0,40511009,0,20610909,11500619,0,0,30201509,0,21911009,-1111090,21001719,10700219,10400119,31700219,21511119,20701209,20400219,21400219,0,0,0,0,30510709,0
19,111,475.687075871974,0,0,642885.384711066,642886.431735587,5,1,0,10,9,83121247,43381249,104003447,42502428,20510009,41310319,0,0,0,21300919,0,0,0,-3080140,0,0,0,40301109,0,0,0,0,0,0,0,0,31800309,30601819,41601319,0,0,0,0,0,10501409,32001019,0,0,0,0
19,112,484.715180238709,1,0,642887.925817968,642888.972854423,5,0,1,17,31,229876271,155864175,177527702,240957921,11810219,30400119,10510719,11511419,21211019,30711119,32011019,41510119,40200519,0,40200819,10111119,31800519,0,31100309,0,-1040090,41611319,41701619,31500709,30401209,20311209,11401109,20610719,10900419,10700709,0,20710209,21810609,41900009,41401019,10311819,41500919,20511419,21501109,21310809
19,113,524.129408295266,1,0,642890.643390588,642891.69041049,5,0,1,9,3,3131131,11311819,0,41521338,0,0,0,0,0,0,0,0,-3131131,0,0,0,0,11311819,0,0,0,0,0,0,0,0,0,0,0,0,0,0,0,0,11210319,0,30311019,0,0,0
19,114,424.271304858848,0,0,642893.255077772,642894.302098829,5,0,0,7,19,126774176,158847703,135236394,50611828,41401609,40000009,0,21411109,0,20900419,-3061030,0,0,11410209,11711919,0,30101309,11110219,11402019,42001809,0,41110219,31101119,11411709,31110319,0,0,11201619,40210519,0,10201109,0,0,0,10110909,0,40500919,0,0,0
19,115,451.531930360943,1,0,642895.807944846,642896.854962438,5,0,1,4,19,110365936,194026494,104033266,82425966,11601819,0,12000319,-4130161,30610909,0,30211919,0,21810809,30900419,0,0,41001619,10210419,0,30501809,40110609,41301619,0,0,0,32000119,0,0,30712009,30410119,10911019,10111119,10011319,0,20502009,41801519,0,0,0,0
19,116,622.238249052316,0,0,642898.396103216,642899.443130432,5,0,0,5,3,15700139,0,53310518,0,11700109,0,0,0,-4000030,0,0,0,0,0,0,0,0,0,0,0,0,0,0,0,0,0,0,0,21800109,0,31510409,0,0,0,0,0,0,0,0,0
19,117,568.489999626763,0,0,642901.160732695,642902.207791093,5,0,0,14,9,103411337,4071150,83602628,114402256,31100509,0,0,0,0,41710209,0,0,30600619,0,0,0,0,-4071150,0,0,0,0,41700909,0,0,0,0,0,0,41901719,0,21401519,0,11100209,0,0,0,0,41800319,40100209
19,118,560.32536260318,1,0,642903.843009785,642904.890038926,5,0,1,29,9,62802428,71002338,31810619,103834747,0,21102019,0,0,0,0,41700409,0,0,0,40601319,0,0,0,0,0,0,30401019,0,0,0,31810619,0,0,0,0,0,0,-2120191,21000819,30111709,0,0,0,10600709,40001319
19,119,456.795501639135,0,0,642906.572349893,642907.619404441,5,1,0,28,3,0,11511609,41410319,33501269,0,0,0,0,0,0,0,0,0,0,0,0,11511609,0,0,0,0,0,0,0,0,0,0,0,41410319,0,0,-2190050,0,0,0,0,0,0,31311219,0
19,120,579.265056876466,1,0,642909.136977524,642910.184010514,5,1,1,34,31,178457922,259952712,216750302,239920933,31811309,30111509,0,31810819,11310319,10211919,31400009,20600119,11201919,40801809,31002019,42011709,30400809,32011709,0,41401819,31111319,11211519,41312009,0,31301909,30300919,11811319,40810809,20901719,10201309,30110309,20201109,41712019,0,31211519,41211909,31002009,-1081130,31801219,41700019
19,121,647.533263894729,0,0,642911.795733499,642912.842749167,5,0,0,2,31,233717003,198970951,155427304,168657002,20511409,-4170001,41910219,41901209,11600219,11700819,40010409,40301809,21610909,10711609,31200819,11210719,21411719,20411219,11000909,11911019,40201219,40911719,41201909,31111719,20600019,21101419,0,0,20001819,21410419,0,31510419,10210809,0,10201419,31510209,21210919,22010309,31701909,10301009
19,122,651.728183496743,1,0,642914.560356434,642915.607370176,5,0,1,18,3,0,1010040,0,83713457,0,0,0,0,0,0,0,0,0,0,0,0,0,0,0,0,0,-1010040,0,0,0,0,0,0,0,0,0,0,0,0,31500019,11111519,0,0,41101919,0
19,123,549.041771912016,0,0,642917.419097319,642918.46612261,5,1,0,1,31,148384575,167547202,250268821,227769092,-2080101,10901919,31500409,10600509,0,0,20901209,40400109,32000319,0,10400809,31300109,31411609,30511909,11200409,30210219,12000419,10511719,21310809,41700919,20610719,21801119,11500209,40010219,20811009,30612009,41911809,41310909,30111219,41000319,10111809,0,21611609,21801409,21111409,40710409
19,124,625.657857279293,0,0,642920.148487087,642921.195460023,5,1,0,31,3,20410719,20400119,0,43731429,0,0,0,0,0,0,20410719,0,0,0,0,20400119,0,0,0,0,0,0,0,0,0,0,0,0,0,0,0,0,0,0,-2130010,0,41601419,0,0,0
19,125,659.099800977856,1,0,642922.971883551,642924.018906147,5,0,1,11,19,166424913,123825096,74322647,163844965,21100709,30800919,20500019,0,31811719,10610919,40400409,0,11200219,0,-1110060,40401809,11201209,30211209,0,0,40900809,0,0,31501019,20810709,22010919,0,0,0,0,0,0,0,30510309,30210409,31210819,0,30801419,41112009,0
19,126,666.285867220722,1,0,642925.877684759,642926.92470697,5,0,1,17,0,0,0,0,0,0,0,0,0,0,0,0,0,0,0,0,0,0,0,0,0,-30911801,0,0,0,0,0,0,0,0,0,0,0,0,0,0,0,0,0,0,0
19,127,489.865573006682,0,0,642928.795310427,642929.842313776,5,1,0,20,19,103016675,146854104,107393547,154513846,0,40000219,30002019,0,11001009,0,11112019,0,10901409,31511719,41500819,11410009,10510419,0,40210519,0,0,11710619,0,-2070001,40611009,31010419,0,0,0,21900109,11802009,30801619,40210509,41900609,41601109,0,0,0,0,0
19,128,541.103107039817,1,0,642931.45399634,642932.501009697,5,0,1,3,31,199895853,188327703,196058912,229577221,40210809,11400919,-2061160,30810219,0,41510609,21400009,40501519,12000609,30701009,31101919,0,32001619,31511809,11110219,0,21300919,30600209,11012009,41611919,41100619,40300309,10011119,21301119,20710509,0,10011309,31610209,12010019,31200509,11010709,41111719,30110719,20211219,41711009,10601109
19,129,574.904219130985,0,0,642934.195097005,642935.242122681,5,1,0,13,19,105743856,148040225,112403236,136306555,0,0,11310619,0,0,41711119,11611509,0,41110609,20601019,30611509,31011409,-3111051,0,30401419,0,10301809,22002009,40401409,0,0,11300709,40000009,0,20701109,0,0,20800909,0,0,22001019,41401909,31301409,0,20801309,0
19,130,460.277858423069,1,0,642936.959720324,642938.00674831,5,1,1,16,9,63112937,44672278,102903347,10900619,0,41101409,0,0,0,12001019,0,10010509,0,0,10211219,31401019,0,0,0,-3060040,0,0,0,0,0,0,40901319,20501609,0,41500419,0,0,0,0,10900619,0,0,0,0,0
19,131,504.818996530958,1,0,642946.135912722,642947.183033483,6,1,1,28,3,0,11511609,41410319,33501269,0,0,0,0,0,0,0,0,0,0,0,0,11511609,0,0,0,0,0,0,0,0,0,0,0,41410319,0,0,-2190050,0,0,0,0,0,0,31311219,0
19,132,507.766257622279,1,0,642948.865263993,642949.912293134,6,1,1,22,19,104613056,93032646,148537003,93012356,0,10001709,31500009,0,0,0,31511119,31600219,0,20410109,0,0,40511009,0,20610909,11500619,0,0,30201509,0,21911009,-1111090,21001719,10700219,10400119,31700219,21511119,20701209,20400219,21400219,0,0,0,0,30510709,0
19,133,532.716732472181,1,0,642951.571061428,642952.618098653,6,0,1,15,31,208446822,190354623,146525884,197438631,21002019,31610819,30900009,41810209,32010609,10201219,30210419,10701519,0,30810609,11400819,41310119,21611809,11100519,-2010001,11800519,20300109,40010119,10311309,41410309,0,31201719,0,21100519,0,11401419,31100609,40310809,40710219,31400609,11800819,11001509,10401319,10312019,30900519,10600809
19,134,538.894585915841,0,0,642954.218054922,642955.265080213,6,0,0,4,19,96085507,175743774,114813036,155456694,30301719,0,0,-4061150,0,30311619,31411019,0,0,0,0,10700819,30401609,21110109,31810009,0,41110719,40610509,0,41900609,30700509,0,0,0,20410309,0,21801609,0,10711409,31411219,0,20301419,40712019,31910609,20410019,0
19,135,642.422522068955,0,0,642956.994449963,642958.04145947,6,0,0,18,9,53414147,14891220,123521456,11501209,20600909,21301619,0,0,11511619,0,0,0,0,0,0,0,0,0,10711119,0,0,-4180101,40200419,21110119,0,0,0,40810509,21400409,0,0,0,0,0,0,0,0,11501209,0,0
19,136,632.525945897214,0,0,642959.794370738,642960.841393719,6,0,0,7,3,47800519,0,21510009,0,0,0,0,0,0,11610319,-4190091,32000109,0,0,0,0,0,0,0,0,0,0,0,0,0,0,0,21510009,0,0,0,0,0,0,0,0,0,0,0,0
19,137,524.445846211165,1,0,642962.488417239,642963.535432906,6,1,1,26,9,63811128,41611419,56013557,62913337,0,0,0,21811009,0,42000119,0,0,0,0,0,0,0,41611419,0,0,0,0,0,0,0,11601509,10400619,30011319,0,-4000110,0,0,0,30101109,0,0,0,21210409,11601819,0
19,138,545.694151427597,0,0,642965.253035554,642966.300055456,6,1,0,13,19,105743856,148040225,112403236,136306555,0,0,11310619,0,0,41711119,11611509,0,41110609,20601019,30611509,31011409,-3111051,0,30401419,0,10301809,22002009,40401409,0,0,11300709,40000009,0,20701109,0,0,20800909,0,0,22001019,41401909,31301409,0,20801309,0
19,139,757.270620437339,1,0,642967.87648599,642968.923513206,6,0,1,2,31,197906435,166245892,211788031,208539402,40811019,-2161151,0,0,31311209,31200719,41811309,30510009,20101019,21501109,20900309,11401519,40000019,0,11911109,10010909,20210709,30310209,41710509,21011009,11611019,41611819,11112019,31510109,21110419,11300009,20811119,30101719,20511219,0,30500809,22001509,21800219,40711509,11500609,31411809
19,140,572.115177055821,0,0,642970.876410153,642971.92342736,6,0,0,9,31,147108233,223949192,187427502,158327202,0,12010709,30211909,42000709,20612009,10600919,10200719,20310209,-1161050,40010309,10711409,20111409,41500309,20711509,0,40001919,40900309,10002019,30301509,41511409,12000119,20900419,20901219,10400509,20901109,0,30511209,10301209,41310119,11901919,30900809,10700209,20600109,0,22011319,10601509
19,141,802.204033709131,0,0,642973.664564981,642974.711581033,6,1,0,34,31,178457922,259952712,216750302,239920933,31811309,30111509,0,31810819,11310319,10211919,31400009,20600119,11201919,40801809,31002019,42011709,30400809,32011709,0,41401819,31111319,11211519,41312009,0,31301909,30300919,11811319,40810809,20901719,10201309,30110309,20201109,41712019,0,31211519,41211909,31002009,-1081130,31801219,41700019
19,142,755.63684606459,1,0,642976.688052604,642977.735035165,6,1,1,1,31,148384575,167547202,250268821,227769092,-2080101,10901919,31500409,10600509,0,0,20901209,40400109,32000319,0,10400809,31300109,31411609,30511909,11200409,30210219,12000419,10511719,21310809,41700919,20610719,21801119,11500209,40010219,20811009,30612009,41911809,41310909,30111219,41000319,10111809,0,21611609,21801409,21111409,40710409
19,143,473.044703830965,1,0,642979.605568174,642980.652586536,6,0,1,17,3,40710909,1120081,30901219,41100619,0,40710909,0,0,0,0,0,0,0,0,0,0,0,0,0,0,-1120081,0,0,0,0,0,0,30901219,0,0,0,0,0,0,0,0,41100619,0,0,0
19,144,773.875141632743,1,0,642982.193773894,642983.240790331,6,1,1,31,3,20410719,20400119,0,43731429,0,0,0,0,0,0,20410719,0,0,0,0,20400119,0,0,0,0,0,0,0,0,0,0,0,0,0,0,0,0,0,0,-2130010,0,41601419,0,0,0
19,145,580.789502360858,0,0,642985.146591539,642986.19361914,6,0,0,14,9,93025837,66012518,10601509,51703537,0,40612009,0,0,20711809,0,0,31702019,0,0,0,0,0,-4201000,0,31210009,0,30601509,0,0,0,0,0,0,0,10601509,0,10101809,0,30901509,0,0,10700219,0,0,0
19,146,491.380779305473,0,0,642987.864157231,642988.911184062,6,1,0,16,9,63112937,44672278,102903347,10900619,0,41101409,0,0,0,12001019,0,10010509,0,0,10211219,31401019,0,0,0,-3060040,0,0,0,0,0,0,40901319,20501609,0,41500419,0,0,0,0,10900619,0,0,0,0,0
19,147,573.900241055526,0,0,642990.487828249,642991.534645276,6,0,0,29,19,211140002,102933456,51711728,158576125,40800609,0,41801809,21811719,21301309,11610619,20700519,11301509,41811909,41411619,10010309,11210809,0,0,40300719,0,0,0,0,0,20101019,0,0,31610709,0,0,0,21900209,-1151170,0,0,0,30610709,41512009,32000909,31401119
19,148,688.142410712317,1,0,642993.25224369,642994.299262437,6,0,1,5,9,33902718,0,103723146,74912147,11800819,0,0,0,-1091180,0,0,0,21010719,0,0,0,0,0,0,0,0,0,0,30600309,31401119,31710509,0,0,0,0,10011209,0,0,0,41600119,11901709,0,0,21410319,0
19,149,693.485283874907,0,0,642996.158038353,642997.205068649,6,1,0,19,31,237859122,169417902,209106274,208846302,31311419,20611119,40810219,30101609,41301809,30410909,11500219,0,31811819,21401209,20201309,11910919,21000309,41600309,31400519,0,10101819,11801509,-3060081,40410709,31100009,0,30001619,30701819,20410909,31610319,21810809,21001019,41600609,40211709,21710209,11400709,20501319,41010219,0,11410509
19,150,485.93543889001,0,0,642999.016783088,643000.063607112,6,1,0,32,0,0,0,0,0,0,0,0,0,0,0,0,0,0,0,0,0,0,0,0,0,0,0,0,0,0,0,0,0,0,0,0,0,0,0,0,-20601501,0,0,0,0
19,151,450.438256259076,1,0,643001.757943037,643002.804909429,6,1,1,10,9,83121247,43381249,104003447,42502428,20510009,41310319,0,0,0,21300919,0,0,0,-3080140,0,0,0,40301109,0,0,0,0,0,0,0,0,31800309,30601819,41601319,0,0,0,0,0,10501409,32001019,0,0,0,0
19,152,583.861490827985,1,0,643004.369573246,643005.416597383,6,0,1,27,0,0,0,0,0,0,0,0,0,0,0,0,0,0,0,0,0,0,0,0,0,0,0,0,0,0,0,0,0,0,0,-21601301,0,0,0,0,0,0,0,0,0
19,153,566.953235538676,0,0,643007.028324217,643008.075433045,6,1,0,27,3,20411719,31000709,32980559,0,0,0,0,0,0,20411719,0,0,0,0,31000709,0,0,0,0,0,0,0,31910509,0,0,0,0,0,0,0,-1070050,0,0,0,0,0,0,0,0,0
19,154,556.060380185954,1,0,643009.722399206,643010.769388311,6,0,1,11,3,33703238,1180160,20710519,0,0,0,0,0,0,11801919,0,21901319,0,0,-1180160,0,0,0,0,0,0,0,20710519,0,0,0,0,0,0,0,0,0,0,0,0,0,0,0,0,0
19,155,571.90999283921,0,0,643012.475225782,643013.522244529,6,0,0,3,19,44162518,158536574,144423185,126145755,10310209,0,-2031181,0,20210309,0,0,0,11610819,30801209,0,41901719,10610909,41910909,22000919,0,0,11310909,0,31400109,30010819,0,0,10001219,41410619,0,31600419,21710009,0,21411909,0,0,41301419,0,10411209,31311209
19,156,560.563653474674,1,0,643015.204563195,643016.251583097,6,1,1,20,19,103016675,146854104,107393547,154513846,0,40000219,30002019,0,11001009,0,11112019,0,10901409,31511719,41500819,11410009,10510419,0,40210519,0,0,11710619,0,-2070001,40611009,31010419,0,0,0,21900109,11802009,30801619,40210509,41900609,41601109,0,0,0,0,0
19,157,552.308935555629,1,0,643025.768978713,643026.815985141,7,1,1,22,19,104613056,93032646,148537003,93012356,0,10001709,31500009,0,0,0,31511119,31600219,0,20410109,0,0,40511009,0,20610909,11500619,0,0,30201509,0,21911009,-1111090,21001719,10700219,10400119,31700219,21511119,20701209,20400219,21400219,0,0,0,0,30510709,0
19,158,483.710817061365,1,0,643028.39241606,643029.439447895,7,1,1,16,9,63112937,44672278,102903347,10900619,0,41101409,0,0,0,12001019,0,10010509,0,0,10211219,31401019,0,0,0,-3060040,0,0,0,0,0,0,40901319,20501609,0,41500419,0,0,0,0,10900619,0,0,0,0,0
19,159,557.958622695878,0,0,643031.05117704,643032.098192707,7,1,0,31,3,20410719,20400119,0,43731429,0,0,0,0,0,0,20410719,0,0,0,0,20400119,0,0,0,0,0,0,0,0,0,0,0,0,0,0,0,0,0,0,-2130010,0,41601419,0,0,0
19,160,599.793870118447,0,0,643033.839330713,643034.88635408,7,0,0,5,3,26042069,0,20600719,30802019,0,0,21910909,0,-4131160,0,0,0,0,0,0,0,0,0,0,0,0,0,0,0,0,0,0,0,0,20600719,0,0,0,0,0,0,0,30802019,0,0
19,161,478.968483046629,1,0,643036.651029369,643037.698097391,7,0,1,4,9,35593019,21322828,31110109,73202956,0,10311019,21111909,-4170091,0,0,0,0,0,0,10511919,10810909,0,0,0,0,0,0,0,0,0,0,31110109,0,0,0,0,0,0,21000409,21101819,0,0,0,10200409,20900319
19,162,568.853787728585,1,0,643039.286230738,643040.333255644,7,1,1,27,3,20411719,31000709,32980559,0,0,0,0,0,0,20411719,0,0,0,0,31000709,0,0,0,0,0,0,0,31910509,0,0,0,0,0,0,0,-1070050,0,0,0,0,0,0,0,0,0
19,163,652.443440863863,1,0,643042.015572001,643043.062592287,7,0,1,7,9,42812000,20110419,155236365,22711928,0,0,0,40700819,0,0,-2111181,0,0,0,0,0,0,20110419,0,0,0,0,30511509,20300009,31510919,42011919,0,30902009,0,0,0,11011009,11700919,0,0,0,0,0,0,0
19,164,584.771538618952,0,0,643044.791959342,643045.839035063,7,0,0,17,9,154224465,55592198,10110119,30901119,21100209,10301319,0,0,42011609,40510319,0,40301009,0,0,0,0,21911019,0,0,0,-3171170,30510009,0,0,0,0,10110119,0,0,0,0,0,0,30901119,0,0,0,0,0,0
19,165,509.302251972258,1,0,643047.556603835,643048.603602948,7,0,1,15,3,0,2140061,40901109,21601828,0,0,0,0,0,0,0,0,0,0,0,0,0,0,-2140061,0,0,0,0,0,0,40901109,0,0,0,0,0,0,10201319,0,0,0,11400509,0,0,0
19,166,592.389146098867,1,0,643050.309442344,643051.35647341,7,0,1,14,19,103724166,128016276,167027784,76823466,0,0,41012019,10500919,41000809,0,11210419,0,0,30010719,30800409,21301809,0,-3091011,0,11111219,31701109,0,41302009,0,10802019,40800409,11301009,0,0,41212019,21610319,21711319,0,0,0,12010909,31501219,0,0,11600019
19,167,536.440074909478,0,0,643053.06231627,643054.109324623,7,1,0,26,9,63811128,41611419,56013557,62913337,0,0,0,21811009,0,42000119,0,0,0,0,0,0,0,41611419,0,0,0,0,0,0,0,11601509,10400619,30011319,0,-4000110,0,0,0,30101109,0,0,0,21210409,11601819,0
19,168,501.669246004894,0,0,643055.721059157,643056.768080214,7,0,0,9,31,176507394,226437012,149137483,217057231,20101609,40000419,10010309,0,30210919,10811019,31901909,31411009,-2060201,30001809,31310619,11111919,41700019,0,41300209,20501619,10410009,40100809,40702019,11300319,20610009,11311909,0,12010609,0,41800909,11401709,10700919,20110109,10001619,40710619,41800509,30610109,30401309,11110219,21611819
19,169,601.494242670015,0,0,643058.473926924,643059.52094798,7,1,0,34,31,178457922,259952712,216750302,239920933,31811309,30111509,0,31810819,11310319,10211919,31400009,20600119,11201919,40801809,31002019,42011709,30400809,32011709,0,41401819,31111319,11211519,41312009,0,31301909,30300919,11811319,40810809,20901719,10201309,30110309,20201109,41712019,0,31211519,41211909,31002009,-1081130,31801219,41700019
19,170,1492.83169722185,0,0,643061.226783912,643062.273866947,7,0,0,3,19,141126674,52534146,51414756,146326285,20000419,20911119,-4191090,21300619,0,0,21710809,22001209,31011409,10401209,10810419,21011409,0,0,10311109,0,0,0,20800619,0,0,10401209,0,10001319,0,10211609,0,21611619,0,21011619,0,0,0,21001119,40900919,41801009
19,171,553.558518877253,1,0,643064.897265413,643065.944294939,7,1,1,32,0,0,0,0,0,0,0,0,0,0,0,0,0,0,0,0,0,0,0,0,0,0,0,0,0,0,0,0,0,0,0,0,0,0,0,0,-20601501,0,0,0,0
19,172,491.451612208039,0,0,643067.59130999,643068.638338746,7,1,0,20,19,103016675,146854104,107393547,154513846,0,40000219,30002019,0,11001009,0,11112019,0,10901409,31511719,41500819,11410009,10510419,0,40210519,0,0,11710619,0,-2070001,40611009,31010419,0,0,0,21900109,11802009,30801619,40210509,41900609,41601109,0,0,0,0,0
19,173,616.39107693918,0,0,643070.285356877,643071.332376778,7,1,0,28,3,0,11511609,41410319,33501269,0,0,0,0,0,0,0,0,0,0,0,0,11511609,0,0,0,0,0,0,0,0,0,0,0,41410319,0,0,-2190050,0,0,0,0,0,0,31311219,0
19,174,646.275981445797,0,0,643073.026451382,643074.073467819,7,0,0,24,0,0,0,0,0,0,0,0,0,0,0,0,0,0,0,0,0,0,0,0,0,0,0,0,0,0,0,0,-41400901,0,0,0,0,0,0,0,0,0,0,0,0
19,175,616.365284658968,1,0,643075.885191113,643076.932216789,7,0,1,11,19,165622884,36662279,144013375,167248504,40711119,0,11701319,0,30800119,30900109,10410109,0,41100109,11811819,-4150141,0,0,0,20700319,0,0,0,0,0,0,41500819,30400319,11800009,20200609,40111619,0,0,30502019,0,11301919,0,21110909,41710919,21011819,41610919
19,176,684.35054528527,1,0,643078.61453122,643079.661551507,7,1,1,13,19,105743856,148040225,112403236,136306555,0,0,11310619,0,0,41711119,11611509,0,41110609,20601019,30611509,31011409,-3111051,0,30401419,0,10301809,22002009,40401409,0,0,11300709,40000009,0,20701109,0,0,20800909,0,0,22001019,41401909,31301409,0,20801309,0
19,177,577.297136536799,0,0,643081.532090675,643082.579122896,7,1,0,19,31,237859122,169417902,209106274,208846302,31311419,20611119,40810219,30101609,41301809,30410909,11500219,0,31811819,21401209,20201309,11910919,21000309,41600309,31400519,0,10101819,11801509,-3060081,40410709,31100009,0,30001619,30701819,20410909,31610319,21810809,21001019,41600609,40211709,21710209,11400709,20501319,41010219,0,11410509
19,178,649.101209826767,1,0,643084.355546424,643085.402563246,7,0,1,18,3,11611709,45522249,0,0,0,0,0,11611709,0,0,0,0,0,21010909,0,0,0,0,0,0,20310219,-4201121,0,0,0,0,0,0,0,0,0,0,0,0,0,0,0,0,0,0
19,179,905.35239840392,0,0,643087.214284229,643088.261306441,7,1,0,1,31,148384575,167547202,250268821,227769092,-2080101,10901919,31500409,10600509,0,0,20901209,40400109,32000319,0,10400809,31300109,31411609,30511909,11200409,30210219,12000419,10511719,21310809,41700919,20610719,21801119,11500209,40010219,20811009,30612009,41911809,41310909,30111219,41000319,10111809,0,21611609,21801409,21111409,40710409
19,180,541.455731261522,1,0,643090.320064187,643091.367098332,7,0,1,2,31,223250133,194755503,160037383,286448831,30311209,-4010121,11901809,10601309,31301119,41411519,10101109,41810619,41801319,30111019,30011309,31810119,11001009,0,40210619,21101009,30510419,0,22012009,20501319,31810719,41200709,0,11901409,0,11501009,21110209,30800109,21210619,41411919,30501109,20800119,41311409,40011919,30000009,30401619
19,181,613.135847146623,1,0,643093.061241074,643094.108204002,7,0,1,29,31,179973521,168636073,167266812,176125994,10011609,11611619,10311709,41810619,21401809,20411809,20700509,12002019,31711819,11811409,11501019,41710709,21311909,41500309,30800109,10000609,0,0,30510819,30010819,21500609,20611309,10701619,10710209,0,11410709,31810719,31110319,-2070091,30401219,30110409,11611419,20010009,30501119,0,20311409
19,182,508.161997538991,0,0,643095.908152879,643096.955183175,7,1,0,10,9,83121247,43381249,104003447,42502428,20510009,41310319,0,0,0,21300919,0,0,0,-3080140,0,0,0,40301109,0,0,0,0,0,0,0,0,31800309,30601819,41601319,0,0,0,0,0,10501409,32001019,0,0,0,0
19,183,557.105934130959,0,0,643105.449054981,643106.496081042,8,0,0,11,19,177043275,118326754,134814746,53325146,41610319,31711109,41310519,0,0,20901209,0,0,41510119,31811509,-1180180,20210019,20900309,0,11711819,0,21611409,10901509,0,0,20901119,41911009,30400909,41601709,0,0,0,11511719,0,0,0,20101009,0,10900509,10811909,0
19,184,966.636258643121,1,0,643108.260744013,643109.307770844,8,1,1,27,3,20411719,31000709,32980559,0,0,0,0,0,0,20411719,0,0,0,0,31000709,0,0,0,0,0,0,0,31910509,0,0,0,0,0,0,0,-1070050,0,0,0,0,0,0,0,0,0
19,185,602.504380280152,1,0,643111.307717334,643112.354821157,8,1,1,19,31,237859122,169417902,209106274,208846302,31311419,20611119,40810219,30101609,41301809,30410909,11500219,0,31811819,21401209,20201309,11910919,21000309,41600309,31400519,0,10101819,11801509,-3060081,40410709,31100009,0,30001619,30701819,20410909,31610319,21810809,21001019,41600609,40211709,21710209,11400709,20501319,41010219,0,11410509
19,186,506.652950658463,0,0,643114.119388273,643115.166478622,8,0,0,17,3,20811419,2131100,21912019,32010909,0,0,0,0,0,0,0,0,20811419,0,0,0,0,0,0,0,-2131100,0,21912019,0,0,0,0,0,0,0,0,32010909,0,0,0,0,0,0,0,0
19,187,413.664090563543,0,0,643116.860505491,643117.907523083,8,0,0,15,0,0,0,0,0,0,0,0,0,0,0,0,0,0,0,0,0,0,0,-30501991,0,0,0,0,0,0,0,0,0,0,0,0,0,0,0,0,0,0,0,0,0
19,188,498.5152608715,1,0,643119.495721104,643120.542741775,8,1,1,10,9,83121247,43381249,104003447,42502428,20510009,41310319,0,0,0,21300919,0,0,0,-3080140,0,0,0,40301109,0,0,0,0,0,0,0,0,31800309,30601819,41601319,0,0,0,0,0,10501409,32001019,0,0,0,0
19,189,527.41120045539,0,0,643122.095643111,643123.142669172,8,1,0,13,19,105743856,148040225,112403236,136306555,0,0,11310619,0,0,41711119,11611509,0,41110609,20601019,30611509,31011409,-3111051,0,30401419,0,10301809,22002009,40401409,0,0,11300709,40000009,0,20701109,0,0,20800909,0,0,22001019,41401909,31301409,0,20801309,0
19,190,520.32021956984,1,0,643124.730861033,643125.777887094,8,1,1,34,31,178457922,259952712,216750302,239920933,31811309,30111509,0,31810819,11310319,10211919,31400009,20600119,11201919,40801809,31002019,42011709,30400809,32011709,0,41401819,31111319,11211519,41312009,0,31301909,30300919,11811319,40810809,20901719,10201309,30110309,20201109,41712019,0,31211519,41211909,31002009,-1081130,31801219,41700019
19,191,458.982849726453,0,0,643127.495492822,643128.542516188,8,1,0,28,3,0,11511609,41410319,33501269,0,0,0,0,0,0,0,0,0,0,0,0,11511609,0,0,0,0,0,0,0,0,0,0,0,41410319,0,0,-2190050,0,0,0,0,0,0,31311219,0
19,192,613.493475946598,1,0,643130.142473612,643131.189498903,8,0,1,3,19,127595305,42120538,175528564,187117894,0,10901909,-1161140,0,31110619,0,20901109,31710219,31810309,0,0,21110519,0,0,0,0,0,21010019,40701809,30610709,40001919,20401009,0,0,0,11901509,31911609,41100519,11911919,0,41301909,0,40500709,0,10801219,41501619
19,193,547.403378062882,1,0,643132.883569657,643133.930588404,8,1,1,32,0,0,0,0,0,0,0,0,0,0,0,0,0,0,0,0,0,0,0,0,0,0,0,0,0,0,0,0,0,0,0,0,0,0,0,0,-20601501,0,0,0,0
19,194,572.693003457971,0,0,643135.495261075,643136.542288291,8,1,0,20,19,103016675,146854104,107393547,154513846,0,40000219,30002019,0,11001009,0,11112019,0,10901409,31511719,41500819,11410009,10510419,0,40210519,0,0,11710619,0,-2070001,40611009,31010419,0,0,0,21900109,11802009,30801619,40210509,41900609,41601109,0,0,0,0,0
19,195,624.618462752551,1,0,643138.130476303,643139.177508909,8,0,1,18,3,11900919,55162158,0,0,0,0,0,0,0,0,11900919,0,0,0,0,0,11700409,0,0,0,41300709,-2161040,0,0,0,0,0,0,0,0,0,0,0,0,0,0,0,0,0,0
19,196,653.381205862388,0,0,643140.824529734,643141.871555025,8,0,0,2,31,146546405,279071821,197259902,189850921,0,-2021150,0,21300209,32011019,30411009,0,40501109,20301909,41602019,40410809,31811709,11901919,20011519,40401709,41311209,20310819,31310109,20810109,30011709,40711109,10501509,0,11111919,31211619,41601219,11300709,30511409,42011019,31501619,11401609,11401419,20400109,10700119,10911709,21011909
19,197,559.137373114936,1,0,643143.612683792,643144.659703694,8,0,1,7,9,87575167,63512957,0,20510428,0,0,0,0,12001419,20401019,-4050101,41011109,10111519,0,0,41800719,0,11410319,0,0,10301919,0,0,0,0,0,0,0,0,0,0,0,0,0,0,0,10300219,10210209,0,0
19,198,509.291088092141,1,0,643146.259665737,643147.306691028,8,0,1,9,9,64884108,23313018,30210819,93131856,0,21201519,0,0,41511509,0,0,0,-2171080,0,11511209,0,0,0,11801809,0,0,0,0,0,0,0,30210819,0,0,0,0,11610309,0,10300419,40810109,0,0,0,0,30411019
19,199,438.853241153993,1,0,643148.894884815,643149.941905871,8,1,1,16,9,63112937,44672278,102903347,10900619,0,41101409,0,0,0,12001019,0,10010509,0,0,10211219,31401019,0,0,0,-3060040,0,0,0,0,0,0,40901319,20501609,0,41500419,0,0,0,0,10900619,0,0,0,0,0
19,200,469.314816989936,0,0,643151.412454433,643152.459474719,8,1,0,22,19,104613056,93032646,148537003,93012356,0,10001709,31500009,0,0,0,31511119,31600219,0,20410109,0,0,40511009,0,20610909,11500619,0,0,30201509,0,21911009,-1111090,21001719,10700219,10400119,31700219,21511119,20701209,20400219,21400219,0,0,0,0,30510709,0
19,201,617.087471298873,0,0,643154.047682364,643155.094704191,8,0,0,29,31,159842061,178329293,225619512,211969783,11311419,31201219,11801519,11102019,20511819,21700219,10811619,10200819,31201409,31811609,20001509,31811109,0,12001119,0,40801309,31201819,10700819,30400019,20902019,20201709,10801719,40901509,30700109,41411409,30301019,0,11511809,-3200090,11211609,0,31400909,40711609,31811219,40811919,41310619
19,202,479.033541399986,1,0,643156.894641134,643157.94167143,8,1,1,26,9,63811128,41611419,56013557,62913337,0,0,0,21811009,0,42000119,0,0,0,0,0,0,0,41611419,0,0,0,0,0,0,0,11601509,10400619,30011319,0,-4000110,0,0,0,30101109,0,0,0,21210409,11601819,0
19,203,1057.89317924064,0,0,643159.471062429,643160.518078866,8,1,0,1,31,148384575,167547202,250268821,227769092,-2080101,10901919,31500409,10600509,0,0,20901209,40400109,32000319,0,10400809,31300109,31411609,30511909,11200409,30210219,12000419,10511719,21310809,41700919,20610719,21801119,11500209,40010219,20811009,30612009,41911809,41310909,30111219,41000319,10111809,0,21611609,21801409,21111409,40710409
19,204,527.605220791884,0,0,643162.71802451,643163.765047106,8,0,0,4,3,15981320,0,31601309,10000109,0,0,0,-4081001,0,11900319,0,0,0,0,0,0,0,0,0,0,0,0,0,0,0,0,0,0,31601309,0,0,0,0,0,0,0,0,0,10000109,0
19,205,461.706448579207,0,0,643165.365011459,643166.412031361,8,0,0,5,19,96544277,115111546,127517583,82714456,30810819,30000509,0,0,-3130011,0,21400919,0,11202019,21600009,0,42000219,0,21211109,0,0,0,30300209,30100609,0,32001409,0,11600719,11101509,10011419,11601109,21100809,10611409,0,20200519,0,40000809,0,0,11901719,0
19,206,487.899192376062,0,0,643168.070819673,643169.11784073,8,1,0,31,3,20410719,20400119,0,43731429,0,0,0,0,0,0,20410719,0,0,0,0,20400119,0,0,0,0,0,0,0,0,0,0,0,0,0,0,0,0,0,0,-2130010,0,41601419,0,0,0
19,207,468.530266545713,1,0,643170.753087524,643171.800115895,8,0,1,15,31,198456213,198537885,207336911,230360031,21800009,41310719,21101219,40612009,11210119,20410719,0,42011419,0,40001509,0,31900919,40810509,22001409,-2001121,40211209,0,21611209,40000919,20800209,21400609,31410509,21500319,40110709,10810819,11300809,10002009,10911109,11802009,20700419,30511219,31400419,20411609,41910619,21611809,41100819
19,208,585.009059519507,1,0,643173.317727089,643174.364767779,8,0,1,14,9,81332827,44834208,10411219,61222547,0,0,0,0,0,30511009,0,20510309,30311509,0,0,0,0,-3121190,10601109,0,31111909,0,0,0,10411219,0,0,0,0,0,0,10510519,0,0,0,30500019,0,20212009,0,0
19,209,626.41854013782,1,0,643179.941063961,643180.988091947,9,0,1,3,9,75403837,135205066,11501209,11711909,0,21500209,-3200000,30602019,20101609,0,0,0,0,41702009,0,0,0,31801319,40001119,21700619,0,0,0,0,0,0,11501209,0,0,0,0,0,0,0,0,0,0,0,11711909,0
19,210,382.349056308158,1,0,643182.635133561,643183.68213152,9,0,1,17,31,219439741,262127242,157837912,175538484,11710619,21101919,21610709,20600819,30102009,20002019,41900719,41900309,10510619,41000919,31110909,40610509,11310919,20610109,40001619,41410919,-4170130,31901209,11710119,10101919,21301619,40100219,0,11111309,11200509,41102009,11210209,40701709,0,31012019,21801609,31211219,30700919,0,0,20111009
19,211,493.35832381621,1,0,643185.082110578,643186.129113541,9,0,1,5,19,116727085,63803557,86515985,177235674,0,10701109,11511109,0,-3101120,40510519,0,30101209,20802019,0,21301519,0,0,0,11501819,31000219,0,0,20302009,22000119,21601519,0,0,10701819,0,11910519,0,20410319,41010809,22000409,0,31410319,0,0,30501809,31902009
19,212,547.24015458487,1,0,643187.811423738,643188.858455189,9,1,1,28,3,0,11511609,41410319,33501269,0,0,0,0,0,0,0,0,0,0,0,0,11511609,0,0,0,0,0,0,0,0,0,0,0,41410319,0,0,-2190050,0,0,0,0,0,0,31311219,0
19,213,760.434229625389,0,0,643190.481945661,643191.528963638,9,1,0,20,19,103016675,146854104,107393547,154513846,0,40000219,30002019,0,11001009,0,11112019,0,10901409,31511719,41500819,11410009,10510419,0,40210519,0,0,11710619,0,-2070001,40611009,31010419,0,0,0,21900109,11802009,30801619,40210509,41900609,41601109,0,0,0,0,0
19,214,447.240000707097,0,0,643193.411270678,643194.458297509,9,0,0,14,31,149365322,220744643,185789212,167936902,11610019,20500119,11310509,10411719,12001719,11710609,40710409,31110219,0,41710719,20500119,20810119,41711519,-4180010,40612019,0,10010019,41210119,20812009,31611319,11311719,10112019,30010609,40411109,11110019,30410409,0,31101009,11610309,40110709,11411719,0,10601509,10400219,11601419,41100009
19,215,721.943522919901,1,0,643195.940617407,643196.987632304,9,1,1,13,19,105743856,148040225,112403236,136306555,0,0,11310619,0,0,41711119,11611509,0,41110609,20601019,30611509,31011409,-3111051,0,30401419,0,10301809,22002009,40401409,0,0,11300709,40000009,0,20701109,0,0,20800909,0,0,22001019,41401909,31301409,0,20801309,0
19,216,539.249904919416,0,0,643198.916998897,643199.964018414,9,1,0,16,9,63112937,44672278,102903347,10900619,0,41101409,0,0,0,12001019,0,10010509,0,0,10211219,31401019,0,0,0,-3060040,0,0,0,0,0,0,40901319,20501609,0,41500419,0,0,0,0,10900619,0,0,0,0,0
19,217,2589.99584370758,1,0,643201.540452027,643202.587481168,9,0,1,2,19,43651928,197040083,165934584,95023246,0,-2141100,0,0,21200409,0,0,0,20310419,0,0,41411709,31402009,40410809,11701519,30700119,20702009,20711909,21010219,0,20801109,31011309,40300019,0,31800109,0,21011819,31300809,0,0,11410919,30911309,21400209,0,0,0
19,218,999.69516613055,1,0,643206.328580293,643207.375578252,9,1,1,1,31,148384575,167547202,250268821,227769092,-2080101,10901919,31500409,10600509,0,0,20901209,40400109,32000319,0,10400809,31300109,31411609,30511909,11200409,30210219,12000419,10511719,21310809,41700919,20610719,21801119,11500209,40010219,20811009,30612009,41911809,41310909,30111219,41000319,10111809,0,21611609,21801409,21111409,40710409
19,219,507.59956962429,1,0,643209.563754484,643210.610782085,9,0,1,6,0,0,0,0,0,0,0,0,0,0,-21700001,0,0,0,0,0,0,0,0,0,0,0,0,0,0,0,0,0,0,0,0,0,0,0,0,0,0,0,0,0,0
19,220,621.4945045067,0,0,643212.30485053,643213.351876206,9,0,0,11,19,136725595,84304588,134733565,166004874,0,41800719,30601019,0,22011819,31210919,0,11101119,0,41111909,-1191061,0,0,0,0,30000209,12001409,0,0,0,41400519,41510609,11210009,0,0,30511319,10101109,0,21401019,0,10000609,20300409,31801309,0,40500309,42001219
19,221,843.350586015731,0,0,643215.104777079,643216.151785047,9,1,0,31,3,20410719,20400119,0,43731429,0,0,0,0,0,0,20410719,0,0,0,0,20400119,0,0,0,0,0,0,0,0,0,0,0,0,0,0,0,0,0,0,-2130010,0,41601419,0,0,0
19,222,479.549774201587,0,0,643218.151750401,643219.198767608,9,0,0,7,3,1000160,60521938,21810119,0,0,0,0,0,0,0,-1000160,0,0,0,0,0,0,0,0,40411119,20110819,0,0,0,0,0,0,0,0,21810119,0,0,0,0,0,0,0,0,0,0
19,223,554.367321776226,1,0,643220.692848063,643221.739872199,9,1,1,10,9,83121247,43381249,104003447,42502428,20510009,41310319,0,0,0,21300919,0,0,0,-3080140,0,0,0,40301109,0,0,0,0,0,0,0,0,31800309,30601819,41601319,0,0,0,0,0,10501409,32001019,0,0,0,0
19,224,502.397592063062,0,0,643223.386895335,643224.433916006,9,1,0,22,19,104613056,93032646,148537003,93012356,0,10001709,31500009,0,0,0,31511119,31600219,0,20410109,0,0,40511009,0,20610909,11500619,0,0,30201509,0,21911009,-1111090,21001719,10700219,10400119,31700219,21511119,20701209,20400219,21400219,0,0,0,0,30510709,0
19,225,415.443380130455,0,0,643225.951525276,643226.998551722,9,1,0,27,3,20411719,31000709,32980559,0,0,0,0,0,0,20411719,0,0,0,0,31000709,0,0,0,0,0,0,0,31910509,0,0,0,0,0,0,0,-1070050,0,0,0,0,0,0,0,0,0
19,226,543.751253397204,1,0,643228.457331642,643229.504360398,9,0,1,15,3,22311828,3200111,0,40701019,0,11311709,0,0,0,11000119,0,0,0,0,0,0,0,0,-3200111,0,0,0,0,0,0,0,0,0,0,0,0,0,0,0,0,0,0,40701019,0,0
19,227,502.503456315026,0,0,643231.139599493,643232.186638258,9,0,0,29,31,210169792,228666541,188238523,238039603,20810309,22010409,21012019,21600809,0,42011819,31201409,10411909,41111109,31110809,20010019,30701619,41801109,20612019,10710119,21910509,31310019,20500319,41110519,11001119,11201919,32001309,41111419,30401819,21410419,0,0,40910719,-2201000,32000309,40301719,40201909,21000919,40611809,20811219,0
19,228,487.795637920499,0,0,643233.751308235,643234.798330831,9,1,0,32,0,0,0,0,0,0,0,0,0,0,0,0,0,0,0,0,0,0,0,0,0,0,0,0,0,0,0,0,0,0,0,0,0,0,0,0,-20601501,0,0,0,0
19,229,665.628738934174,1,0,643236.398286714,643237.445308926,9,1,1,19,31,237859122,169417902,209106274,208846302,31311419,20611119,40810219,30101609,41301809,30410909,11500219,0,31811819,21401209,20201309,11910919,21000309,41600309,31400519,0,10101819,11801509,-3060081,40410709,31100009,0,30001619,30701819,20410909,31610319,21810809,21001019,41600609,40211709,21710209,11400709,20501319,41010219,0,11410509
19,230,500.930890906602,0,0,643239.257032604,643240.304050966,9,0,0,9,9,13572069,63004337,62903837,42211038,0,0,0,0,0,11400909,0,0,-2171160,0,0,0,0,21501419,20701309,0,0,20801609,0,0,0,0,21000509,30801309,11102019,0,0,0,0,0,0,20800219,21410819,0,0,0
19,231,689.989068428986,0,0,643241.904012239,643242.951086035,9,1,0,34,31,178457922,259952712,216750302,239920933,31811309,30111509,0,31810819,11310319,10211919,31400009,20600119,11201919,40801809,31002019,42011709,30400809,32011709,0,41401819,31111319,11211519,41312009,0,31301909,30300919,11811319,40810809,20901719,10201309,30110309,20201109,41712019,0,31211519,41211909,31002009,-1081130,31801219,41700019
19,232,785.997947212309,0,0,643244.645118678,643245.692143969,9,0,0,18,3,0,74521838,10601519,0,0,0,0,0,0,0,0,0,0,0,0,0,41001119,0,0,0,31410719,-2110000,0,0,0,0,0,0,10601519,0,0,0,0,0,0,0,0,0,0,0
19,233,472.605078364722,1,0,643247.633250717,643248.680285247,9,0,1,4,9,35151318,42223038,52411118,73014137,0,20500519,0,-3040090,0,11610709,0,0,0,0,11511119,30711919,0,0,0,0,0,0,0,0,41411109,0,11000009,0,0,0,0,0,30111419,0,0,0,21600709,0,0,21302009
19,234,580.652456264943,1,0,643250.233192357,643251.280213413,9,1,1,26,9,63811128,41611419,56013557,62913337,0,0,0,21811009,0,42000119,0,0,0,0,0,0,0,41611419,0,0,0,0,0,0,0,11601509,10400619,30011319,0,-4000110,0,0,0,30101109,0,0,0,21210409,11601819,0
19,235,695.447814883664,0,0,643282.938140568,643283.985165089,10,1,0,31,3,20410719,20400119,0,43731429,0,0,0,0,0,0,20410719,0,0,0,0,20400119,0,0,0,0,0,0,0,0,0,0,0,0,0,0,0,0,0,0,-2130010,0,41601419,0,0,0
19,236,485.773053020239,1,0,643285.749816126,643286.796849886,10,1,1,32,0,0,0,0,0,0,0,0,0,0,0,0,0,0,0,0,0,0,0,0,0,0,0,0,0,0,0,0,0,0,0,0,0,0,0,0,-20601501,0,0,0,0
19,237,426.725815981627,0,0,643288.349754301,643289.396782287,10,1,0,26,9,63811128,41611419,56013557,62913337,0,0,0,21811009,0,42000119,0,0,0,0,0,0,0,41611419,0,0,0,0,0,0,0,11601509,10400619,30011319,0,-4000110,0,0,0,30101109,0,0,0,21210409,11601819,0
19,238,368.695260840468,0,0,643290.890850424,643291.937880719,10,0,0,7,9,63311959,124723366,21601509,30513018,0,20401919,0,0,0,0,-2200031,40710009,0,0,41810919,0,0,0,21800809,0,30500919,30610719,0,0,0,0,0,21601509,0,0,0,0,0,20511309,10001709,0,0,0,0,0
19,239,534.826703486033,0,0,643293.490793218,643294.537806191,10,1,0,22,19,104613056,93032646,148537003,93012356,0,10001709,31500009,0,0,0,31511119,31600219,0,20410109,0,0,40511009,0,20610909,11500619,0,0,30201509,0,21911009,-1111090,21001719,10700219,10400119,31700219,21511119,20701209,20400219,21400219,0,0,0,0,30510709,0
19,240,518.217562814243,1,0,643296.161298587,643297.208315409,10,1,1,27,3,20411719,31000709,32980559,0,0,0,0,0,0,20411719,0,0,0,0,31000709,0,0,0,0,0,0,0,31910509,0,0,0,0,0,0,0,-1070050,0,0,0,0,0,0,0,0,0
19,241,514.116188744083,0,0,643298.808281302,643299.855311598,10,0,0,17,31,158027823,160115882,216658402,206960312,41311319,0,20501119,31100009,11801619,30411719,0,12000119,10901919,11710209,10300819,31101019,21810619,20310909,40201309,10700119,-3170060,10810819,0,30711309,40610519,30510919,40411209,11311209,11101119,20201609,31800509,20311119,41311309,21200619,10001709,11010109,40612019,0,40711909,21801519
19,242,982.179057435133,0,0,643301.514079507,643302.561112497,10,1,0,1,31,148384575,167547202,250268821,227769092,-2080101,10901919,31500409,10600509,0,0,20901209,40400109,32000319,0,10400809,31300109,31411609,30511909,11200409,30210219,12000419,10511719,21310809,41700919,20610719,21801119,11500209,40010219,20811009,30612009,41911809,41310909,30111219,41000319,10111809,0,21611609,21801409,21111409,40710409
19,243,531.889066332951,1,0,643304.584582027,643305.631609628,10,1,1,28,3,0,11511609,41410319,33501269,0,0,0,0,0,0,0,0,0,0,0,0,11511609,0,0,0,0,0,0,0,0,0,0,0,41410319,0,0,-2190050,0,0,0,0,0,0,31311219,0
19,244,380.814986885525,0,0,643307.337453259,643308.384478935,10,1,0,13,19,105743856,148040225,112403236,136306555,0,0,11310619,0,0,41711119,11611509,0,41110609,20601019,30611509,31011409,-3111051,0,30401419,0,10301809,22002009,40401409,0,0,11300709,40000009,0,20701109,0,0,20800909,0,0,22001019,41401909,31301409,0,20801309,0
19,245,612.883312744088,1,0,643309.784444134,643310.831464806,10,0,1,14,0,0,0,0,0,0,0,0,0,0,0,0,0,0,0,0,0,0,-32010301,0,0,0,0,0,0,0,0,0,0,0,0,0,0,0,0,0,0,0,0,0,0
19,246,753.752077347599,1,0,643312.478559544,643313.525507073,10,1,1,19,31,237859122,169417902,209106274,208846302,31311419,20611119,40810219,30101609,41301809,30410909,11500219,0,31811819,21401209,20201309,11910919,21000309,41600309,31400519,0,10101819,11801509,-3060081,40410709,31100009,0,30001619,30701819,20410909,31610319,21810809,21001019,41600609,40211709,21710209,11400709,20501319,41010219,0,11410509
19,247,515.70915710181,1,0,643315.466621135,643316.513679148,10,1,1,10,9,83121247,43381249,104003447,42502428,20510009,41310319,0,0,0,21300919,0,0,0,-3080140,0,0,0,40301109,0,0,0,0,0,0,0,0,31800309,30601819,41601319,0,0,0,0,0,10501409,32001019,0,0,0,0
19,248,558.261586935259,1,0,643318.101919899,643319.148876667,10,0,1,4,31,192186993,169247822,135247994,265448811,11000919,11000609,41810209,-2040191,32011409,10301209,31211919,21810419,31000109,30500109,31410819,10911409,0,21000419,11501219,31410619,11511919,21001309,31711109,31201019,30901909,20910819,0,0,10311919,10211219,0,20100209,30101509,11111119,41211419,30501209,40001009,40600919,40210809,11610609
19,249,625.977374962531,0,0,643320.725319135,643321.772330183,10,0,0,5,3,2181080,0,11401309,32813128,0,0,0,0,-2181080,0,0,0,0,0,0,0,0,0,0,0,0,0,0,0,0,11401309,0,0,0,0,0,0,11401909,0,21411219,0,0,0,0,0
19,250,551.066666492261,0,0,643323.536995848,643324.58400882,10,0,0,3,3,21362159,0,11500909,31601819,0,0,-1060150,20302009,0,0,0,0,0,0,0,0,0,0,0,0,0,0,0,0,0,0,0,11500909,0,0,0,0,0,0,31601819,0,0,0,0,0
19,251,650.382359861396,1,0,643326.148678412,643327.195704473,10,1,1,34,31,178457922,259952712,216750302,239920933,31811309,30111509,0,31810819,11310319,10211919,31400009,20600119,11201919,40801809,31002019,42011709,30400809,32011709,0,41401819,31111319,11211519,41312009,0,31301909,30300919,11811319,40810809,20901719,10201309,30110309,20201109,41712019,0,31211519,41211909,31002009,-1081130,31801219,41700019
19,252,518.334975931793,0,0,643329.042719833,643330.089742429,10,0,0,9,9,84886607,30711909,81912018,51812438,21501509,0,0,0,20300419,0,20401619,21512019,-1171041,0,0,0,0,0,30711909,0,0,0,0,0,0,41511709,40400309,0,0,0,0,0,0,0,31401719,0,0,0,0,20410719
19,253,1112.57457407191,1,0,643331.70146041,643332.748485701,10,0,1,2,3,3090091,10100719,0,33413618,0,-3090091,0,0,0,0,0,0,0,10100719,0,0,0,0,0,0,0,0,0,0,0,0,0,0,0,0,0,0,0,0,0,11602009,21811609,0,0,0
19,254,696.800952660851,0,0,643334.960194596,643336.007222967,10,1,0,16,9,63112937,44672278,102903347,10900619,0,41101409,0,0,0,12001019,0,10010509,0,0,10211219,31401019,0,0,0,-3060040,0,0,0,0,0,0,40901319,20501609,0,41500419,0,0,0,0,10900619,0,0,0,0,0
19,255,738.198499544524,0,0,643337.877759826,643338.924787042,10,1,0,20,19,103016675,146854104,107393547,154513846,0,40000219,30002019,0,11001009,0,11112019,0,10901409,31511719,41500819,11410009,10510419,0,40210519,0,0,11710619,0,-2070001,40611009,31010419,0,0,0,21900109,11802009,30801619,40210509,41900609,41601109,0,0,0,0,0
19,256,1338.10164337046,1,0,643340.771795087,643341.818815374,10,0,1,11,9,92823837,34191570,133226136,41500409,0,0,0,0,40211219,0,41901609,0,10711009,0,-4181051,0,0,0,0,30010519,0,0,0,31211809,0,40411309,0,20401709,0,0,41201309,0,0,41500409,0,0,0,0,0,0
19,257,494.414656655863,1,0,643344.324640218,643345.37166166,10,0,1,18,19,103435874,137744066,132014556,132333366,0,0,20410109,20712019,0,10000819,21811309,20100709,10400909,41811209,21900219,10900209,30201219,0,30910209,0,0,-2021001,40000509,40501819,0,31511619,0,20000609,0,0,0,30400419,0,30610019,0,0,0,0,30111919,41211009
19,258,660.817833966576,1,0,643347.077542631,643348.136087542,10,0,1,14,19,146558483,110734655,20111619,144625864,0,20411609,10211609,0,21510709,11510819,31200009,11112019,40601709,11610219,0,21310719,21310019,-4091080,10601709,41810909,0,0,0,0,0,0,0,0,0,0,20111619,0,0,30400209,0,11600709,30401319,31911709,30100209,10211709
19,259,651.513760327362,1,0,643349.936241555,643350.983262997,10,0,1,29,31,271467011,287237541,166127304,152355433,20600519,31111219,31210809,21901309,21011009,30910409,31911119,41710609,41100009,40900309,31501009,40901219,30300419,40101419,30611919,40810419,22010009,10100819,0,40711319,0,20601519,0,21301119,21411419,30701119,31400809,11400219,-3020040,12000009,42010309,20210819,12011809,41500309,0,10201919
19,260,443.677956820466,0,0,643352.783221113,643353.830248329,10,0,0,15,19,127327594,130515536,103732156,114124356,11701209,21301819,41301519,10602019,0,30410009,12011019,0,0,40810719,0,21300409,10812009,41600519,-4081161,11910719,0,0,10911219,0,40010519,0,21010409,0,0,0,31800009,0,41601109,40310109,0,20211819,0,12001319,0,0
19,261,438.784333178774,1,0,643359.135987404,643360.183038488,11,0,1,5,3,4020131,30701009,0,51202828,0,0,0,0,-4020131,0,0,0,0,0,0,0,0,30701009,0,0,0,0,0,0,0,0,0,0,0,0,0,0,0,0,0,10001709,0,0,0,41201119
19,262,485.423123463988,0,0,643361.665324509,643362.712342871,11,0,0,7,9,41731610,103534147,52703338,61203237,0,0,0,0,0,40711519,-1020091,0,0,0,31211119,0,42011709,30311319,0,0,0,0,0,41601319,0,11102019,0,0,0,0,0,0,0,0,0,20000119,10402009,30801109,0,0
19,263,590.427770046517,0,0,643364.253485574,643365.300503166,11,0,0,18,31,226037183,117617194,169837322,237600001,0,40701009,40610719,31201009,30301309,30511119,21701909,0,31010109,21810119,22011409,0,21811909,10010219,10101319,20010209,10710809,-1151201,11300219,41400819,11000819,11801209,0,11110309,10911009,31511919,40801019,30911409,30911209,40910119,20611909,31010009,21311709,11211209,20111509,30610919
19,264,518.886240082793,0,1,643367.08869264,643368.135717932,11,1,1,13,19,105743856,148040225,112403236,136306555,0,0,11310619,0,0,41711119,11611509,0,41110609,20601019,30611509,31011409,-3111051,0,30401419,0,10301809,22002009,40401409,0,0,11300709,40000009,0,20701109,0,0,20800909,0,0,22001019,41401909,31301409,0,20801309,0
19,265,491.347672650591,1,0,643369.700386754,643370.74741243,11,1,1,27,3,20411719,31000709,32980559,0,0,0,0,0,0,20411719,0,0,0,0,31000709,0,0,0,0,0,0,0,31910509,0,0,0,0,0,0,0,-1070050,0,0,0,0,0,0,0,0,0
19,266,495.102581917308,0,0,643372.312081252,643373.359106158,11,1,0,10,9,83121247,43381249,104003447,42502428,20510009,41310319,0,0,0,21300919,0,0,0,-3080140,0,0,0,40301109,0,0,0,0,0,0,0,0,31800309,30601819,41601319,0,0,0,0,0,10501409,32001019,0,0,0,0
19,267,503.876612056047,1,0,643375.029645403,643376.076670695,11,0,1,9,9,43533558,30600309,153135556,71022038,0,0,0,31101309,10311119,0,0,0,-2121130,0,0,0,0,0,0,30600309,0,0,0,0,0,40311709,0,40210219,40901709,0,31711919,0,0,0,0,40210119,30811919,0,0,0
19,268,689.669550862163,0,0,643377.617879995,643378.664879879,11,1,0,26,9,63811128,41611419,56013557,62913337,0,0,0,21811009,0,42000119,0,0,0,0,0,0,0,41611419,0,0,0,0,0,0,0,11601509,10400619,30011319,0,-4000110,0,0,0,30101109,0,0,0,21210409,11601819,0
19,269,681.070292834193,0,0,643380.382435947,643381.429456619,11,1,0,28,3,0,11511609,41410319,33501269,0,0,0,0,0,0,0,0,0,0,0,0,11511609,0,0,0,0,0,0,0,0,0,0,0,41410319,0,0,-2190050,0,0,0,0,0,0,31311219,0
19,270,470.134013914503,0,0,643383.182359802,643384.229373544,11,1,0,22,19,104613056,93032646,148537003,93012356,0,10001709,31500009,0,0,0,31511119,31600219,0,20410109,0,0,40511009,0,20610909,11500619,0,0,30201509,0,21911009,-1111090,21001719,10700219,10400119,31700219,21511119,20701209,20400219,21400219,0,0,0,0,30510709,0
19,271,561.374381300993,0,0,643385.829342901,643386.876362803,11,0,0,16,0,0,0,0,0,0,0,0,0,0,0,0,0,0,0,0,0,0,0,0,-31101791,0,0,0,0,0,0,0,0,0,0,0,0,0,0,0,0,0,0,0,0
19,272,538.384127779864,1,0,643388.488124669,643389.535124168,11,0,1,11,3,72512138,23800980,0,0,0,40610519,0,0,31901619,0,0,0,0,0,-3200071,0,0,20600909,0,0,0,0,0,0,0,0,0,0,0,0,0,0,0,0,0,0,0,0,0,0
19,273,623.19834169466,1,0,643391.252748759,643392.299735554,11,0,1,4,31,190765764,259964611,185855094,256339541,40711209,22001609,20100709,-4041091,30600309,31300409,10210409,0,31800019,21610119,30110209,32010619,40911009,11900309,21210509,40701709,30710119,30800009,31010609,30610819,40711719,31900119,0,0,0,21410219,30211609,41700809,30102019,31801309,20400819,40111209,10111919,30710019,10800619,40600819
19,274,535.987745737657,0,0,643394.064397754,643395.111414576,11,1,0,32,0,0,0,0,0,0,0,0,0,0,0,0,0,0,0,0,0,0,0,0,0,0,0,0,0,0,0,0,0,0,0,0,0,0,0,0,-20601501,0,0,0,0
19,275,657.705857302062,0,0,643396.699626456,643397.746689858,11,1,0,1,31,148384575,167547202,250268821,227769092,-2080101,10901919,31500409,10600509,0,0,20901209,40400109,32000319,0,10400809,31300109,31411609,30511909,11200409,30210219,12000419,10511719,21310809,41700919,20610719,21801119,11500209,40010219,20811009,30612009,41911809,41310909,30111219,41000319,10111809,0,21611609,21801409,21111409,40710409
19,276,582.556473091245,1,0,643399.429004674,643400.475992239,11,0,1,14,31,198369541,128626214,228137522,247330002,30101219,21411209,20711719,20800209,41601909,21911019,10810019,10910719,20111519,30700619,0,20800809,22010319,-4111120,20100209,10801819,0,20101319,30911719,11810919,20801009,0,31100819,31900519,40800609,30011609,30800319,41210619,40212009,41101719,10600509,40101309,21500909,40801709,0,11801219
19,277,417.269635014236,0,0,643402.111232105,643403.158255471,11,0,0,15,19,165436803,64755118,156245255,125415366,21701019,40510019,0,21100419,30111719,20711109,0,11100909,20201609,0,0,41711709,0,0,-1121071,11311419,10610919,0,0,0,32011909,30710909,0,31300309,0,41511509,20710619,0,0,0,30301619,0,31811819,0,31901319,31400609
19,278,555.134164169431,1,0,643404.664106493,643405.711127164,11,1,1,20,19,103016675,146854104,107393547,154513846,0,40000219,30002019,0,11001009,0,11112019,0,10901409,31511719,41500819,11410009,10510419,0,40210519,0,0,11710619,0,-2070001,40611009,31010419,0,0,0,21900109,11802009,30801619,40210509,41900609,41601109,0,0,0,0,0
19,279,591.730862855911,1,0,643407.428733277,643408.475755103,11,1,1,34,31,178457922,259952712,216750302,239920933,31811309,30111509,0,31810819,11310319,10211919,31400009,20600119,11201919,40801809,31002019,42011709,30400809,32011709,0,41401819,31111319,11211519,41312009,0,31301909,30300919,11811319,40810809,20901719,10201309,30110309,20201109,41712019,0,31211519,41211909,31002009,-1081130,31801219,41700019
19,280,649.464228074066,0,0,643410.216881176,643411.263907622,11,0,0,2,19,143459813,121722776,126503566,121523756,11710509,-3011030,21200109,0,31312019,21201519,11511209,21801809,21711609,0,0,30400319,0,30410019,30602019,0,0,30310419,0,11901319,31300109,0,0,42001219,0,0,41300919,40901119,0,0,0,20010519,40111709,20500409,0,0
19,281,736.640562536195,1,0,643413.028570592,643414.075590109,11,1,1,31,3,20410719,20400119,0,43731429,0,0,0,0,0,0,20410719,0,0,0,0,20400119,0,0,0,0,0,0,0,0,0,0,0,0,0,0,0,0,0,0,-2130010,0,41601419,0,0,0
19,282,714.082235121168,0,0,643415.85228311,643416.899033539,11,1,0,16,9,63112937,44672278,102903347,10900619,0,41101409,0,0,0,12001019,0,10010509,0,0,10211219,31401019,0,0,0,-3060040,0,0,0,0,0,0,40901319,20501609,0,41500419,0,0,0,0,10900619,0,0,0,0,0
19,283,900.257825152949,1,0,643418.746051978,643419.793073419,11,0,1,3,3,4170101,32001909,40111419,20810419,0,0,-4170101,0,0,0,0,0,0,0,0,32001909,0,0,0,0,0,0,0,40111419,0,0,0,0,0,0,0,0,0,0,0,0,0,20810419,0,0
19,284,490.764456801116,0,0,643421.875381152,643422.92243955,11,1,0,19,31,237859122,169417902,209106274,208846302,31311419,20611119,40810219,30101609,41301809,30410909,11500219,0,31811819,21401209,20201309,11910919,21000309,41600309,31400519,0,10101819,11801509,-3060081,40410709,31100009,0,30001619,30701819,20410909,31610319,21810809,21001019,41600609,40211709,21710209,11400709,20501319,41010219,0,11410509
19,285,450.180332409218,1,0,643424.58129985,643425.628267782,11,0,1,17,9,0,66344397,73823837,72911727,0,0,0,0,0,0,0,0,0,31000609,0,21501719,0,0,0,10800919,-3041150,0,0,21200209,42011619,0,0,10612009,0,0,0,0,31700109,30811609,10400009,0,0,0,0,0
19,286,430.365621810779,1,0,643427.145816998,643428.192838824,11,0,1,29,19,137146084,85515766,105911866,158925585,11400619,31900809,0,0,0,21911319,40111119,11411509,20410709,22000219,11501719,0,0,0,0,20712019,0,31301809,11400219,0,21300319,0,0,32000419,0,41210909,0,0,-2200130,31501209,0,21901819,21101209,0,40510109,41711109
19,287,476.331115467474,1,0,643432.9338752,643433.98091204,12,1,1,34,31,178457922,259952712,216750302,239920933,31811309,30111509,0,31810819,11310319,10211919,31400009,20600119,11201919,40801809,31002019,42011709,30400809,32011709,0,41401819,31111319,11211519,41312009,0,31301909,30300919,11811319,40810809,20901719,10201309,30110309,20201109,41712019,0,31211519,41211909,31002009,-1081130,31801219,41700019
19,288,740.247646695934,1,0,643435.627929786,643436.674948918,12,1,1,19,31,237859122,169417902,209106274,208846302,31311419,20611119,40810219,30101609,41301809,30410909,11500219,0,31811819,21401209,20201309,11910919,21000309,41600309,31400519,0,10101819,11801509,-3060081,40410709,31100009,0,30001619,30701819,20410909,31610319,21810809,21001019,41600609,40211709,21710209,11400709,20501319,41010219,0,11410509
19,289,496.807189076208,1,0,643438.510228743,643439.557227856,12,1,1,10,9,83121247,43381249,104003447,42502428,20510009,41310319,0,0,0,21300919,0,0,0,-3080140,0,0,0,40301109,0,0,0,0,0,0,0,0,31800309,30601819,41601319,0,0,0,0,0,10501409,32001019,0,0,0,0
19,290,518.215638003312,0,0,643441.074832891,643442.121846633,12,1,0,28,3,0,11511609,41410319,33501269,0,0,0,0,0,0,0,0,0,0,0,0,11511609,0,0,0,0,0,0,0,0,0,0,0,41410319,0,0,-2190050,0,0,0,0,0,0,31311219,0
19,291,941.764315939508,1,0,643443.851217538,643444.898243599,12,1,1,13,19,105743856,148040225,112403236,136306555,0,0,11310619,0,0,41711119,11611509,0,41110609,20601019,30611509,31011409,-3111051,0,30401419,0,10301809,22002009,40401409,0,0,11300709,40000009,0,20701109,0,0,20800909,0,0,22001019,41401909,31301409,0,20801309,0
19,292,622.398007893935,0,0,643446.874667435,643447.921694651,12,0,0,14,9,125533666,45412599,21001609,31711618,0,11210519,41210119,31701319,41411709,0,0,0,0,10900519,0,0,0,-3100161,31411919,0,0,0,0,0,0,0,21001609,0,0,0,0,0,0,11410409,0,0,0,0,0,20301209
19,293,677.225687890314,1,0,643449.721668935,643450.768670744,12,1,1,27,3,20411719,31000709,32980559,0,0,0,0,0,0,20411719,0,0,0,0,31000709,0,0,0,0,0,0,0,31910509,0,0,0,0,0,0,0,-1070050,0,0,0,0,0,0,0,0,0
19,294,611.292269080877,0,0,643452.521566613,643453.568586899,12,1,0,26,9,63811128,41611419,56013557,62913337,0,0,0,21811009,0,42000119,0,0,0,0,0,0,0,41611419,0,0,0,0,0,0,0,11601509,10400619,30011319,0,-4000110,0,0,0,30101109,0,0,0,21210409,11601819,0
19,295,1132.4262409471,0,0,643455.321483923,643456.368517683,12,0,0,11,31,157036723,159955583,231330151,196825032,10901019,10101919,11600909,21310119,40611619,0,20900819,0,41610319,40401519,-4010100,11000219,11611409,10010409,31500109,31011109,0,20410709,41401419,10100219,11801709,40900719,20711419,21711519,32001019,21100109,31602019,30200309,21301919,11200319,0,31500819,40100019,41111219,10900409,10510019
19,296,581.392736174166,0,0,643458.662571653,643459.70959194,12,0,0,15,19,144425694,76044128,215158731,32001919,40111119,40701119,0,21101009,20800619,11001309,10710519,0,0,40400309,0,11611819,0,0,-3130181,0,20901819,0,40910509,30100019,20210319,10310509,20101509,21201619,10011219,31811509,30501519,0,0,0,32001919,0,0,0,0,0
19,297,405.195334344171,1,0,643461.356608531,643462.403632282,12,1,1,16,9,63112937,44672278,102903347,10900619,0,41101409,0,0,0,12001019,0,10010509,0,0,10211219,31401019,0,0,0,-3060040,0,0,0,0,0,0,40901319,20501609,0,41500419,0,0,0,0,10900619,0,0,0,0,0
19,298,616.050001583062,0,0,643463.897716587,643464.944737259,12,0,0,5,9,46134078,84712737,31001838,41802138,0,0,0,30801909,-4121160,0,11211009,0,0,0,11601509,0,0,0,0,41810119,0,31301109,0,0,0,20200619,0,0,10801219,0,0,0,0,0,0,0,0,11000319,0,30801819
19,299,442.47841858305,1,0,643466.568223496,643467.615244938,12,1,1,22,19,104613056,93032646,148537003,93012356,0,10001709,31500009,0,0,0,31511119,31600219,0,20410109,0,0,40511009,0,20610909,11500619,0,0,30201509,0,21911009,-1111090,21001719,10700219,10400119,31700219,21511119,20701209,20400219,21400219,0,0,0,0,30510709,0
19,300,585.972231812775,0,0,643469.191685096,643470.238698453,12,0,0,29,19,63632747,145356584,122634646,157537284,20012019,0,0,0,31710119,0,0,0,11910609,10412019,40910609,20010519,30311109,0,0,0,11900919,31811409,0,31210509,10901909,0,0,0,40410919,0,40111309,0,-1181010,40610409,0,21311709,41400109,21110819,11611609,20311619
19,301,642.337060766295,0,0,643472.003364119,643473.050395569,12,0,0,2,31,188575033,194457274,221957911,190270931,40610719,-4130120,0,30000619,10510009,10300109,11210419,40401919,41411119,40111519,41211909,0,30510609,31210709,0,10610509,40802019,0,21701209,41900109,21911419,21911809,30910619,11700309,40410909,20411019,11100509,32011309,20202009,11611719,20001509,41610419,21210109,12011119,10801619,20811119
19,302,549.641541088931,1,0,643474.709169638,643475.756191079,12,0,1,3,9,32751490,80426366,50201318,61401938,31700319,0,-1051171,0,0,0,0,0,0,0,0,0,40111819,20301509,0,0,10011619,10001419,0,0,30200009,0,0,0,20001309,0,0,40001919,0,0,0,21400019,0,0,0,0
19,303,624.779376434162,1,0,643477.414979777,643478.462001988,12,0,1,17,19,134336275,126057196,207534974,73234136,10100809,0,41301209,0,0,0,40712019,11811719,30410519,41111609,0,0,40811209,0,31511919,0,-2121050,10501409,0,0,0,41900709,10900519,41400209,40111309,41711619,31510609,0,0,20210909,0,10711409,0,20410209,21901609,0
19,304,428.314934833907,0,0,643480.238464012,643481.285450037,12,0,0,13,0,0,0,0,0,0,0,0,0,0,0,0,0,0,0,0,0,-21301401,0,0,0,0,0,0,0,0,0,0,0,0,0,0,0,0,0,0,0,0,0,0,0
19,305,607.742159161717,1,0,643482.861880186,643483.908908942,12,0,1,4,3,3121140,0,61131837,0,0,0,0,-3121140,0,0,0,0,0,0,0,0,0,0,0,0,0,0,0,0,0,10510919,40210209,0,0,0,10410709,0,0,0,0,0,0,0,0,0
19,306,456.968734040856,0,0,643485.56768994,643486.614714846,12,1,0,20,19,103016675,146854104,107393547,154513846,0,40000219,30002019,0,11001009,0,11112019,0,10901409,31511719,41500819,11410009,10510419,0,40210519,0,0,11710619,0,-2070001,40611009,31010419,0,0,0,21900109,11802009,30801619,40210509,41900609,41601109,0,0,0,0,0
19,307,837.160413735546,1,0,643488.226438987,643489.273455809,12,1,1,31,3,20410719,20400119,0,43731429,0,0,0,0,0,0,20410719,0,0,0,0,20400119,0,0,0,0,0,0,0,0,0,0,0,0,0,0,0,0,0,0,-2130010,0,41601419,0,0,0
19,308,684.037956991233,0,0,643491.179294358,643492.226330043,12,0,0,18,31,238845312,126146255,169857812,196862511,0,21200309,12010209,40000519,41700019,11301709,40511719,30310019,41810809,30110919,0,10200219,30611209,21901519,0,10310619,21911709,-1100061,41600209,11011509,10001419,11711919,0,10710309,11910419,41000609,31911419,21011809,30500909,41300019,20811209,10211109,20401709,10201819,10612019,31811909
19,309,780.218913336284,1,0,643493.979215133,643495.026238499,12,1,1,1,31,148384575,167547202,250268821,227769092,-2080101,10901919,31500409,10600509,0,0,20901209,40400109,32000319,0,10400809,31300109,31411609,30511909,11200409,30210219,12000419,10511719,21310809,41700919,20610719,21801119,11500209,40010219,20811009,30612009,41911809,41310909,30111219,41000319,10111809,0,21611609,21801409,21111409,40710409
19,310,572.187164681964,0,0,643496.82619392,643497.873208818,12,0,0,9,3,43801320,0,41101619,10910909,0,0,0,0,0,41701219,0,0,-2100101,0,0,0,0,0,0,0,0,0,0,0,0,0,0,0,0,0,41101619,0,0,10910909,0,0,0,0,0,0
19,311,535.74137063697,0,0,643499.602584342,643500.649607323,12,1,0,32,0,0,0,0,0,0,0,0,0,0,0,0,0,0,0,0,0,0,0,0,0,0,0,0,0,0,0,0,0,0,0,0,0,0,0,0,-20601501,0,0,0,0
19,312,668.68879343383,1,0,643502.249573985,643503.296640467,12,0,1,7,3,3191140,72403228,0,30311209,0,0,0,0,0,0,-3191140,0,0,0,0,0,0,0,41601219,0,0,30802009,0,0,0,0,0,0,0,0,0,30311209,0,0,0,0,0,0,0,0
19,313,1576.04832318611,0,0,643538.083853681,643539.130869733,13,0,0,4,31,193349013,237281092,200168712,186834293,11511109,30001509,12010509,-3090121,31811909,32000409,41101619,10611609,21210219,20611809,40010309,40612009,30211609,41511309,31401919,11511919,0,21410209,12011309,32010409,20600219,0,40812019,20710519,10411209,41601209,22011819,30800919,0,40210319,21711009,31101009,30700319,21100409,11210309,0
19,314,448.202788014896,1,0,643541.88373596,643542.930761251,13,0,1,9,31,104459465,206350792,236958422,249561741,0,0,40601619,10011819,10511009,10911719,20811619,10611609,-1000071,31300609,30111619,10010819,0,41411909,10802009,31012009,11501009,40200809,20801219,41311709,30010119,40700319,40811919,30611709,22010909,10700519,0,30500809,11711409,41200019,20911919,30601519,30411819,10711819,42000909,31511519
19,315,538.04305230733,0,0,643544.424835932,643545.471865843,13,1,0,20,19,103016675,146854104,107393547,154513846,0,40000219,30002019,0,11001009,0,11112019,0,10901409,31511719,41500819,11410009,10510419,0,40210519,0,0,11710619,0,-2070001,40611009,31010419,0,0,0,21900109,11802009,30801619,40210509,41900609,41601109,0,0,0,0,0
19,316,623.044357285835,0,0,643547.118878969,643548.16590503,13,0,0,2,31,210106503,136055674,224367692,237939531,41210209,-2070171,21701019,40810109,20900919,20201519,40501519,11011019,11700019,0,41810919,10811909,10310209,0,0,41711519,20511009,10900109,20300009,40300409,31512009,20811609,0,30110719,20610109,40112019,20610809,42001809,11010619,31001819,30101019,20311619,20800119,30601409,31900109,20211009
19,317,420.444407965988,1,0,643549.942329328,643550.989352309,13,0,1,3,9,33863687,20402009,74703437,51202138,0,0,-1051050,0,0,11201619,10310309,11300709,0,0,0,0,0,0,0,0,20402009,0,0,21700319,0,0,22001909,31001209,0,0,0,0,0,0,40502019,0,0,0,10700119,0
19,318,522.055238601752,0,0,643552.612843936,643553.659859603,13,0,0,14,3,20700409,1120070,41011119,40210909,0,0,20700409,0,0,0,0,0,0,0,0,0,0,-1120070,0,0,0,0,0,0,0,0,0,41011119,0,0,0,0,0,0,40210909,0,0,0,0,0
19,319,967.004281352274,1,0,643555.212757859,643556.259790849,13,1,1,26,9,63811128,41611419,56013557,62913337,0,0,0,21811009,0,42000119,0,0,0,0,0,0,0,41611419,0,0,0,0,0,0,0,11601509,10400619,30011319,0,-4000110,0,0,0,30101109,0,0,0,21210409,11601819,0
19,320,495.517569826916,1,0,643558.330326476,643559.377348688,13,0,1,11,19,84623876,120777404,115713765,93932356,31801019,0,0,0,10411719,0,11900119,0,30511019,0,-4130140,11110909,11511609,20301509,0,31500219,21211809,21011209,0,0,31100419,0,21300409,0,41700009,11311619,10301309,0,20700519,0,0,31210809,21810909,20210119,0,0
19,321,472.77792589739,1,0,643560.894964886,643561.941986713,13,1,1,28,3,0,11511609,41410319,33501269,0,0,0,0,0,0,0,0,0,0,0,0,11511609,0,0,0,0,0,0,0,0,0,0,0,41410319,0,0,-2190050,0,0,0,0,0,0,31311219,0
19,322,695.060159196146,0,0,643563.50665746,643564.553674282,13,0,0,5,9,116711697,40500509,51310738,43511838,40600009,20710819,30500709,0,-3090051,0,0,0,21810109,40500509,0,0,0,0,0,0,0,0,40110719,0,0,0,0,11200019,0,0,0,0,0,0,31801719,0,11710119,0,0,0
19,323,493.012628867291,1,0,643566.341896093,643567.388893667,13,1,1,16,9,63112937,44672278,102903347,10900619,0,41101409,0,0,0,12001019,0,10010509,0,0,10211219,31401019,0,0,0,-3060040,0,0,0,0,0,0,40901319,20501609,0,41500419,0,0,0,0,10900619,0,0,0,0,0
19,324,584.969023591839,1,0,643569.094726903,643570.1418442,13,1,1,34,31,178457922,259952712,216750302,239920933,31811309,30111509,0,31810819,11310319,10211919,31400009,20600119,11201919,40801809,31002019,42011709,30400809,32011709,0,41401819,31111319,11211519,41312009,0,31301909,30300919,11811319,40810809,20901719,10201309,30110309,20201109,41712019,0,31211519,41211909,31002009,-1081130,31801219,41700019
19,325,433.173142257147,1,1,643571.800537812,643572.847561563,13,0,0,29,3,0,41310009,61422528,3020071,0,0,0,0,0,0,0,0,0,0,0,0,41310009,0,0,0,0,0,0,0,21111219,0,0,40311309,0,0,0,0,-3020071,0,0,0,0,0,0,0
19,326,638.38736130856,0,0,643574.40045135,643575.447482416,13,0,0,30,0,0,0,0,0,0,0,0,0,0,0,0,0,0,0,0,0,0,0,0,0,0,0,0,0,0,0,0,0,0,0,0,0,0,-42000501,0,0,0,0,0,0
19,327,593.219506903552,0,0,643577.094495542,643578.141523913,13,1,0,31,3,20410719,20400119,0,43731429,0,0,0,0,0,0,20410719,0,0,0,0,20400119,0,0,0,0,0,0,0,0,0,0,0,0,0,0,0,0,0,0,-2130010,0,41601419,0,0,0
19,328,637.506185797974,1,0,643579.765012075,643580.812029282,13,0,1,18,19,83635585,94313107,164236365,127723474,10601619,10601819,30010009,21410419,0,0,11011719,0,0,0,41800609,21110009,30201419,0,0,0,0,-1201070,21000609,0,30811219,0,0,30112019,0,41610909,40701609,10510319,41810309,0,11500109,21900809,30300719,0,11701209,0
19,329,523.29981746152,0,0,643582.494349488,643583.54136862,13,1,0,19,31,237859122,169417902,209106274,208846302,31311419,20611119,40810219,30101609,41301809,30410909,11500219,0,31811819,21401209,20201309,11910919,21000309,41600309,31400519,0,10101819,11801509,-3060081,40410709,31100009,0,30001619,30701819,20410909,31610319,21810809,21001019,41600609,40211709,21710209,11400709,20501319,41010219,0,11410509
19,330,653.853937983513,0,0,643585.117594785,643586.164836764,13,0,0,7,9,26122278,10400609,21822038,93926956,0,11211809,0,0,0,0,-4100150,0,10810319,10400609,0,0,0,0,0,0,0,0,0,11610519,0,10211519,0,0,0,0,0,20212019,0,30912009,0,0,0,0,21701919,21101009
19,331,729.271254851483,1,0,643587.98830945,643589.035328582,13,0,1,15,19,31523228,186377255,165934684,154725365,0,0,0,0,11411609,0,20111619,0,0,41200909,31401109,0,40502009,0,-1071181,20300209,20100019,31801819,40810309,10801419,30600609,0,12010319,0,0,40811919,30900109,41700119,0,30102009,31610819,31301809,0,0,20010609,0
19,332,521.960923215374,1,0,643590.976460352,643592.023484488,13,1,1,22,19,104613056,93032646,148537003,93012356,0,10001709,31500009,0,0,0,31511119,31600219,0,20410109,0,0,40511009,0,20610909,11500619,0,0,30201509,0,21911009,-1111090,21001719,10700219,10400119,31700219,21511119,20701209,20400219,21400219,0,0,0,0,30510709,0
19,333,840.582331758924,1,0,643593.705789296,643594.752818436,13,1,1,1,31,148384575,167547202,250268821,227769092,-2080101,10901919,31500409,10600509,0,0,20901209,40400109,32000319,0,10400809,31300109,31411609,30511909,11200409,30210219,12000419,10511719,21310809,41700919,20610719,21801119,11500209,40010219,20811009,30612009,41911809,41310909,30111219,41000319,10111809,0,21611609,21801409,21111409,40710409
19,334,590.720725245774,0,0,643596.705704989,643597.752726816,13,1,0,13,19,105743856,148040225,112403236,136306555,0,0,11310619,0,0,41711119,11611509,0,41110609,20601019,30611509,31011409,-3111051,0,30401419,0,10301809,22002009,40401409,0,0,11300709,40000009,0,20701109,0,0,20800909,0,0,22001019,41401909,31301409,0,20801309,0
19,335,528.423647745512,0,0,643599.435043942,643600.482064614,13,1,0,10,9,83121247,43381249,104003447,42502428,20510009,41310319,0,0,0,21300919,0,0,0,-3080140,0,0,0,40301109,0,0,0,0,0,0,0,0,31800309,30601819,41601319,0,0,0,0,0,10501409,32001019,0,0,0,0
19,336,716.834321036004,1,0,643602.199668416,643603.246691783,13,1,1,27,3,20411719,31000709,32980559,0,0,0,0,0,0,20411719,0,0,0,0,31000709,0,0,0,0,0,0,0,31910509,0,0,0,0,0,0,0,-1070050,0,0,0,0,0,0,0,0,0
19,337,621.951068169437,0,0,643605.058414306,643606.105442292,13,0,0,17,3,10101309,24170199,0,40111019,0,0,0,0,10101309,0,0,0,0,0,20110019,0,0,0,0,0,-4060180,0,0,0,0,0,0,0,0,0,0,0,0,0,0,0,0,40111019,0,0
19,338,759.131521685049,1,0,643607.917157116,643608.964171628,13,1,1,32,0,0,0,0,0,0,0,0,0,0,0,0,0,0,0,0,0,0,0,0,0,0,0,0,0,0,0,0,0,0,0,0,0,0,0,0,-20601501,0,0,0,0
19,339,1118.35437791888,1,0,643614.222851535,643615.269882601,14,0,1,29,9,52100628,74813727,70802818,54883019,0,40500319,0,0,11600309,0,0,0,0,0,0,0,21101609,0,32011109,0,0,21701009,0,40400809,0,0,0,0,30402009,0,0,21900719,-2171081,0,0,0,30811219,0,0,0
19,340,609.099146560766,0,0,643617.505116076,643618.552136748,14,1,0,32,0,0,0,0,0,0,0,0,0,0,0,0,0,0,0,0,0,0,0,0,0,0,0,0,0,0,0,0,0,0,0,0,0,0,0,0,-20601501,0,0,0,0
19,341,915.447999723256,1,0,643620.222689467,643621.269710138,14,0,1,7,31,169076552,207647313,239940232,249258192,12000819,20410219,30110319,20311309,20400519,31600819,-2141010,21800119,10301419,22010909,0,20410019,41512019,41001019,30901619,31011409,20800319,0,31501919,31601309,41510519,20711919,11501909,30311819,31300419,41500419,0,0,41310809,21800109,42011209,31101509,40601009,20211519,22011319,30210709
19,342,819.312468753196,0,0,643623.199069032,643624.246084699,14,1,0,34,31,178457922,259952712,216750302,239920933,31811309,30111509,0,31810819,11310319,10211919,31400009,20600119,11201919,40801809,31002019,42011709,30400809,32011709,0,41401819,31111319,11211519,41312009,0,31301909,30300919,11811319,40810809,20901719,10201309,30110309,20201109,41712019,0,31211519,41211909,31002009,-1081130,31801219,41700019
19,343,569.780003861524,1,0,643626.081349125,643627.128379806,14,1,1,1,31,148384575,167547202,250268821,227769092,-2080101,10901919,31500409,10600509,0,0,20901209,40400109,32000319,0,10400809,31300109,31411609,30511909,11200409,30210219,12000419,10511719,21310809,41700919,20610719,21801119,11500209,40010219,20811009,30612009,41911809,41310909,30111219,41000319,10111809,0,21611609,21801409,21111409,40710409
19,344,508.391049341299,0,0,643628.810665365,643629.85770336,14,1,0,13,19,105743856,148040225,112403236,136306555,0,0,11310619,0,0,41711119,11611509,0,41110609,20601019,30611509,31011409,-3111051,0,30401419,0,10301809,22002009,40401409,0,0,11300709,40000009,0,20701109,0,0,20800909,0,0,22001019,41401909,31301409,0,20801309,0
19,345,539.990954799578,1,0,643631.387077806,643632.434098093,14,1,1,10,9,83121247,43381249,104003447,42502428,20510009,41310319,0,0,0,21300919,0,0,0,-3080140,0,0,0,40301109,0,0,0,0,0,0,0,0,31800309,30601819,41601319,0,0,0,0,0,10501409,32001019,0,0,0,0
19,346,577.305220649578,0,0,643634.092927981,643635.139899378,14,1,0,27,3,20411719,31000709,32980559,0,0,0,0,0,0,20411719,0,0,0,0,31000709,0,0,0,0,0,0,0,31910509,0,0,0,0,0,0,0,-1070050,0,0,0,0,0,0,0,0,0
19,347,487.690543523058,1,0,643636.86929184,643637.916295958,14,1,1,22,19,104613056,93032646,148537003,93012356,0,10001709,31500009,0,0,0,31511119,31600219,0,20410109,0,0,40511009,0,20610909,11500619,0,0,30201509,0,21911009,-1111090,21001719,10700219,10400119,31700219,21511119,20701209,20400219,21400219,0,0,0,0,30510709,0
