sub_id,Trial,RT,Resp,Error,Fix_onset,Disp_onset,block,repeat,tid,tloc,d_setsize,quad1,quad2,quad3,quad4,loc1,loc2,loc3,loc4,loc5,loc6,loc7,loc8,loc9,loc10,loc11,loc12,loc13,loc14,loc15,loc16,loc17,loc18,loc19,loc20,loc21,loc22,loc23,loc24,loc25,loc26,loc27,loc28,loc29,loc30,loc31,loc32,loc33,loc34,loc35,loc36
12,1,584.574830252677,1,0,2268034.8838961,2268035.93096643,1,1,1,2,3,4171161,31801809,52613628,0,0,-4171161,0,0,0,0,0,0,0,0,31801809,0,0,0,0,0,0,0,0,20811909,0,0,31801719,0,0,0,0,0,0,0,0,0,0,0,0,0
12,2,800.270381849259,0,0,2268037.53099776,2268038.57805847,1,1,0,32,19,75914966,134046655,125735865,70175846,0,12002019,11701309,0,11711019,0,40500619,0,0,10411909,11611609,40200719,0,0,40811109,31011309,0,0,0,0,11000309,0,21611909,11011909,42010519,0,40101219,10911909,11800619,0,11200619,-3150171,21601009,11511519,0,0
12,3,412.993880454451,1,0,2268040.42514428,2268041.47220537,1,0,1,9,3,23741190,20701119,31510609,0,0,0,0,20601009,0,0,0,0,-3140181,0,0,0,0,0,0,0,0,20701119,0,0,0,0,0,0,0,31510609,0,0,0,0,0,0,0,0,0,0
12,4,487.491140607744,1,1,2268042.94282477,2268043.9898847,1,1,0,18,3,40211319,12900749,0,20402009,0,0,0,0,40211319,0,0,0,0,0,11810609,0,0,0,0,0,0,-1090140,0,0,0,0,0,0,0,0,0,0,0,0,0,0,0,20402009,0,0
12,5,527.138270437717,0,0,2268045.48402752,2268046.531089,1,1,0,6,0,0,0,0,0,0,0,0,0,0,-10210801,0,0,0,0,0,0,0,0,0,0,0,0,0,0,0,0,0,0,0,0,0,0,0,0,0,0,0,0,0,0
12,6,540.037542115897,1,0,2268048.0840577,2268049.13111687,1,1,1,14,31,308650731,228898972,185145493,186416393,30601219,20000119,41301909,31310709,32001219,40501609,41411009,30311819,41211119,31911009,41301719,41310309,20401719,-2140150,30201019,30910609,20310619,10411819,20110219,30600119,10011409,41100209,31212009,10500719,0,41610809,0,41100319,0,40900109,20101809,20710919,0,31400509,21702009,10500719
12,7,463.987349066883,0,0,2268050.77819891,2268051.82532429,1,0,0,13,3,11410519,15542980,40712019,0,11410519,0,0,0,0,0,0,0,0,0,0,0,-4141171,0,0,0,0,11401809,0,0,40712019,0,0,0,0,0,0,0,0,0,0,0,0,0,0,0
12,8,456.059463322163,0,0,2268053.37823024,2268054.42532329,1,0,0,22,9,42513218,20801019,64702687,52820947,0,0,0,0,0,0,21611309,0,20901909,0,0,0,0,20801019,0,0,0,0,21701109,0,20710119,-1091040,0,0,21200419,0,0,0,0,0,30410219,10510219,0,11900509,0,0
12,9,418.306726496667,1,0,2268055.95473238,2268057.00180002,1,1,1,10,9,131533446,56272178,30000919,10200309,0,0,30310209,0,0,30811509,30010019,40401709,0,-3040031,0,0,11411009,0,11010219,30810919,0,0,0,0,0,0,0,0,0,0,30000919,0,0,0,0,0,0,0,10200309,0
12,10,549.460615962744,1,0,2268058.46064615,2268059.50770609,1,0,1,27,9,81811728,0,66393747,94803566,0,0,0,41411309,40400419,0,0,0,0,0,0,0,0,0,0,0,0,0,0,11700009,0,0,0,0,10510519,42012019,-2171200,0,11601219,11001019,0,30500109,0,41701219,0,0
12,11,611.606404185295,1,0,2268061.07242957,2268062.11949721,1,0,1,24,31,240577511,198247002,138478804,148845403,40310709,21101309,11710509,20810919,31912009,31410209,11101309,40410119,31810419,22000609,31311209,10700219,21710709,40601009,30110319,11501309,0,30311619,11911619,20811909,10401119,0,42001319,-1140191,11900019,10001819,30310809,10801109,10100609,0,31610519,0,41910119,22010709,10811019,21601319
12,12,568.541206419468,0,0,2268063.82541013,2268064.87247662,1,1,0,31,3,10810519,41401609,0,31281110,0,0,0,10810519,0,0,0,0,0,0,0,0,0,0,41401609,0,0,0,0,0,0,0,0,0,0,0,0,0,0,0,-1170091,30111019,0,0,0,0
12,13,582.004446070641,0,0,2268066.64896135,2268067.69602437,1,0,0,34,9,83102247,61613328,52800328,33131928,31501719,0,0,0,0,20100219,0,31500309,0,0,0,0,0,0,0,0,31211719,30401609,21000309,0,0,0,31800019,0,0,0,0,0,0,0,20910819,0,10210019,-2011090,0,0
12,14,686.617587227374,1,0,2268069.47253182,2268070.51959176,1,1,1,35,19,155745875,176833354,101603727,117862295,0,0,31311219,21910519,40801419,0,41511509,20211209,0,31110409,0,41401009,0,0,30710109,31901109,31700709,10010009,30001909,0,0,31201309,0,0,0,0,40400509,10110509,0,0,0,20010309,21800119,20400009,-4030040,41511309
12,15,485.548242926598,1,0,2268072.22549698,2268073.27256847,1,0,1,17,19,193226164,150105405,156016674,42412528,40601109,0,0,40100509,31212009,40010309,0,30300219,11002009,0,31910119,31800709,0,41711409,0,31400609,-2071040,11211519,0,0,11701309,11000709,40301619,40201619,0,41000709,11810709,0,30811109,11601419,0,0,0,0,0,0
12,16,507.906390354037,0,0,2268074.89612515,2268075.94319202,1,1,0,11,31,234946212,108376924,209068702,229671021,30200509,31100319,11812009,30110009,30410319,0,21011119,40200509,40101419,10310009,-3031150,21701619,20311209,11312009,0,0,31110009,10600919,30401509,10210719,32011909,0,31912009,20910119,21911709,31300619,30410109,10102019,31911609,40610809,10212009,21000309,21510019,41011619,21301309,32011319
12,17,565.565843135118,0,0,2268077.63732552,2268078.684387,1,1,0,28,9,30701609,10601219,52822737,125675566,0,0,0,30701609,0,0,0,0,0,0,0,0,0,0,0,10601219,0,0,0,0,20601409,0,0,0,20310409,0,11910919,-2050010,40811609,0,31210919,0,31601819,0,0,20001209
12,18,407.224470749497,1,0,2268080.36677034,2268081.41383066,1,0,1,16,31,228049083,170446534,256958821,194748312,21410309,41601319,31511609,31102019,0,30311509,31211709,0,40900609,30911719,0,31711909,31010419,11500009,10810319,-2100141,41800209,10601809,20300009,41011809,30401609,41901719,31311009,11001419,40510219,10110109,30410919,20100709,11111409,30011619,0,20601709,30711519,30300519,21810609,30100219
12,19,481.431085150689,0,0,2268082.9903301,2268084.03739466,1,0,0,33,31,195229222,240431441,258566693,167509284,40200819,20211419,30401309,12000619,21001609,30501819,0,10400719,30510909,40710919,31201219,21901819,30312009,21301509,31901119,11000409,11801619,40300819,0,0,41912019,41900709,41310309,21410419,30212009,41410209,40411019,0,10201109,40300719,11201419,12011809,-1180081,20711519,31601919,40300709
12,20,850.093954242766,0,0,2268085.62565158,2268086.67271575,1,1,0,30,19,168446084,156127974,41001338,98424506,31411019,0,0,0,20810319,32001409,10801409,31910819,41511109,0,10301309,0,11111309,0,40001509,31401319,22000909,41311619,0,0,0,0,0,0,11000019,30001319,0,41901709,11000319,-3110131,0,0,0,20401819,10500219,11510309
12,21,610.630528070033,1,0,2268088.70805709,2268089.75510048,1,1,1,25,9,0,10900609,81713097,115444675,0,0,0,0,0,0,0,0,0,0,0,0,0,0,0,0,0,10900609,0,20400609,0,20110019,0,0,-1091150,40111319,0,10301609,0,11211419,21010009,0,31111319,0,0,41810319
12,22,662.924009840935,1,0,2268091.56694157,2268092.61395647,1,0,1,36,19,114834666,186236184,84414136,116253745,30611209,0,0,0,0,0,41400319,31011219,11811919,31211919,21100919,20111909,41410109,0,40700919,0,0,31700409,0,0,21001109,0,11001209,21111309,0,31300509,0,0,0,21810019,20500609,0,21001909,20910719,30010319,-2020170
12,23,446.298392955214,1,0,2268094.29633634,2268095.34339435,1,0,1,29,3,63310938,0,30411119,1001181,0,0,0,0,21700419,0,41610519,0,0,0,0,0,0,0,0,0,0,0,30411119,0,0,0,0,0,0,0,0,0,-1001181,0,0,0,0,0,0,0
12,24,456.742384005338,1,0,2268096.91989803,2268097.96700609,1,0,1,10,0,0,0,0,0,0,0,0,0,0,0,0,0,0,-30410991,0,0,0,0,0,0,0,0,0,0,0,0,0,0,0,0,0,0,0,0,0,0,0,0,0,0
12,25,520.617031492293,0,0,2268099.55522413,2268100.60228714,1,0,0,4,19,124366455,84115066,83132447,177325413,20511019,0,21510119,-1011070,0,10511809,40311619,30510819,0,10702019,10201909,0,21810019,41401119,0,0,0,0,40511419,0,0,0,31310319,11310709,0,0,0,11201719,10600209,21100819,20410619,41900519,0,30300809,0,41810719
12,26,472.04997157678,0,0,2268102.28465932,2268103.33172965,1,1,0,3,31,260736432,247950512,217538642,134846633,21601519,30210209,-4170110,40010819,31810119,40300309,41311819,20210319,31111209,31001019,10001409,0,21711419,40011819,41611219,41501609,21412009,40700009,10211219,40602019,21500819,11700519,41000609,0,20411419,31611019,40501019,10010019,30010619,11712019,21200319,31000819,20301419,10611419,0,0
12,27,505.94154978171,1,0,2268119.95544764,2268121.00250757,2,1,1,11,31,234946212,108376924,209068702,229671021,30200509,31100319,11812009,30110009,30410319,0,21011119,40200509,40101419,10310009,-3031150,21701619,20311209,11312009,0,0,31110009,10600919,30401509,10210719,32011909,0,31912009,20910119,21911709,31300619,30410109,10102019,31911609,40610809,10212009,21000309,21510019,41011619,21301309,32011319
12,28,613.106211647391,0,0,2268122.55547589,2268123.60254237,2,0,0,34,3,30601519,71913138,0,4200111,0,30601519,0,0,0,0,0,0,0,0,0,0,31211619,0,0,0,0,40701519,0,0,0,0,0,0,0,0,0,0,0,0,0,0,0,-4200111,0,0
12,29,480.384761001915,0,0,2268125.37903519,2268126.42610168,2,0,0,9,19,85722748,126522546,166517974,168525884,0,41411009,0,0,11700409,30511219,0,0,-2100111,0,0,41310909,0,21701409,0,0,41710209,21800019,41401909,20710309,41100419,0,0,0,41801819,10102009,11401509,41811519,30201119,0,0,41601009,11211009,32000409,11700819,0
12,30,442.413751967251,1,0,2268128.03789434,2268129.08496044,2,0,1,17,9,61622538,64492689,10610109,123606166,0,0,0,0,30112019,0,0,31510519,0,0,0,0,0,41001109,0,0,-2191071,21300509,0,0,0,0,0,0,0,10610109,0,0,0,0,40601719,20801519,31701609,0,0,30501319
12,31,625.722922384739,1,0,2268130.69674425,2268131.74381073,2,1,1,30,19,168446084,156127974,41001338,98424506,31411019,0,0,0,20810319,32001409,10801409,31910819,41511109,0,10301309,0,11111309,0,40001509,31401319,22000909,41311619,0,0,0,0,0,0,11000019,30001319,0,41901709,11000319,-3110131,0,0,0,20401819,10500219,11510309
12,32,529.392601456493,0,0,2268133.39089161,2268134.43796502,2,0,0,4,3,45720350,0,41500928,0,0,0,0,-4110141,0,0,41610209,0,0,0,0,0,0,0,0,0,0,0,0,0,0,11400109,0,0,0,0,30100819,0,0,0,0,0,0,0,0,0
12,33,539.885867387056,0,0,2268136.15563888,2268137.20270614,2,0,0,29,3,31711709,53913128,0,3190111,0,0,0,31711709,0,0,0,0,0,0,0,0,0,0,11901409,0,42011719,0,0,0,0,0,0,0,0,0,0,0,-3190111,0,0,0,0,0,0,0
12,34,488.920885603875,0,0,2268138.87331006,2268139.92037346,2,1,0,28,9,30701609,10601219,52822737,125675566,0,0,0,30701609,0,0,0,0,0,0,0,0,0,0,0,10601219,0,0,0,0,20601409,0,0,0,20310409,0,11910919,-2050010,40811609,0,31210919,0,31601819,0,0,20001209
12,35,598.73407939449,0,0,2268141.61452274,2268142.66158153,2,0,0,33,9,81221428,42401628,63400638,66545707,0,40810619,0,0,0,40410809,0,0,0,0,0,31300309,11101319,0,0,0,0,0,0,0,0,0,31600119,0,31800519,0,0,11701819,30511519,0,0,0,-3031150,0,21301219,0
12,36,581.694552209228,1,0,2268144.41454669,2268145.46161202,2,1,1,2,3,4171161,31801809,52613628,0,0,-4171161,0,0,0,0,0,0,0,0,31801809,0,0,0,0,0,0,0,0,20811909,0,0,31801719,0,0,0,0,0,0,0,0,0,0,0,0,0
12,37,513.80630210042,0,0,2268147.07340737,2268148.12047848,2,1,0,6,0,0,0,0,0,0,0,0,0,0,-10210801,0,0,0,0,0,0,0,0,0,0,0,0,0,0,0,0,0,0,0,0,0,0,0,0,0,0,0,0,0,0
12,38,493.980042636395,1,0,2268149.82637215,2268150.87345095,2,0,1,16,19,196858372,73183857,144724985,84025137,11810509,11111709,20500009,31202009,30811009,30610409,0,20410709,40402009,0,0,0,10010819,0,41111119,-2060110,0,20001809,10401109,0,0,20711519,0,31900119,0,41311019,40401219,21902009,0,0,0,0,0,0,30311319,31811809
12,39,606.250442098826,0,0,2268152.40287159,2268153.44993961,2,1,0,35,19,155745875,176833354,101603727,117862295,0,0,31311219,21910519,40801419,0,41511509,20211209,0,31110409,0,41401009,0,0,30710109,31901109,31700709,10010009,30001909,0,0,31201309,0,0,0,0,40400509,10110509,0,0,0,20010309,21800119,20400009,-4030040,41511309
12,40,532.106191385537,1,0,2268155.23833389,2268156.28526371,2,0,1,2,0,0,0,0,0,0,-10611801,0,0,0,0,0,0,0,0,0,0,0,0,0,0,0,0,0,0,0,0,0,0,0,0,0,0,0,0,0,0,0,0,0,0
12,41,482.401956804097,0,0,2268157.86185323,2268158.90882578,2,1,0,10,9,131533446,56272178,30000919,10200309,0,0,30310209,0,0,30811509,30010019,40401709,0,-3040031,0,0,11411009,0,11010219,30810919,0,0,0,0,0,0,0,0,0,0,30000919,0,0,0,0,0,0,0,10200309,0
12,42,747.343639377505,1,0,2268160.46178371,2268161.50885365,2,1,1,31,3,10810519,41401609,0,31281110,0,0,0,10810519,0,0,0,0,0,0,0,0,0,0,41401609,0,0,0,0,0,0,0,0,0,0,0,0,0,0,0,-1170091,30111019,0,0,0,0
12,43,528.911015484482,1,0,2268163.29711435,2268164.34418083,2,1,1,14,31,308650731,228898972,185145493,186416393,30601219,20000119,41301909,31310709,32001219,40501609,41411009,30311819,41211119,31911009,41301719,41310309,20401719,-2140150,30201019,30910609,20310619,10411819,20110219,30600119,10011409,41100209,31212009,10500719,0,41610809,0,41100319,0,40900109,20101809,20710919,0,31400509,21702009,10500719
12,44,580.059238243848,0,0,2268166.05008913,2268167.09719796,2,1,0,32,19,75914966,134046655,125735865,70175846,0,12002019,11701309,0,11711019,0,40500619,0,0,10411909,11611609,40200719,0,0,40811109,31011309,0,0,0,0,11000309,0,21611909,11011909,42010519,0,40101219,10911909,11800619,0,11200619,-3150171,21601009,11511519,0,0
12,45,568.886516615748,0,0,2268168.85017352,2268169.89718187,2,0,0,36,9,82911137,84222537,51621228,44172679,0,20110109,0,0,0,0,41200819,0,21600209,0,41310819,0,21810609,0,0,0,21101109,0,20611219,0,0,0,0,31010009,0,0,0,0,0,40011519,0,0,0,0,0,-4161160
12,46,535.017265938222,1,0,2268171.61485689,2268172.66192376,2,0,1,24,31,237158121,249037822,189365364,168426273,20910219,11200609,40311519,40910009,40710119,10901509,30211809,31600909,10401419,40201519,10701419,40610009,41811419,0,21400519,21101219,41500609,31711109,0,30000319,31100409,20600119,20211109,-4131161,41411219,21410219,20500809,21400709,11710709,40901119,0,31610309,11301309,20300409,0,31201709
12,47,467.032005544752,1,0,2268174.26193431,2268175.30900772,2,1,1,18,3,40211319,12900749,0,20402009,0,0,0,0,40211319,0,0,0,0,0,11810609,0,0,0,0,0,0,-1090140,0,0,0,0,0,0,0,0,0,0,0,0,0,0,0,20402009,0,0
12,48,728.511733934283,0,0,2268176.8972681,2268177.94433343,2,1,0,25,9,0,10900609,81713097,115444675,0,0,0,0,0,0,0,0,0,0,0,0,0,0,0,0,0,10900609,0,20400609,0,20110019,0,0,-1091150,40111319,0,10301609,0,11211419,21010009,0,31111319,0,0,41810319
12,49,495.370521675795,0,0,2268179.79142308,2268180.83848533,2,0,0,27,31,166366192,290151922,218617894,196237712,21311509,0,10811909,10810709,11310519,40500009,20610219,30810009,20201309,41911519,31111219,31401919,31101009,41601609,31411319,40901919,0,40711409,21400819,31101719,30300909,40610819,0,31401319,31700919,30000209,-2101181,11811219,10501109,30200119,0,40801419,10610109,31910709,40001619,20401409
12,50,678.42176835984,1,0,2268182.49733216,2268183.54440172,2,1,1,3,31,260736432,247950512,217538642,134846633,21601519,30210209,-4170110,40010819,31810119,40300309,41311819,20210319,31111209,31001019,10001409,0,21711419,40011819,41611219,41501609,21412009,40700009,10211219,40602019,21500819,11700519,41000609,0,20411419,31611019,40501019,10010019,30010619,11712019,21200319,31000819,20301419,10611419,0,0
12,51,479.436602443457,1,0,2268185.297415,2268186.34442836,2,0,1,22,19,136322745,185236394,167045335,83222127,41210109,40810709,0,0,11100709,21900809,0,21300409,0,0,21511319,10300209,0,41000019,41511619,0,30811419,40101809,30310409,0,30911219,-3001180,30801509,30910209,0,41110809,0,31210309,0,0,0,0,11400909,0,0,40610909
12,52,669.22967042774,1,0,2268187.94445623,2268188.99151655,2,0,1,13,31,240540461,150617913,155159393,158656002,31900309,41801919,31611019,20301619,40501419,11210619,21211819,10901119,31100619,11210319,31610009,10210919,-3161200,30111819,0,11002019,31910509,21401119,31011719,0,30811119,10401909,10500709,21111719,10611209,40711009,0,10200809,11810109,12010809,40811409,0,10201509,40510419,11500319,21610619
12,53,731.178358197212,1,0,2268205.90935472,2268206.95643083,3,1,1,30,19,168446084,156127974,41001338,98424506,31411019,0,0,0,20810319,32001409,10801409,31910819,41511109,0,10301309,0,11111309,0,40001509,31401319,22000909,41311619,0,0,0,0,0,0,11000019,30001319,0,41901709,11000319,-3110131,0,0,0,20401819,10500219,11510309
12,54,700.77991578728,1,0,2268208.83887145,2268209.88590713,3,1,1,25,9,0,10900609,81713097,115444675,0,0,0,0,0,0,0,0,0,0,0,0,0,0,0,0,0,10900609,0,20400609,0,20110019,0,0,-1091150,40111319,0,10301609,0,11211419,21010009,0,31111319,0,0,41810319
12,55,458.494341000915,0,0,2268211.73295136,2268212.78002709,3,0,0,17,31,199059721,181105323,199327342,204235683,30011019,31710519,31011509,10101709,11111219,21600109,20501409,21211819,21800409,10400719,40310119,12011119,31500409,0,20911409,31611119,-4050010,30310419,41011519,0,31701019,31200319,31010219,31201119,11901809,11301219,10000119,40900509,30900419,20410909,30410609,0,20100409,20511409,41001419,0
12,56,645.004847086966,1,0,2268214.30945158,2268215.35653307,3,0,1,33,19,93513047,219070032,85345865,64264357,41711019,0,0,0,0,11000209,0,40801819,0,10012019,21510319,21001019,42000519,10311909,31111309,0,42011019,41111919,0,21211409,10510519,31611519,11900609,0,0,10111809,0,10310419,0,0,0,21612019,-2130010,0,30211909,0
12,57,478.006857447326,0,0,2268217.1565497,2268218.20367662,3,1,0,14,31,308650731,228898972,185145493,186416393,30601219,20000119,41301909,31310709,32001219,40501609,41411009,30311819,41211119,31911009,41301719,41310309,20401719,-2140150,30201019,30910609,20310619,10411819,20110219,30600119,10011409,41100209,31212009,10500719,0,41610809,0,41100319,0,40900109,20101809,20710919,0,31400509,21702009,10500719
12,58,393.754301592708,0,0,2268219.79187002,2268220.83893535,3,0,0,4,9,66051368,61601618,20210519,76313936,0,0,0,-4040040,40010319,0,22001009,0,0,0,40100609,0,0,0,0,0,0,21501009,0,0,0,0,0,0,0,20210519,0,0,0,11601409,12000509,40801809,0,0,11910209,0
12,59,548.019707202911,1,0,2268222.41542363,2268223.46249589,3,0,1,9,3,2061170,32010828,20011409,0,0,0,0,0,0,0,0,0,-2061170,0,0,0,10600109,0,21410719,0,0,0,20011409,0,0,0,0,0,0,0,0,0,0,0,0,0,0,0,0,0
12,60,538.28943381086,0,0,2268225.08604718,2268226.13311713,3,1,0,28,9,30701609,10601219,52822737,125675566,0,0,0,30701609,0,0,0,0,0,0,0,0,0,0,0,10601219,0,0,0,0,20601409,0,0,0,20310409,0,11910919,-2050010,40811609,0,31210919,0,31601819,0,0,20001209
12,61,498.232321348041,1,0,2268227.67430988,2268228.72138483,3,0,1,34,19,158049593,112845655,63221537,106784046,10611409,30501019,21910809,0,41701909,20210919,21111719,0,12001809,30410009,10302009,0,0,0,0,10912009,40610919,20610709,0,0,0,12010519,21200409,0,30010609,0,0,21910309,31602009,10201319,0,40900409,0,-2170000,0,0
12,62,466.616632416844,1,0,2268230.40375277,2268231.45082348,3,1,1,2,3,4171161,31801809,52613628,0,0,-4171161,0,0,0,0,0,0,0,0,31801809,0,0,0,0,0,0,0,0,20811909,0,0,31801719,0,0,0,0,0,0,0,0,0,0,0,0,0
12,63,542.835438158363,1,1,2268232.96853246,2268234.01555121,3,1,0,31,3,10810519,41401609,0,31281110,0,0,0,10810519,0,0,0,0,0,0,0,0,0,0,41401609,0,0,0,0,0,0,0,0,0,0,0,0,0,0,0,-1170091,30111019,0,0,0,0
12,64,700.769137125462,1,0,2268235.61558485,2268236.66264825,3,0,1,36,31,144577273,187229393,197970201,231478052,0,0,10510009,31111809,10811909,31210209,30311319,20311309,10310709,31002019,41100209,0,0,21900809,10511619,20402009,30301909,32010819,21001209,20112009,40111609,31301409,11210509,20311419,20811409,21510119,11600509,41900219,41911119,20810709,21211209,21101809,40200809,30210019,11001119,-3131040
12,65,482.641787268221,0,0,2268238.36857311,2268239.41562843,3,1,0,10,9,131533446,56272178,30000919,10200309,0,0,30310209,0,0,30811509,30010019,40401709,0,-3040031,0,0,11411009,0,11010219,30810919,0,0,0,0,0,0,0,0,0,0,30000919,0,0,0,0,0,0,0,10200309,0
12,66,668.298834934831,1,0,2268240.99210824,2268242.03917818,3,1,1,35,19,155745875,176833354,101603727,117862295,0,0,31311219,21910519,40801419,0,41511509,20211209,0,31110409,0,41401009,0,0,30710109,31901109,31700709,10010009,30001909,0,0,31201309,0,0,0,0,40400509,10110509,0,0,0,20010309,21800119,20400009,-4030040,41511309
12,67,509.36924200505,1,0,2268243.90978395,2268244.95687238,3,1,1,6,0,0,0,0,0,0,0,0,0,0,-10210801,0,0,0,0,0,0,0,0,0,0,0,0,0,0,0,0,0,0,0,0,0,0,0,0,0,0,0,0,0,0
12,68,507.075706962496,0,0,2268246.48629456,2268247.53315579,3,0,0,27,3,41501919,41712019,4020031,31610219,0,0,0,0,0,0,41501919,0,0,0,0,0,0,41712019,0,0,0,0,0,0,0,0,0,0,0,0,-4020031,0,0,0,0,0,0,0,31610219,0
12,69,469.346005469561,1,0,2268249.0510269,2268250.09809761,3,0,1,22,9,93632527,42901228,45961879,41201318,0,41310709,0,0,12011009,40310809,0,0,0,21100809,0,21800419,0,0,0,0,0,0,0,0,11711709,-3050061,0,0,0,0,31200109,0,0,0,0,0,20600809,0,20600509,0
12,70,564.479098189622,1,0,2268251.61575885,2268252.66283304,3,1,1,11,31,234946212,108376924,209068702,229671021,30200509,31100319,11812009,30110009,30410319,0,21011119,40200509,40101419,10310009,-3031150,21701619,20311209,11312009,0,0,31110009,10600919,30401509,10210719,32011909,0,31912009,20910119,21911709,31300619,30410109,10102019,31911609,40610809,10212009,21000309,21510019,41011619,21301309,32011319
12,71,616.205147467554,1,0,2268254.26285013,2268255.30991391,3,1,1,3,31,260736432,247950512,217538642,134846633,21601519,30210209,-4170110,40010819,31810119,40300309,41311819,20210319,31111209,31001019,10001409,0,21711419,40011819,41611219,41501609,21412009,40700009,10211219,40602019,21500819,11700519,41000609,0,20411419,31611019,40501019,10010019,30010619,11712019,21200319,31000819,20301419,10611419,0,0
12,72,594.858292490244,0,0,2268257.08643984,2268258.13348015,3,0,0,29,19,186455664,167742964,33224357,107033176,21210909,0,40111109,41700909,0,20811519,21310109,41311109,0,0,42010609,22010109,0,0,20000209,31700719,10510509,41510809,0,11411019,0,0,0,11501619,0,0,10311719,0,-2100020,41600919,0,31210719,0,20810309,0,11311209
12,73,540.91217322275,0,0,2268259.89826707,2268260.9452735,3,1,0,32,19,75914966,134046655,125735865,70175846,0,12002019,11701309,0,11711019,0,40500619,0,0,10411909,11611609,40200719,0,0,40811109,31011309,0,0,0,0,11000309,0,21611909,11011909,42010519,0,40101219,10911909,11800619,0,11200619,-3150171,21601009,11511519,0,0
12,74,458.252970594913,0,0,2268262.52177025,2268263.56883519,3,0,0,16,3,30511919,34781390,0,41011219,0,0,0,0,0,30511919,0,0,0,0,0,0,0,0,0,-3081181,0,31700209,0,0,0,0,0,0,0,0,0,0,0,0,0,0,0,0,0,41011219
12,75,426.710424479097,1,0,2268265.08650413,2268266.13356984,3,0,1,24,9,0,105135046,23661710,85523146,0,0,0,0,0,0,0,0,0,0,31111709,0,0,21801709,30310209,0,0,21911419,0,0,0,0,0,-3160191,20501519,0,0,12011609,11200809,0,0,0,0,31200519,31110209,0
12,76,576.608832925558,0,0,2268267.59241251,2268268.63947976,3,0,0,13,31,206707203,232277273,160459931,188545683,31501009,30700709,41501809,11700419,20300219,30001519,0,0,41001519,31410219,31610009,30100919,-2010041,10511419,20911219,42000619,42011009,21711819,10711709,31100519,11511509,10901409,31511019,10700019,21811219,11411009,20801519,30810909,11700309,0,0,41511819,21611109,31800809,30100709,21010019
12,77,536.800790578127,0,0,2268270.29832736,2268271.34539423,3,1,0,18,3,40211319,12900749,0,20402009,0,0,0,0,40211319,0,0,0,0,0,11810609,0,0,0,0,0,0,-1090140,0,0,0,0,0,0,0,0,0,0,0,0,0,0,0,20402009,0,0
12,78,406.117707490921,0,0,2268273.02777141,2268274.07484058,3,0,0,12,0,0,0,0,0,0,0,0,0,0,0,0,0,0,0,0,-41210201,0,0,0,0,0,0,0,0,0,0,0,0,0,0,0,0,0,0,0,0,0,0,0,0
12,79,567.154191900045,0,0,2268289.99267028,2268291.03973368,4,0,0,36,31,238948122,227667212,247560431,186843294,0,41900619,10801719,30910709,40211519,31800719,21211219,20111209,42000409,11910019,40810309,41510219,20410509,40411309,30701919,0,10711609,31201319,40510419,41912009,11311609,41100709,40311419,40701219,10500819,10711509,10500719,10800309,41900009,0,40100109,31710709,0,21111219,40210919,-1010020
12,80,431.390009820461,1,0,2268292.80447942,2268293.85153243,4,1,1,18,3,40211319,12900749,0,20402009,0,0,0,0,40211319,0,0,0,0,0,11810609,0,0,0,0,0,0,-1090140,0,0,0,0,0,0,0,0,0,0,0,0,0,0,0,20402009,0,0
12,81,461.184833198786,0,0,2268295.40449767,2268296.451568,4,0,0,33,9,92712447,73621518,82733847,42150640,0,0,0,30400709,0,0,30300719,32011019,0,0,0,0,41711009,0,0,0,31910509,0,0,21611019,30311419,0,30811409,0,0,0,0,0,0,0,0,0,-2050121,0,0,40100519
12,82,592.159715946764,0,0,2268297.99276537,2268299.03982761,4,0,0,13,3,0,34591210,21101809,40510909,0,0,0,0,0,0,0,0,0,0,0,0,-4191001,0,0,30400209,0,0,0,0,21101809,0,0,0,0,0,0,0,0,0,0,0,40510909,0,0,0
12,83,470.695679076016,0,0,2268300.68691735,2268301.73396458,4,0,0,4,3,12841520,21611519,0,21810619,0,0,0,-2141111,0,0,0,0,10700409,0,0,21611519,0,0,0,0,0,0,0,0,0,0,0,0,0,0,0,0,0,0,0,0,0,21810619,0,0
12,84,461.68220276013,0,0,2268303.23987912,2268304.2869483,4,1,0,3,31,260736432,247950512,217538642,134846633,21601519,30210209,-4170110,40010819,31810119,40300309,41311819,20210319,31111209,31001019,10001409,0,21711419,40011819,41611219,41501609,21412009,40700009,10211219,40602019,21500819,11700519,41000609,0,20411419,31611019,40501019,10010019,30010619,11712019,21200319,31000819,20301419,10611419,0,0
12,85,445.031101815403,1,0,2268305.80462571,2268306.85168218,4,1,1,6,0,0,0,0,0,0,0,0,0,0,-10210801,0,0,0,0,0,0,0,0,0,0,0,0,0,0,0,0,0,0,0,0,0,0,0,0,0,0,0,0,0,0
12,86,693.793259561062,1,0,2268308.45170389,2268309.49879617,4,0,1,27,19,154037575,74104456,83964928,166118093,10601809,30301909,41512019,0,0,30911619,0,40710219,0,30901709,0,0,11401019,20901219,0,0,0,10900509,0,41412009,20301419,0,20100419,0,0,0,-2151081,31001209,20301619,30401209,0,10000109,41400219,21312019,0,11701709
12,87,579.780911561102,0,0,2268311.20467945,2268312.25177711,4,1,0,2,3,4171161,31801809,52613628,0,0,-4171161,0,0,0,0,0,0,0,0,31801809,0,0,0,0,0,0,0,0,20811909,0,0,31801719,0,0,0,0,0,0,0,0,0,0,0,0,0
12,88,593.223748262972,1,0,2268313.96941248,2268315.01647819,4,1,1,14,31,308650731,228898972,185145493,186416393,30601219,20000119,41301909,31310709,32001219,40501609,41411009,30311819,41211119,31911009,41301719,41310309,20401719,-2140150,30201019,30910609,20310619,10411819,20110219,30600119,10011409,41100209,31212009,10500719,0,41610809,0,41100319,0,40900109,20101809,20710919,0,31400509,21702009,10500719
12,89,748.707940801978,0,0,2268316.6518066,2268317.69886192,4,1,0,35,19,155745875,176833354,101603727,117862295,0,0,31311219,21910519,40801419,0,41511509,20211209,0,31110409,0,41401009,0,0,30710109,31901109,31700709,10010009,30001909,0,0,31201309,0,0,0,0,40400509,10110509,0,0,0,20010309,21800119,20400009,-4030040,41511309
12,90,463.349853642285,1,0,2268319.64006529,2268320.68713331,4,1,1,10,9,131533446,56272178,30000919,10200309,0,0,30310209,0,0,30811509,30010019,40401709,0,-3040031,0,0,11411009,0,11010219,30810919,0,0,0,0,0,0,0,0,0,0,30000919,0,0,0,0,0,0,0,10200309,0
12,91,1054.69916481525,1,0,2268322.31068653,2268323.35778612,4,1,1,30,19,168446084,156127974,41001338,98424506,31411019,0,0,0,20810319,32001409,10801409,31910819,41511109,0,10301309,0,11111309,0,40001509,31401319,22000909,41311619,0,0,0,0,0,0,11000019,30001319,0,41901709,11000319,-3110131,0,0,0,20401819,10500219,11510309
12,92,562.157399021089,1,0,2268325.58131139,2268326.62837903,4,1,1,31,3,10810519,41401609,0,31281110,0,0,0,10810519,0,0,0,0,0,0,0,0,0,0,41401609,0,0,0,0,0,0,0,0,0,0,0,0,0,0,0,-1170091,30111019,0,0,0,0
12,93,487.272482831031,0,0,2268328.34604674,2268329.39310783,4,0,0,24,19,73611747,114223565,178387346,124624574,0,0,21100019,0,32011519,0,20500209,0,0,31010019,10800419,0,0,0,20301209,41000809,11111109,0,40501919,0,21100819,0,0,-4181051,30801519,41001519,40800519,0,10800509,0,10211209,11410419,21201109,30901009,0,40100319
12,94,388.103074859828,0,0,2268330.93431328,2268331.98137514,4,0,0,22,9,41900609,62123528,55163907,52703547,0,0,41900609,0,0,0,0,0,0,0,31311509,0,0,0,0,30812019,0,0,21101709,0,0,-1060170,11301919,0,0,0,21700109,0,0,0,0,0,0,21501809,10500519,20701219
12,95,562.160863541067,0,0,2268333.44021242,2268334.4872893,4,1,0,11,31,234946212,108376924,209068702,229671021,30200509,31100319,11812009,30110009,30410319,0,21011119,40200509,40101419,10310009,-3031150,21701619,20311209,11312009,0,0,31110009,10600919,30401509,10210719,32011909,0,31912009,20910119,21911709,31300619,30410109,10102019,31911609,40610809,10212009,21000309,21510019,41011619,21301309,32011319
12,96,505.473437253386,1,0,2268336.25202426,2268337.29908804,4,1,1,25,9,0,10900609,81713097,115444675,0,0,0,0,0,0,0,0,0,0,0,0,0,0,0,0,0,10900609,0,20400609,0,20110019,0,0,-1091150,40111319,0,10301609,0,11211419,21010009,0,31111319,0,0,41810319
12,97,383.908154908568,0,0,2268338.87563445,2268339.92265243,4,0,0,16,3,40001109,43282549,0,10310419,0,0,40001109,0,0,0,0,0,0,40201509,0,0,0,0,0,-3081040,0,0,0,0,0,0,0,0,0,0,0,0,0,0,0,0,10310419,0,0,0
12,98,467.001978773624,1,0,2268341.42860046,2268342.47562421,4,1,1,28,9,30701609,10601219,52822737,125675566,0,0,0,30701609,0,0,0,0,0,0,0,0,0,0,0,10601219,0,0,0,0,20601409,0,0,0,20310409,0,11910919,-2050010,40811609,0,31210919,0,31601819,0,0,20001209
12,99,454.299421515316,1,0,2268344.00505217,2268345.05212019,4,0,1,17,19,73513456,94734106,82732956,160445893,10910309,31200219,10402009,0,0,21000919,0,0,0,0,30710409,41000009,10711809,11110709,0,0,-1201170,0,20110019,11810709,0,0,0,10111809,0,0,40700419,31601809,11710709,0,11300109,11911719,40300609,31810719,0,21810219
12,100,792.462988290936,0,0,2268346.66390592,2268347.71097664,4,1,0,32,19,75914966,134046655,125735865,70175846,0,12002019,11701309,0,11711019,0,40500619,0,0,10411909,11611609,40200719,0,0,40811109,31011309,0,0,0,0,11000309,0,21611909,11011909,42010519,0,40101219,10911909,11800619,0,11200619,-3150171,21601009,11511519,0,0
12,101,484.402983915061,1,0,2268349.52276114,2268350.56983378,4,0,1,9,31,212617894,208952031,210236212,198761322,11401809,0,41911609,42000619,0,40800709,41911219,31510809,-3081120,31300309,30712019,11601219,41001209,11002009,10711709,20000819,41212019,11410719,42011109,40800219,41600719,11511909,0,20110019,11200509,11101509,31900219,30811919,40612019,10111819,31711609,10600109,21710819,31601319,21601709,0
12,102,518.945916090161,0,0,2268352.19338161,2268353.24046426,4,0,0,29,31,239548321,188968112,209160232,161074545,30710519,41301309,20100909,21411409,11601619,30710619,21501419,20610309,41600209,10301609,21110809,41311019,41800209,11712019,0,20810509,20010619,21911319,40100819,0,21501519,10011819,31411319,11711519,42000919,12010409,40411909,41200819,-4141051,31010619,21200009,40710119,10800719,0,0,12011209
12,103,476.169053930789,1,0,2268354.8051762,2268355.85224076,4,0,1,21,0,0,0,0,0,0,0,0,0,0,0,0,0,0,0,0,0,0,0,0,0,0,0,0,0,-20710291,0,0,0,0,0,0,0,0,0,0,0,0,0,0,0
12,104,499.240533914417,1,0,2268357.52283929,2268358.56992271,4,0,1,34,9,142045355,23520318,40921828,3141041,40800809,10210919,0,0,20311709,0,30610609,0,40111309,0,0,12010309,0,0,0,0,0,11510009,20810909,0,0,0,0,0,0,20110919,0,0,0,0,0,0,0,-3141041,0,0
12,105,594.35553336516,0,0,2268363.62880018,2268364.67587051,5,0,0,29,9,0,82112547,103713427,85442757,0,0,0,0,0,0,0,0,0,0,0,41001409,30800619,10310519,0,0,0,0,0,0,31100709,0,0,32001609,0,40611109,0,40210609,-4011030,0,0,0,21110209,20110909,0,0
12,106,526.759853586555,1,0,2268366.31118968,2268367.35825885,5,0,1,36,19,186437494,123423936,92952785,145604766,40201819,32010219,30800519,21101509,31311919,0,31011509,0,0,40800009,40411209,20701909,0,0,21510809,0,0,0,0,10710119,0,0,11010909,20010519,0,10511019,40710219,0,41210209,0,20211509,0,0,40701909,40401119,-3080020
12,107,490.611249580979,1,0,2268369.0523989,2268370.09946153,5,0,1,4,3,2191120,21000209,32321428,0,0,0,0,-2191120,0,0,0,0,0,21000209,0,0,0,0,0,0,0,0,21511109,0,0,0,10810319,0,0,0,0,0,0,0,0,0,0,0,0,0
12,108,1571.1639453657,1,0,2268371.67594404,2268372.72300859,5,1,1,32,19,75914966,134046655,125735865,70175846,0,12002019,11701309,0,11711019,0,40500619,0,0,10411909,11611609,40200719,0,0,40811109,31011309,0,0,0,0,11000309,0,21611909,11011909,42010519,0,40101219,10911909,11800619,0,11200619,-3150171,21601009,11511519,0,0
12,109,507.729308214039,0,0,2268375.46427056,2268376.51129816,5,0,0,17,31,249559201,200149163,196027102,135545974,41401509,22000109,31310009,21110909,30801519,20511509,21001509,30811009,30611119,21301809,21600209,10901619,10110819,41401009,30410909,20501209,-2010161,41911419,40800219,41000409,0,11610419,30300609,20101209,10401819,20710609,21101809,30410409,30401219,11500119,20911809,21811609,0,0,20510809,0
12,110,546.077964361757,1,0,2268378.18189977,2268379.22898511,5,1,1,25,9,0,10900609,81713097,115444675,0,0,0,0,0,0,0,0,0,0,0,0,0,0,0,0,0,10900609,0,20400609,0,20110019,0,0,-1091150,40111319,0,10301609,0,11211419,21010009,0,31111319,0,0,41810319
12,111,474.9367935583,0,0,2268380.93488418,2268381.98194835,5,1,0,14,31,308650731,228898972,185145493,186416393,30601219,20000119,41301909,31310709,32001219,40501609,41411009,30311819,41211119,31911009,41301719,41310309,20401719,-2140150,30201019,30910609,20310619,10411819,20110219,30600119,10011409,41100209,31212009,10500719,0,41610809,0,41100319,0,40900109,20101809,20710919,0,31400509,21702009,10500719
12,112,502.548503689468,1,0,2268383.66435171,2268384.71139471,5,1,1,35,19,155745875,176833354,101603727,117862295,0,0,31311219,21910519,40801419,0,41511509,20211209,0,31110409,0,41401009,0,0,30710109,31901109,31700709,10010009,30001909,0,0,31201309,0,0,0,0,40400509,10110509,0,0,0,20010309,21800119,20400009,-4030040,41511309
12,113,409.802169073373,1,0,2268386.37022729,2268387.41730994,5,0,1,22,19,174338174,83513756,127945375,113514076,30410609,0,11101119,0,40401809,20211419,0,41501909,30711309,0,41411419,0,10600109,0,21301719,0,0,10200509,20700509,0,31910619,-3031100,0,20901809,0,21401019,30000319,30201319,10501119,0,0,0,0,31201119,0,41610519
12,114,447.546051349491,0,0,2268388.86438936,2268389.91146046,5,1,0,2,3,4171161,31801809,52613628,0,0,-4171161,0,0,0,0,0,0,0,0,31801809,0,0,0,0,0,0,0,0,20811909,0,0,31801719,0,0,0,0,0,0,0,0,0,0,0,0,0
12,115,423.787800595164,1,0,2268391.44089072,2268392.48797106,5,1,1,10,9,131533446,56272178,30000919,10200309,0,0,30310209,0,0,30811509,30010019,40401709,0,-3040031,0,0,11411009,0,11010219,30810919,0,0,0,0,0,0,0,0,0,0,30000919,0,0,0,0,0,0,0,10200309,0
12,116,554.950929712504,1,0,2268394.08798354,2268395.13507889,5,0,1,24,31,190238092,217747422,192225544,200660301,21100019,31711109,20501819,31510509,31601809,21601809,20510509,11700509,0,0,10502009,30601409,30311319,40300909,31010619,21700019,31510419,21810719,0,21311109,40610419,0,11400409,-4091060,31800719,41010819,42001009,30701509,11911609,21601519,21801019,21610409,10911009,21301709,20011509,40810009
12,117,598.493478726596,0,0,2268396.81742104,2268397.86447713,5,0,0,33,3,40210119,21200909,0,43371699,40210119,0,0,0,0,0,0,0,0,0,0,0,0,0,0,21200909,0,0,0,0,0,0,0,0,0,0,0,0,0,0,0,41210619,-2161080,0,0,0
12,118,668.14523562789,0,0,2268399.61745191,2268400.66452109,5,1,0,6,0,0,0,0,0,0,0,0,0,0,-10210801,0,0,0,0,0,0,0,0,0,0,0,0,0,0,0,0,0,0,0,0,0,0,0,0,0,0,0,0,0,0
12,119,559.96774090454,1,0,2268402.51160844,2268403.55866876,5,0,1,13,19,139527584,126685745,63612437,144517765,0,0,21200119,22012009,21911919,21401709,0,41900309,11101519,42001609,0,20011309,-1151190,10000109,22010819,0,31510709,0,0,0,10310609,0,0,0,0,22001509,31300319,20801619,0,40611709,0,31400909,0,20402019,0,31301509
12,120,488.529765047133,0,0,2268405.28810896,2268406.33517428,5,1,0,28,9,30701609,10601219,52822737,125675566,0,0,0,30701609,0,0,0,0,0,0,0,0,0,0,0,10601219,0,0,0,0,20601409,0,0,0,20310409,0,11910919,-2050010,40811609,0,31210919,0,31601819,0,0,20001209
12,121,902.499459683895,1,0,2268407.99402342,2268409.04109337,5,1,1,31,3,10810519,41401609,0,31281110,0,0,0,10810519,0,0,0,0,0,0,0,0,0,0,41401609,0,0,0,0,0,0,0,0,0,0,0,0,0,0,0,-1170091,30111019,0,0,0,0
12,122,391.586201265454,1,0,2268410.9469835,2268411.99407192,5,0,1,16,9,10610509,64132208,54112237,93712537,0,0,0,0,0,0,0,10610509,0,0,0,21901009,41200119,0,0,-1031080,0,0,0,0,0,0,0,21310119,21700509,11101609,0,0,41610509,30100019,0,0,0,22002009,0,0
12,123,551.574051845819,1,0,2268413.49996953,2268414.54703139,5,0,1,34,9,42512218,42922318,93425266,35361259,0,0,0,0,32000209,10512009,0,0,0,0,11710609,0,0,0,0,0,31211709,0,0,0,0,11511419,40900419,30101809,0,10911619,0,31210109,0,0,0,0,0,-4151150,0,0
12,124,473.410423845053,0,0,2268416.19411265,2268417.24117798,5,0,0,9,31,188767634,200647112,272149501,178056303,11710909,11000819,0,40511109,20711909,30410819,40200609,30111319,-4110141,31011419,0,21201419,40800109,22011309,21200809,20800719,11610019,32011309,21411209,21301609,41110609,31000209,41500609,21901419,21101819,42011709,30810309,0,0,21810419,31000909,22001119,22011609,20110709,40510519,20611019
12,125,423.731211572886,1,0,2268418.80593804,2268419.85297449,5,1,1,11,31,234946212,108376924,209068702,229671021,30200509,31100319,11812009,30110009,30410319,0,21011119,40200509,40101419,10310009,-3031150,21701619,20311209,11312009,0,0,31110009,10600919,30401509,10210719,32011909,0,31912009,20910119,21911709,31300619,30410109,10102019,31911609,40610809,10212009,21000309,21510019,41011619,21301309,32011319
12,126,520.499233156443,0,0,2268421.39417494,2268422.44124027,5,1,0,3,31,260736432,247950512,217538642,134846633,21601519,30210209,-4170110,40010819,31810119,40300309,41311819,20210319,31111209,31001019,10001409,0,21711419,40011819,41611219,41501609,21412009,40700009,10211219,40602019,21500819,11700519,41000609,0,20411419,31611019,40501019,10010019,30010619,11712019,21200319,31000819,20301419,10611419,0,0
12,127,535.212825983763,0,0,2268424.13538532,2268425.18244564,5,1,0,18,3,40211319,12900749,0,20402009,0,0,0,0,40211319,0,0,0,0,0,11810609,0,0,0,0,0,0,-1090140,0,0,0,0,0,0,0,0,0,0,0,0,0,0,0,20402009,0,0
12,128,854.942922480404,0,0,2268426.78247043,2268427.82952922,5,1,0,30,19,168446084,156127974,41001338,98424506,31411019,0,0,0,20810319,32001409,10801409,31910819,41511109,0,10301309,0,11111309,0,40001509,31401319,22000909,41311619,0,0,0,0,0,0,11000019,30001319,0,41901709,11000319,-3110131,0,0,0,20401819,10500219,11510309
12,129,415.306726004928,0,0,2268429.85309306,2268430.90016108,5,0,0,33,0,0,0,0,0,0,0,0,0,0,0,0,0,0,0,0,0,0,0,0,0,0,0,0,0,0,0,0,0,0,0,0,0,0,0,0,0,-21711701,0,0,0
12,130,505.218592938036,0,0,2268432.40606446,2268433.45312902,5,0,0,27,3,0,0,2160180,42023457,0,0,0,0,0,0,0,0,0,0,0,0,0,0,0,0,0,0,0,0,0,0,0,0,0,0,-2160180,0,0,0,10001419,0,0,11910719,20111319,0
12,131,464.343437924981,0,0,2268446.52387098,2268447.570939,6,0,0,34,0,0,0,0,0,0,0,0,0,0,0,0,0,0,0,0,0,0,0,0,0,0,0,0,0,0,0,0,0,0,0,0,0,0,0,0,0,0,-41610901,0,0
12,132,509.327665902674,1,0,2268449.12390116,2268450.17097188,6,0,1,24,31,194467031,207659632,161588434,147046473,20011919,10100709,20410219,10210919,11800219,40210209,40811309,30601419,10310109,21611519,40410319,31710919,40501809,20211419,20611019,11101409,0,21501219,10000809,11002019,11111519,42010819,0,-4141131,10910019,31511209,40900909,11011219,11511109,11900909,30501909,0,41300409,10110509,30710409,0
12,133,544.777566101402,1,0,2268451.74751059,2268452.79452972,6,0,1,13,9,92313347,21331919,31821328,73834447,0,0,0,0,30501319,31111109,0,0,30700919,0,20301819,0,-1030100,0,0,0,0,0,0,0,0,0,0,0,20310119,0,11511209,0,0,10511719,0,41710809,0,0,21611919,0
12,134,467.650252860039,0,0,2268454.50048499,2268455.54750874,6,1,0,11,31,234946212,108376924,209068702,229671021,30200509,31100319,11812009,30110009,30410319,0,21011119,40200509,40101419,10310009,-3031150,21701619,20311209,11312009,0,0,31110009,10600919,30401509,10210719,32011909,0,31912009,20910119,21911709,31300619,30410109,10102019,31911609,40610809,10212009,21000309,21510019,41011619,21301309,32011319
12,135,406.282086391002,0,0,2268457.1357645,2268458.18282906,6,1,0,6,0,0,0,0,0,0,0,0,0,0,-10210801,0,0,0,0,0,0,0,0,0,0,0,0,0,0,0,0,0,0,0,0,0,0,0,0,0,0,0,0,0,0
12,136,527.203713543713,1,0,2268459.77108829,2268460.81815015,6,0,1,9,3,2140070,40810619,51322428,0,0,0,0,0,0,0,0,0,-2140070,0,0,0,0,40810619,0,0,0,0,0,0,30011609,0,0,0,21310819,0,0,0,0,0,0,0,0,0,0,0
12,137,479.609065223485,0,0,2268462.40640823,2268463.4534751,6,1,0,30,19,168446084,156127974,41001338,98424506,31411019,0,0,0,20810319,32001409,10801409,31910819,41511109,0,10301309,0,11111309,0,40001509,31401319,22000909,41311619,0,0,0,0,0,0,11000019,30001319,0,41901709,11000319,-3110131,0,0,0,20401819,10500219,11510309
12,138,413.231786340475,0,0,2268465.07702601,2268466.12408864,6,0,0,22,19,103815955,96332956,146747155,135024536,31101309,0,10401609,0,31601419,0,0,20311009,10400609,0,11311119,41910009,0,0,0,31410109,0,11701719,0,41811209,0,-1100161,40810319,11111719,31001009,10901319,10011419,0,31901509,0,0,30000309,0,31710909,0,41411809
12,139,545.312277041376,0,0,2268467.73588669,2268468.78293277,6,0,0,36,19,85314866,167756174,154723185,120733296,0,21502019,11800019,0,0,0,40712019,11300809,0,12001219,0,0,21410109,0,40511919,41010709,21210509,31611709,20210119,0,0,20400819,41501309,0,31910619,0,40700319,11610619,0,0,0,21610519,0,42000209,41410919,-4101030
12,140,481.504612602293,0,1,2268470.3594326,2268471.40650678,6,1,1,32,19,75914966,134046655,125735865,70175846,0,12002019,11701309,0,11711019,0,40500619,0,0,10411909,11611609,40200719,0,0,40811109,31011309,0,0,0,0,11000309,0,21611909,11011909,42010519,0,40101219,10911909,11800619,0,11200619,-3150171,21601009,11511519,0,0
12,141,517.280959989876,1,0,2268473.08888319,2268474.13594005,6,0,1,34,9,64012047,0,144125765,44191379,0,11711119,0,0,0,30600919,0,0,21700009,0,0,0,0,0,0,0,0,0,40501419,0,0,0,0,42010919,21111009,30100909,10401509,0,0,0,0,40101309,0,-4090070,0,0
12,142,445.425301324576,0,0,2268475.75949904,2268476.80657245,6,1,0,14,31,308650731,228898972,185145493,186416393,30601219,20000119,41301909,31310709,32001219,40501609,41411009,30311819,41211119,31911009,41301719,41310309,20401719,-2140150,30201019,30910609,20310619,10411819,20110219,30600119,10011409,41100209,31212009,10500719,0,41610809,0,41100319,0,40900109,20101809,20710919,0,31400509,21702009,10500719
12,143,522.018289193511,0,0,2268478.44189085,2268479.48894771,6,1,0,35,19,155745875,176833354,101603727,117862295,0,0,31311219,21910519,40801419,0,41511509,20211209,0,31110409,0,41401009,0,0,30710109,31901109,31700709,10010009,30001909,0,0,31201309,0,0,0,0,40400509,10110509,0,0,0,20010309,21800119,20400009,-4030040,41511309
12,144,485.94590742141,1,0,2268481.04191834,2268482.08897943,6,1,1,2,3,4171161,31801809,52613628,0,0,-4171161,0,0,0,0,0,0,0,0,31801809,0,0,0,0,0,0,0,0,20811909,0,0,31801719,0,0,0,0,0,0,0,0,0,0,0,0,0
12,145,501.683111302555,0,0,2268483.58312764,2268484.63018488,6,0,0,4,3,1080080,10811619,41111618,0,0,0,0,-1080080,0,0,0,0,0,0,0,10811619,0,0,0,0,0,0,0,0,30500709,0,0,0,0,10610909,0,0,0,0,0,0,0,0,0,0
12,146,516.481010708958,0,0,2268486.27726114,2268487.32432801,6,0,0,27,19,54012637,145929723,129548425,83646636,20410309,0,0,0,0,0,11700409,21901919,0,11501919,0,11211919,30711909,40700419,20501719,10400519,0,20901319,10001919,0,31712009,0,41611819,12011109,30200519,0,-4011050,0,10811909,41510909,20511909,0,0,10811909,0,0
12,147,397.893401794136,1,0,2268488.90083322,2268489.94789547,6,1,1,28,9,30701609,10601219,52822737,125675566,0,0,0,30701609,0,0,0,0,0,0,0,0,0,0,0,10601219,0,0,0,0,20601409,0,0,0,20310409,0,11910919,-2050010,40811609,0,31210919,0,31601819,0,0,20001209
12,148,530.443544965237,1,0,2268491.37143106,2268492.41851179,6,1,1,31,3,10810519,41401609,0,31281110,0,0,0,10810519,0,0,0,0,0,0,0,0,0,0,41401609,0,0,0,0,0,0,0,0,0,0,0,0,0,0,0,-1170091,30111019,0,0,0,0
12,149,510.645772796124,0,0,2268494.08912956,2268495.1361972,6,1,0,3,31,260736432,247950512,217538642,134846633,21601519,30210209,-4170110,40010819,31810119,40300309,41311819,20210319,31111209,31001019,10001409,0,21711419,40011819,41611219,41501609,21412009,40700009,10211219,40602019,21500819,11700519,41000609,0,20411419,31611019,40501019,10010019,30010619,11712019,21200319,31000819,20301419,10611419,0,0
12,150,851.003231480718,0,0,2268496.66562708,2268497.71269279,6,0,0,33,31,167740502,238445231,166325902,137016485,22010619,10211009,20700409,41001509,11511819,20601419,0,21301809,20401909,20810219,31800609,21210209,41000009,30010619,10200419,41700119,31411509,10301519,11400719,0,10510109,40600319,20401809,30500519,21500509,20300109,11111809,20511209,20800409,0,20800719,30300909,-2101021,11801109,0,30701109
12,151,483.485236763954,1,0,2268499.64212868,2268500.68919978,6,0,1,17,31,188505903,167853715,210578461,236344621,0,31500209,32000509,10802019,31201419,31000309,31900919,0,20100519,40400819,30110219,30610619,11500719,0,31100519,20000619,-4130201,0,41401619,21611219,32010319,21511819,21011519,40410919,10100219,11410619,11110209,10610009,40400809,41900219,30410219,40510609,10311219,11100509,10400419,40700609
12,152,435.005563311279,1,0,2268502.2186339,2268503.26568459,6,1,1,18,3,40211319,12900749,0,20402009,0,0,0,0,40211319,0,0,0,0,0,11810609,0,0,0,0,0,0,-1090140,0,0,0,0,0,0,0,0,0,0,0,0,0,0,0,20402009,0,0
12,153,401.317244395614,1,0,2268504.72457115,2268505.77161068,6,0,1,16,9,175934684,43671490,20610419,11811419,0,31310709,21500809,0,31010009,21311019,0,30001719,40800419,40600409,0,0,0,0,0,-3071081,0,0,0,0,0,0,0,0,20610419,0,0,0,0,0,0,0,0,11811419,0,0
12,154,343.944203108549,1,0,2268507.26575427,2268508.31282229,6,1,1,10,9,131533446,56272178,30000919,10200309,0,0,30310209,0,0,30811509,30010019,40401709,0,-3040031,0,0,11411009,0,11010219,30810919,0,0,0,0,0,0,0,0,0,0,30000919,0,0,0,0,0,0,0,10200309,0
12,155,584.242993965745,1,0,2268509.67753893,2268510.72459848,6,1,1,25,9,0,10900609,81713097,115444675,0,0,0,0,0,0,0,0,0,0,0,0,0,0,0,0,0,10900609,0,20400609,0,20110019,0,0,-1091150,40111319,0,10301609,0,11211419,21010009,0,31111319,0,0,41810319
12,156,482.201007194817,0,0,2268512.38351037,2268513.43052757,6,0,0,29,3,51301328,0,30300719,2061001,0,31300819,0,0,0,0,0,0,20000509,0,0,0,0,0,0,0,0,0,0,0,30300719,0,0,0,0,0,0,0,-2061001,0,0,0,0,0,0,0
12,157,602.757306303829,0,0,2268526.37184951,2268527.41891407,7,1,0,30,19,168446084,156127974,41001338,98424506,31411019,0,0,0,20810319,32001409,10801409,31910819,41511109,0,10301309,0,11111309,0,40001509,31401319,22000909,41311619,0,0,0,0,0,0,11000019,30001319,0,41901709,11000319,-3110131,0,0,0,20401819,10500219,11510309
12,158,373.377933166921,0,0,2268529.20717515,2268530.25427012,7,1,0,11,31,234946212,108376924,209068702,229671021,30200509,31100319,11812009,30110009,30410319,0,21011119,40200509,40101419,10310009,-3031150,21701619,20311209,11312009,0,0,31110009,10600919,30401509,10210719,32011909,0,31912009,20910119,21911709,31300619,30410109,10102019,31911609,40610809,10212009,21000309,21510019,41011619,21301309,32011319
12,159,564.882922451943,1,0,2268531.79545055,2268532.84250047,7,0,1,34,3,40310019,0,81913628,3011131,0,0,0,0,40310019,0,0,0,0,0,0,0,0,0,0,0,0,0,40002019,0,0,0,0,0,41911609,0,0,0,0,0,0,0,0,-3011131,0,0
12,160,538.632049225271,0,0,2268534.52488997,2268535.57195338,7,0,0,24,19,53211628,155226245,210186964,187234174,0,21710519,0,0,0,0,0,31501109,0,0,30711409,10800009,41702009,41711009,0,0,0,30301809,40900519,42001909,41701819,21000409,22001119,-1171070,41410119,0,0,0,40701209,31101009,0,11611209,31610019,40800219,31410509,0
12,161,390.714264474809,0,0,2268537.1837395,2268538.23080906,7,1,0,28,9,30701609,10601219,52822737,125675566,0,0,0,30701609,0,0,0,0,0,0,0,0,0,0,0,10601219,0,0,0,0,20601409,0,0,0,20310409,0,11910919,-2050010,40811609,0,31210919,0,31601819,0,0,20001209
12,162,622.57317174226,1,0,2268539.72494033,2268540.77200142,7,1,1,25,9,0,10900609,81713097,115444675,0,0,0,0,0,0,0,0,0,0,0,0,0,0,0,0,0,10900609,0,20400609,0,20110019,0,0,-1091150,40111319,0,10301609,0,11211419,21010009,0,31111319,0,0,41810319
12,163,475.325604435056,1,0,2268542.5720346,2268543.61910532,7,0,1,29,3,31310419,12000519,0,14910529,31310419,0,0,0,0,0,0,0,0,0,0,0,0,0,0,0,0,12000519,0,0,0,0,0,0,0,0,0,0,-4110120,0,0,0,0,0,0,10800409
12,164,385.523836128414,1,0,2268545.24265431,2268546.28972502,7,0,1,22,9,33221218,73611028,55884028,52823257,0,0,0,21210209,0,0,0,0,12011009,0,0,0,0,0,0,41800609,31810419,0,0,20811209,0,-4071100,31001719,0,0,0,0,0,10802019,11010219,31011019,0,0,0,0,0
12,165,402.569907717407,1,0,2268547.8426918,2268548.88975328,7,1,1,6,0,0,0,0,0,0,0,0,0,0,-10210801,0,0,0,0,0,0,0,0,0,0,0,0,0,0,0,0,0,0,0,0,0,0,0,0,0,0,0,0,0,0
12,166,510.28275443241,0,0,2268550.32506906,2268551.37212399,7,1,0,35,19,155745875,176833354,101603727,117862295,0,0,31311219,21910519,40801419,0,41511509,20211209,0,31110409,0,41401009,0,0,30710109,31901109,31700709,10010009,30001909,0,0,31201309,0,0,0,0,40400509,10110509,0,0,0,20010309,21800119,20400009,-4030040,41511309
12,167,447.518334258348,0,0,2268552.94862882,2268553.9956953,7,0,0,16,31,187047302,220518282,155046222,234038583,30801019,20510219,11000309,10810109,21211909,40402009,10900509,41411219,0,31111919,10801119,41611819,40701309,40810109,32001309,-1160070,11610219,10710409,30600919,10301119,10210619,31001019,30511409,21610209,10510309,0,10300619,40601609,30601209,21301209,0,40310319,40002009,40411119,20811109,0
12,168,421.601222362369,0,0,2268555.6074922,2268556.65454829,7,0,0,9,19,146435365,104937146,174315003,54023347,10210409,0,41311219,0,0,41311519,31900419,20510609,-1191190,0,21811709,0,11111709,0,30611919,0,41401809,0,0,40700019,21300409,0,10001519,20600919,20500509,40710109,20501519,0,0,11610509,0,0,20901819,0,0,21511019
12,169,688.297171611339,0,0,2268558.19574065,2268559.242826,7,1,0,31,3,10810519,41401609,0,31281110,0,0,0,10810519,0,0,0,0,0,0,0,0,0,0,41401609,0,0,0,0,0,0,0,0,0,0,0,0,0,0,0,-1170091,30111019,0,0,0,0
12,170,581.258776597679,0,1,2268561.04283069,2268562.08990565,7,0,1,13,31,207428103,168900014,238730331,159637102,31201409,42010719,0,20502019,0,31102019,20710609,21300409,40600919,31200519,0,20501009,-3181111,41100619,10511109,20301919,31201919,10901809,41611219,20502009,20510919,21200909,22001609,30701209,20500819,30400219,31301419,11611009,0,10800919,40811319,10400519,11401209,11610409,41500709,21501009
12,171,614.406225271523,1,0,2268563.80757759,2268564.85464022,7,1,1,32,19,75914966,134046655,125735865,70175846,0,12002019,11701309,0,11711019,0,40500619,0,0,10411909,11611609,40200719,0,0,40811109,31011309,0,0,0,0,11000309,0,21611909,11011909,42010519,0,40101219,10911909,11800619,0,11200619,-3150171,21601009,11511519,0,0
12,172,504.549145698547,0,0,2268566.60760923,2268567.65466801,7,1,0,14,31,308650731,228898972,185145493,186416393,30601219,20000119,41301909,31310709,32001219,40501609,41411009,30311819,41211119,31911009,41301719,41310309,20401719,-2140150,30201019,30910609,20310619,10411819,20110219,30600119,10011409,41100209,31212009,10500719,0,41610809,0,41100319,0,40900109,20101809,20710919,0,31400509,21702009,10500719
12,173,503.867764957249,0,0,2268569.18410829,2268570.23121442,7,0,0,4,3,42310449,30901709,21011019,0,41210419,0,0,-1100030,0,0,0,0,0,0,30901709,0,0,0,0,0,0,0,0,0,21011019,0,0,0,0,0,0,0,0,0,0,0,0,0,0,0
12,174,513.889453373849,1,0,2268571.78418851,2268572.83120803,7,1,1,18,3,40211319,12900749,0,20402009,0,0,0,0,40211319,0,0,0,0,0,11810609,0,0,0,0,0,0,-1090140,0,0,0,0,0,0,0,0,0,0,0,0,0,0,0,20402009,0,0
12,175,621.805944945663,1,0,2268574.49006833,2268575.53711633,7,0,1,33,9,82402618,72423047,40601338,75701478,0,0,0,0,41201309,0,0,41201309,0,0,20300309,0,0,31611419,20511319,0,0,0,0,0,0,0,0,0,0,30300019,10301319,0,40000019,31700319,0,0,-4001140,0,0,0
12,176,439.210876822472,1,0,2268577.20773065,2268578.25483486,7,0,1,17,9,75222656,74901918,0,62722047,0,11411419,20900909,0,11000319,31910009,0,0,0,41000809,0,0,0,0,0,0,-2190090,31711019,0,0,0,0,0,0,0,0,0,0,21000619,0,30010109,0,0,0,0,11711319
12,177,799.460424110293,0,0,2268579.77246799,2268580.81952985,7,0,0,36,19,104745855,123635365,114853255,94943366,30112009,0,11710009,0,40700919,0,11311209,0,10911709,20601419,0,40611409,30110009,0,20901309,11411219,0,0,20311109,10410819,0,0,11010109,0,0,32011109,41110109,20510919,10210609,40601019,0,0,0,0,21600619,-2020200
12,178,593.576757702976,0,0,2268582.73720595,2268583.78426897,7,1,0,3,31,260736432,247950512,217538642,134846633,21601519,30210209,-4170110,40010819,31810119,40300309,41311819,20210319,31111209,31001019,10001409,0,21711419,40011819,41611219,41501609,21412009,40700009,10211219,40602019,21500819,11700519,41000609,0,20411419,31611019,40501019,10010019,30010619,11712019,21200319,31000819,20301419,10611419,0,0
12,179,777.905304450542,1,0,2268585.54900046,2268586.59607388,7,0,1,27,31,146027783,176257422,180720373,229471431,30211819,21511109,21101609,0,10401809,30800109,21700109,0,10301219,20201319,20510009,10911419,30611919,0,31300509,10300719,41510309,10911219,40211019,30801419,20511409,11211619,31601519,0,22011509,20200819,-4171060,11911309,31700909,30111919,40801919,40111319,20011209,12001009,30811619,12010219
12,180,455.031231977046,1,0,2268588.56079336,2268589.6078633,7,0,1,20,0,0,0,0,0,0,0,0,0,0,0,0,0,0,0,0,0,0,0,0,0,0,0,0,-31800601,0,0,0,0,0,0,0,0,0,0,0,0,0,0,0,0
12,181,487.338696140796,0,0,2268591.23141845,2268592.27848801,7,1,0,10,9,131533446,56272178,30000919,10200309,0,0,30310209,0,0,30811509,30010019,40401709,0,-3040031,0,0,11411009,0,11010219,30810919,0,0,0,0,0,0,0,0,0,0,30000919,0,0,0,0,0,0,0,10200309,0
12,182,548.639879561961,1,0,2268593.84321304,2268594.89028375,7,1,1,2,3,4171161,31801809,52613628,0,0,-4171161,0,0,0,0,0,0,0,0,31801809,0,0,0,0,0,0,0,0,20811909,0,0,31801719,0,0,0,0,0,0,0,0,0,0,0,0,0
12,183,620.193728245795,0,0,2268607.73749159,2268608.78455654,8,0,0,13,31,238918541,229898493,237526932,76425694,40101419,31701609,30100509,11411319,40301919,40400519,11600809,11800119,21500319,30900719,20810609,31902019,-2160181,31501819,20300209,20100709,31111419,41110809,41811019,40401509,11811109,30400519,0,40501119,20501019,40100419,12000219,0,0,11712019,0,10400519,21711019,11700409,10301219,10600509
12,184,514.761005528271,0,0,2268610.5140206,2268611.56106129,8,0,0,24,3,30700909,42211318,3051111,0,0,0,0,0,30700909,0,0,0,0,0,30611009,0,0,11600309,0,0,0,0,0,0,0,0,0,-3051111,0,0,0,0,0,0,0,0,0,0,0,0
12,185,553.8160642609,1,0,2268613.21990773,2268614.26698615,8,0,1,36,9,41610609,72720928,83830737,116691927,0,41610609,0,0,0,0,0,0,0,31910819,0,0,0,0,40810109,0,0,0,0,0,12010119,0,0,31310609,0,40510009,0,30400109,0,0,0,41200109,0,42010509,0,-3081200
12,186,497.492811642587,1,0,2268615.86699824,2268616.91406703,8,0,1,22,3,72213128,0,4131201,22000119,30801909,0,0,0,0,0,0,41411219,0,0,0,0,0,0,0,0,0,0,0,0,0,-4131201,0,0,0,0,0,0,0,0,0,0,0,0,22000119,0
12,187,509.244514629245,0,0,2268618.50232626,2268619.5493912,8,1,0,10,9,131533446,56272178,30000919,10200309,0,0,30310209,0,0,30811509,30010019,40401709,0,-3040031,0,0,11411009,0,11010219,30810919,0,0,0,0,0,0,0,0,0,0,30000919,0,0,0,0,0,0,0,10200309,0
12,188,701.828164979815,1,0,2268621.07882416,2268622.12588987,8,1,1,35,19,155745875,176833354,101603727,117862295,0,0,31311219,21910519,40801419,0,41511509,20211209,0,31110409,0,41401009,0,0,30710109,31901109,31700709,10010009,30001909,0,0,31201309,0,0,0,0,40400509,10110509,0,0,0,20010309,21800119,20400009,-4030040,41511309
12,189,438.859022222459,0,0,2268623.937689,2268624.98479744,8,1,0,3,31,260736432,247950512,217538642,134846633,21601519,30210209,-4170110,40010819,31810119,40300309,41311819,20210319,31111209,31001019,10001409,0,21711419,40011819,41611219,41501609,21412009,40700009,10211219,40602019,21500819,11700519,41000609,0,20411419,31611019,40501019,10010019,30010619,11712019,21200319,31000819,20301419,10611419,0,0
12,190,369.086388498545,0,0,2268626.60830178,2268627.65536171,8,0,0,15,0,0,0,0,0,0,0,0,0,0,0,0,0,0,0,0,0,0,0,-41601991,0,0,0,0,0,0,0,0,0,0,0,0,0,0,0,0,0,0,0,0,0
12,191,657.34900534153,1,0,2268629.16126701,2268630.20832118,8,1,1,2,3,4171161,31801809,52613628,0,0,-4171161,0,0,0,0,0,0,0,0,31801809,0,0,0,0,0,0,0,0,20811909,0,0,31801719,0,0,0,0,0,0,0,0,0,0,0,0,0
12,192,633.287790231407,0,0,2268631.9142418,2268632.96131059,8,0,0,29,31,208648302,180959411,187439582,196155764,11011319,31611709,30901709,41510909,11601909,31200219,40510219,0,10300309,10811219,31510619,21701319,30400209,21301809,21811909,20410909,11401309,11610109,10211409,21910109,0,20111809,21400709,21600709,41102009,30901519,20201309,0,-1141070,0,40901619,40310409,20300709,40601219,21500319,31400419
12,193,525.651935487986,1,0,2268634.78485873,2268635.8319306,8,1,1,6,0,0,0,0,0,0,0,0,0,0,-10210801,0,0,0,0,0,0,0,0,0,0,0,0,0,0,0,0,0,0,0,0,0,0,0,0,0,0,0,0,0,0
12,194,476.019688881934,1,0,2268637.4672463,2268638.51431356,8,0,1,27,31,256650622,189660012,207535602,206946583,0,41511519,10601719,40711809,11211619,40100419,42000409,30401609,40111519,21211219,0,10211709,21110209,22001409,20611319,31511919,21000419,42001809,20810919,20510209,30611209,40811109,30511219,11500119,20810009,30800709,-1170100,0,21010119,20211409,32000309,31801409,31210309,0,40111119,30601909
12,195,564.63885679841,0,0,2268640.19668997,2268641.24376107,8,1,0,25,9,0,10900609,81713097,115444675,0,0,0,0,0,0,0,0,0,0,0,0,0,0,0,0,0,10900609,0,20400609,0,20110019,0,0,-1091150,40111319,0,10301609,0,11211419,21010009,0,31111319,0,0,41810319
12,196,451.50075526908,0,0,2268642.89083925,2268643.93790958,8,1,0,28,9,30701609,10601219,52822737,125675566,0,0,0,30701609,0,0,0,0,0,0,0,0,0,0,0,10601219,0,0,0,0,20601409,0,0,0,20310409,0,11910919,-2050010,40811609,0,31210919,0,31601819,0,0,20001209
12,197,405.816668178886,1,0,2268645.50263769,2268646.54969339,8,0,1,17,19,103502436,75402988,185646375,237134783,0,40600509,41000209,0,0,11001009,0,0,10900709,0,0,31101519,0,31501009,11600419,0,-1200041,0,41910809,0,31812019,0,40411919,0,40301209,31210419,0,40500809,21010809,31310209,20600219,41201719,0,41810509,40700509,0
12,198,518.822728190571,1,0,2268648.11444498,2268649.16149915,8,1,1,11,31,234946212,108376924,209068702,229671021,30200509,31100319,11812009,30110009,30410319,0,21011119,40200509,40101419,10310009,-3031150,21701619,20311209,11312009,0,0,31110009,10600919,30401509,10210719,32011909,0,31912009,20910119,21911709,31300619,30410109,10102019,31911609,40610809,10212009,21000309,21510019,41011619,21301309,32011319
12,199,537.913712207228,1,0,2268650.77328372,2268651.82034828,8,1,1,14,31,308650731,228898972,185145493,186416393,30601219,20000119,41301909,31310709,32001219,40501609,41411009,30311819,41211119,31911009,41301719,41310309,20401719,-2140150,30201019,30910609,20310619,10411819,20110219,30600119,10011409,41100209,31212009,10500719,0,41610809,0,41100319,0,40900109,20101809,20710919,0,31400509,21702009,10500719
12,200,574.185503646731,0,0,2268653.38486942,2268654.43214364,8,0,0,34,9,52812028,74411957,0,124985576,0,0,0,0,41201219,11610809,0,0,0,0,0,0,0,0,0,31800119,10901419,31710419,0,0,0,0,0,0,0,0,0,10701609,42010119,0,41001819,0,0,-1061120,0,30210909
12,201,840.066875796765,0,0,2268656.03216651,2268657.07922914,8,0,0,9,19,149623816,133923095,94224946,84537175,41901919,0,30310909,21410019,0,32010819,0,20800019,-3190131,10201919,20210419,0,0,30610119,31100619,41800019,0,0,11711409,30401519,0,31300909,0,20811109,0,0,0,0,0,0,11100409,21301619,10012019,30611109,11512019,0
12,202,633.866771589965,1,0,2268659.02046446,2268660.06750169,8,1,1,31,3,10810519,41401609,0,31281110,0,0,0,10810519,0,0,0,0,0,0,0,0,0,0,41401609,0,0,0,0,0,0,0,0,0,0,0,0,0,0,0,-1170091,30111019,0,0,0,0
12,203,488.308412954211,1,0,2268661.80870013,2268662.85577855,8,1,1,18,3,40211319,12900749,0,20402009,0,0,0,0,40211319,0,0,0,0,0,11810609,0,0,0,0,0,0,-1090140,0,0,0,0,0,0,0,0,0,0,0,0,0,0,0,20402009,0,0
12,204,750.476836226881,1,0,2268664.40873416,2268665.45580565,8,1,1,30,19,168446084,156127974,41001338,98424506,31411019,0,0,0,20810319,32001409,10801409,31910819,41511109,0,10301309,0,11111309,0,40001509,31401319,22000909,41311619,0,0,0,0,0,0,11000019,30001319,0,41901709,11000319,-3110131,0,0,0,20401819,10500219,11510309
12,205,560.268780216575,0,0,2268667.29116247,2268668.34998258,8,0,0,33,19,135513156,75503856,176905055,179935494,42011009,0,0,41801719,30100119,21600309,0,0,0,0,12000409,0,0,11001019,21902019,0,30600409,0,41300309,41400609,0,0,10301019,41901709,42001409,0,0,40811609,42011909,31210109,0,0,-4091030,40800419,10110209,10900209
12,206,463.069602381438,0,0,2268670.09121374,2268671.13822903,8,1,0,32,19,75914966,134046655,125735865,70175846,0,12002019,11701309,0,11711019,0,40500619,0,0,10411909,11611609,40200719,0,0,40811109,31011309,0,0,0,0,11000309,0,21611909,11011909,42010519,0,40101219,10911909,11800619,0,11200619,-3150171,21601009,11511519,0,0
12,207,584.366181399673,0,0,2268672.7735274,2268673.82061198,8,0,0,16,9,84344256,67074207,41711209,41111509,0,0,0,40210919,11511519,0,0,11211309,21410509,0,0,10110619,0,42011719,0,-3151160,11800709,0,0,0,0,0,0,0,0,0,41711209,0,0,0,0,0,0,41111509,0,0
12,208,447.945256251842,1,0,2268675.49122321,2268676.53828161,8,0,1,4,3,43442479,41700519,30701219,0,0,0,0,-2041170,0,0,0,41401309,0,0,0,0,0,0,0,0,41700519,0,0,0,0,0,30701219,0,0,0,0,0,0,0,0,0,0,0,0,0
12,209,521.713399793953,0,0,2268681.24421686,2268682.29128873,9,0,0,33,3,0,52502837,0,4030021,0,0,0,0,0,0,0,0,0,0,0,0,31201409,0,10100009,0,0,11201419,0,0,0,0,0,0,0,0,0,0,0,0,0,0,-4030021,0,0,0
12,210,571.440732572228,1,0,2268683.8324811,2268684.87957299,9,1,1,14,31,308650731,228898972,185145493,186416393,30601219,20000119,41301909,31310709,32001219,40501609,41411009,30311819,41211119,31911009,41301719,41310309,20401719,-2140150,30201019,30910609,20310619,10411819,20110219,30600119,10011409,41100209,31212009,10500719,0,41610809,0,41100319,0,40900109,20101809,20710919,0,31400509,21702009,10500719
12,211,533.65219430998,1,0,2268686.49134717,2268687.53841288,9,0,1,34,9,84213147,113413937,41712019,46411818,0,21400709,31711219,0,0,0,31101219,0,0,0,0,0,42000809,0,0,30611809,40801319,0,0,0,0,41712019,0,0,0,0,0,0,0,0,10811319,0,31400319,-4200180,0,0
12,212,400.838738307357,1,0,2268689.11490424,2268690.162025,9,0,1,17,3,41402009,22671220,11800919,0,0,0,41402009,0,0,0,0,0,0,0,0,0,0,0,0,0,-2060201,20611019,0,0,0,0,0,0,0,11800919,0,0,0,0,0,0,0,0,0,0
12,213,558.43213154003,1,0,2268691.73846401,2268692.78553549,9,1,1,31,3,10810519,41401609,0,31281110,0,0,0,10810519,0,0,0,0,0,0,0,0,0,0,41401609,0,0,0,0,0,0,0,0,0,0,0,0,0,0,0,-1170091,30111019,0,0,0,0
12,214,554.379262495786,0,0,2268694.44438501,2268695.49144957,9,1,0,18,3,40211319,12900749,0,20402009,0,0,0,0,40211319,0,0,0,0,0,11810609,0,0,0,0,0,0,-1090140,0,0,0,0,0,0,0,0,0,0,0,0,0,0,0,20402009,0,0
12,215,461.044322233647,0,0,2268697.22094097,2268698.26794663,9,0,0,27,31,228449512,205946702,207948483,188039092,40801909,31611919,20710209,31601409,40610109,30900819,11801119,0,20412019,20400309,31001419,31001319,30501509,20010119,40810909,20311009,0,11910109,30311109,0,41011109,10711709,20301709,21010719,41710019,41711109,-1181000,40911909,20600709,11601719,10811209,0,22000909,21510109,30600519,30002009
12,216,429.075624328107,1,0,2268699.7385564,2268700.78562134,9,0,1,22,19,113023556,125424585,119546804,105213936,0,0,30900209,20101619,21910519,40111209,0,0,0,0,10810319,30001119,0,41610519,21501009,0,0,21501619,20900919,21611819,0,-2090100,20211119,0,11111209,12010619,31611019,11810109,0,0,0,0,31401509,40201009,21801309,0
12,217,521.264150738716,0,0,2268702.35034983,2268703.39741747,9,0,0,36,31,239171311,124024284,217948511,157856833,40000009,21711409,20610109,41502019,11811609,10711809,41611419,10011409,41201519,30510309,10311809,11300719,0,20300219,30801119,20800109,0,0,41500419,10801709,30600909,10110319,10800409,21100709,31311309,21410719,40312009,40801209,11010519,21810709,30612019,0,10101319,30200109,11200919,-2120030
12,218,690.643123816699,0,0,2268705.06803447,2268706.11509865,9,1,0,28,9,30701609,10601219,52822737,125675566,0,0,0,30701609,0,0,0,0,0,0,0,0,0,0,0,10601219,0,0,0,0,20601409,0,0,0,20310409,0,11910919,-2050010,40811609,0,31210919,0,31601819,0,0,20001209
12,219,553.377979435027,1,0,2268707.95040465,2268708.99747652,9,1,1,32,19,75914966,134046655,125735865,70175846,0,12002019,11701309,0,11711019,0,40500619,0,0,10411909,11611609,40200719,0,0,40811109,31011309,0,0,0,0,11000309,0,21611909,11011909,42010519,0,40101219,10911909,11800619,0,11200619,-3150171,21601009,11511519,0,0
12,220,446.704911999404,1,0,2268710.66809853,2268711.71516078,9,0,1,29,31,179160631,291238631,167935213,137578754,31610019,31011619,10611419,30200809,11711519,10301609,11901919,10311209,31500509,41811909,21410909,30000119,41000719,41600909,31102009,41100319,11511419,31700319,0,31410009,12001819,21710709,31900019,20110219,0,10601819,40200619,12011009,-2141070,40700509,20311719,21011709,21101219,0,0,20301519
12,221,428.736859001219,1,0,2268713.18581405,2268714.23283973,9,0,1,4,9,96702547,31611919,102612727,72202328,0,41800109,0,-3080010,0,30611619,0,21210809,0,0,0,0,31611919,0,0,0,0,0,0,0,0,0,0,40100609,0,21210409,41301709,0,0,0,0,40300309,0,31902019,0,0
12,222,479.935126844794,0,0,2268715.73878275,2268716.78581728,9,0,0,24,19,115927014,134746274,85804387,102725166,11800619,30300619,10601919,21911219,20611719,0,20700919,0,0,10410619,0,20201409,0,21210319,31701509,10810909,40411509,0,21010419,30011119,0,0,31711719,-3071130,0,0,0,0,30401719,0,20610709,10301819,0,41410919,0,0
12,223,677.634523250163,0,0,2268718.38587595,2268719.43289932,9,1,0,25,9,0,10900609,81713097,115444675,0,0,0,0,0,0,0,0,0,0,0,0,0,0,0,0,0,10900609,0,20400609,0,20110019,0,0,-1091150,40111319,0,10301609,0,11211419,21010009,0,31111319,0,0,41810319
12,224,549.982623197138,1,0,2268721.15057665,2268722.19764121,9,1,1,30,19,168446084,156127974,41001338,98424506,31411019,0,0,0,20810319,32001409,10801409,31910819,41511109,0,10301309,0,11111309,0,40001509,31401319,22000909,41311619,0,0,0,0,0,0,11000019,30001319,0,41901709,11000319,-3110131,0,0,0,20401819,10500219,11510309
12,225,579.260059632361,0,0,2268723.9153093,2268724.96237693,9,0,0,13,9,72302318,45171749,63223337,62413947,0,41900409,0,0,0,30401909,0,0,0,0,0,0,-4070040,0,0,41101709,0,0,0,0,0,41410109,10011419,11801809,0,0,0,31511109,20302019,0,10600819,0,0,0,0,0
12,226,509.928205516189,0,0,2268726.5976834,2268727.64477067,9,1,0,6,0,0,0,0,0,0,0,0,0,0,-10210801,0,0,0,0,0,0,0,0,0,0,0,0,0,0,0,0,0,0,0,0,0,0,0,0,0,0,0,0,0,0
12,227,467.127475421876,1,0,2268729.20948799,2268730.2565514,9,0,1,16,0,0,0,0,0,0,0,0,0,0,0,0,0,0,0,0,0,0,0,0,-10510501,0,0,0,0,0,0,0,0,0,0,0,0,0,0,0,0,0,0,0,0
12,228,457.045732997358,0,0,2268731.82128682,2268732.86834059,9,1,0,2,3,4171161,31801809,52613628,0,0,-4171161,0,0,0,0,0,0,0,0,31801809,0,0,0,0,0,0,0,0,20811909,0,0,31801719,0,0,0,0,0,0,0,0,0,0,0,0,0
12,229,785.18876619637,0,0,2268734.48014365,2268735.52720705,9,1,0,10,9,131533446,56272178,30000919,10200309,0,0,30310209,0,0,30811509,30010019,40401709,0,-3040031,0,0,11411009,0,11010219,30810919,0,0,0,0,0,0,0,0,0,0,30000919,0,0,0,0,0,0,0,10200309,0
12,230,646.082352846861,1,0,2268737.37432366,2268738.42135164,9,1,1,35,19,155745875,176833354,101603727,117862295,0,0,31311219,21910519,40801419,0,41511509,20211209,0,31110409,0,41401009,0,0,30710109,31901109,31700709,10010009,30001909,0,0,31201309,0,0,0,0,40400509,10110509,0,0,0,20010309,21800119,20400009,-4030040,41511309
12,231,444.183032494038,1,0,2268740.12726341,2268741.17432643,9,0,1,9,19,97383557,105634385,103536084,74021936,0,31200219,0,0,20500219,0,21901709,21711219,-2070191,0,30910819,10801319,41110409,0,0,0,11311619,11500219,20700809,10610409,10211419,0,11800719,30002009,0,0,20210719,11501909,0,20200009,31410009,10910009,0,0,0,0
12,232,412.367548793554,0,0,2268742.6449312,2268743.6920073,9,0,0,16,3,30510209,4130110,40100419,21300309,0,0,0,0,0,0,0,30510209,0,0,0,0,0,0,0,-4130110,0,0,0,0,0,0,0,0,0,0,40100419,0,21300309,0,0,0,0,0,0,0
12,233,529.662844259292,1,0,2268745.2567304,2268746.30379227,9,1,1,3,31,260736432,247950512,217538642,134846633,21601519,30210209,-4170110,40010819,31810119,40300309,41311819,20210319,31111209,31001019,10001409,0,21711419,40011819,41611219,41501609,21412009,40700009,10211219,40602019,21500819,11700519,41000609,0,20411419,31611019,40501019,10010019,30010619,11712019,21200319,31000819,20301419,10611419,0,0
12,234,485.220255795866,0,0,2268748.04500264,2268749.09206374,9,1,0,11,31,234946212,108376924,209068702,229671021,30200509,31100319,11812009,30110009,30410319,0,21011119,40200509,40101419,10310009,-3031150,21701619,20311209,11312009,0,0,31110009,10600919,30401509,10210719,32011909,0,31912009,20910119,21911709,31300619,30410109,10102019,31911609,40610809,10212009,21000309,21510019,41011619,21301309,32011319
12,235,681.210425216705,0,0,2268753.79807406,2268754.84506586,10,1,0,31,3,10810519,41401609,0,31281110,0,0,0,10810519,0,0,0,0,0,0,0,0,0,0,41401609,0,0,0,0,0,0,0,0,0,0,0,0,0,0,0,-1170091,30111019,0,0,0,0
12,236,451.503835152835,0,0,2268756.71569164,2268757.76275543,10,0,0,17,31,187537492,231207863,196537673,238919411,0,20910309,41201009,30000309,20300519,21001909,20402009,11711119,22010309,0,30111809,21811919,21501119,41100209,31100019,40811719,-3071060,41700009,40301319,11011209,41510909,41601709,30701809,20000709,0,11410009,0,30000619,11401109,20801819,20611109,20501609,41700809,31700519,31501009,30700809
12,237,397.762130014598,0,0,2268759.37453,2268760.42160803,10,0,0,9,19,116763946,155659813,93113337,105544175,0,0,31410109,21100609,0,31111919,32000209,0,-1141100,0,0,40111219,11911319,10311019,31501909,11401909,20311519,30110919,0,0,30801909,20300709,42010719,0,0,0,0,22010219,0,41311419,10211519,11600509,0,0,0,20410509
12,238,509.463557507843,0,0,2268761.9745775,2268763.02164167,10,0,0,13,31,167427392,159327214,148736612,146327112,21800109,10611419,21101009,31110809,0,10000119,31501609,21201909,20100409,0,20600419,10200109,-4191111,10911519,20310219,41010309,21401709,30701819,10000819,20810419,21310809,10901909,20700709,31610819,21400119,12001009,0,11401609,0,21010119,20000009,10301919,11200909,20001919,31710609,20700019
12,239,743.859742302448,1,0,2268764.58641867,2268765.63343241,10,0,1,34,19,185234904,125024166,142214776,109336506,0,0,40101319,0,30600609,41301019,20310519,41111019,11810419,0,0,41910519,0,31311109,20301219,0,0,31501319,0,0,0,40401719,40000219,30411719,0,0,31401119,0,0,21910909,0,31900519,11111619,-3011121,11302019,30100319
12,240,482.276074122638,0,0,2268767.45699364,2268768.50405396,10,1,0,25,9,0,10900609,81713097,115444675,0,0,0,0,0,0,0,0,0,0,0,0,0,0,0,0,0,10900609,0,20400609,0,20110019,0,0,-1091150,40111319,0,10301609,0,11211419,21010009,0,31111319,0,0,41810319
12,241,446.55015738681,1,0,2268770.08061423,2268771.12761527,10,1,1,14,31,308650731,228898972,185145493,186416393,30601219,20000119,41301909,31310709,32001219,40501609,41411009,30311819,41211119,31911009,41301719,41310309,20401719,-2140150,30201019,30910609,20310619,10411819,20110219,30600119,10011409,41100209,31212009,10500719,0,41610809,0,41100319,0,40900109,20101809,20710919,0,31400509,21702009,10500719
12,242,531.824399717152,1,0,2268772.70411009,2268773.75121622,10,0,1,27,9,21421538,21321628,47061929,92213447,10711119,0,0,10710419,0,0,0,0,0,10310019,0,0,11011609,0,0,0,0,0,0,0,21501319,0,0,0,0,21510419,-4050191,0,40300619,0,0,40500909,0,0,0,11411919
12,243,423.440180718899,1,0,2268775.43354605,2268776.48061754,10,1,1,10,9,131533446,56272178,30000919,10200309,0,0,30310209,0,0,30811509,30010019,40401709,0,-3040031,0,0,11411009,0,11010219,30810919,0,0,0,0,0,0,0,0,0,0,30000919,0,0,0,0,0,0,0,10200309,0
12,244,482.306871097535,0,0,2268778.08064079,2268779.12770727,10,0,0,22,3,0,10111519,36032610,30111419,0,0,0,0,0,0,0,0,0,0,10111519,0,0,0,0,0,0,0,0,31901509,0,-4131101,0,0,0,0,0,0,0,0,0,0,0,0,30111419,0
12,245,417.621111497283,0,0,2268780.73949301,2268781.78655833,10,0,0,16,3,41811128,1171120,10611519,0,10400009,0,0,0,0,0,0,31411119,0,0,0,0,0,0,0,-1171120,0,0,0,0,0,0,0,0,0,0,10611519,0,0,0,0,0,0,0,0,0
12,246,531.725464854389,1,0,2268783.35129683,2268784.39835562,10,0,1,29,9,94912047,41311719,81920927,35872829,0,41410819,0,41800019,0,0,0,0,11701209,0,0,0,41311719,0,0,0,0,0,20410209,0,0,40010009,0,0,0,21500709,0,0,-2151091,0,0,11710319,0,0,22011419,0
12,247,398.643305990845,1,0,2268785.99838464,2268787.04544535,10,0,1,9,0,0,0,0,0,0,0,0,0,0,0,0,0,-11311591,0,0,0,0,0,0,0,0,0,0,0,0,0,0,0,0,0,0,0,0,0,0,0,0,0,0,0
12,248,420.690789818764,0,0,2268788.51606782,2268789.56316895,10,1,0,6,0,0,0,0,0,0,0,0,0,0,-10210801,0,0,0,0,0,0,0,0,0,0,0,0,0,0,0,0,0,0,0,0,0,0,0,0,0,0,0,0,0,0
12,249,518.924743402749,0,0,2268791.17491042,2268792.22197497,10,1,0,3,31,260736432,247950512,217538642,134846633,21601519,30210209,-4170110,40010819,31810119,40300309,41311819,20210319,31111209,31001019,10001409,0,21711419,40011819,41611219,41501609,21412009,40700009,10211219,40602019,21500819,11700519,41000609,0,20411419,31611019,40501019,10010019,30010619,11712019,21200319,31000819,20301419,10611419,0,0
12,250,497.742651030421,0,0,2268793.86912091,2268794.91612195,10,1,0,28,9,30701609,10601219,52822737,125675566,0,0,0,30701609,0,0,0,0,0,0,0,0,0,0,0,10601219,0,0,0,0,20601409,0,0,0,20310409,0,11910919,-2050010,40811609,0,31210919,0,31601819,0,0,20001209
12,251,492.819385137409,0,0,2268796.51614982,2268797.56321515,10,1,0,2,3,4171161,31801809,52613628,0,0,-4171161,0,0,0,0,0,0,0,0,31801809,0,0,0,0,0,0,0,0,20811909,0,0,31801719,0,0,0,0,0,0,0,0,0,0,0,0,0
12,252,569.98942932114,0,0,2268799.13970497,2268800.18677337,10,1,0,30,19,168446084,156127974,41001338,98424506,31411019,0,0,0,20810319,32001409,10801409,31910819,41511109,0,10301309,0,11111309,0,40001509,31401319,22000909,41311619,0,0,0,0,0,0,11000019,30001319,0,41901709,11000319,-3110131,0,0,0,20401819,10500219,11510309
12,253,460.741358343512,1,0,2268801.86915248,2268802.91620587,10,0,1,24,19,123714155,105434366,135317866,113917255,40600419,30700609,0,11500509,20710909,0,20201709,0,0,0,11311219,0,11112019,0,0,41500509,0,41510619,0,0,20901219,20801709,20201619,-2191001,0,40111409,31110909,21501819,0,0,10500709,0,0,40511909,11300909,30101909
12,254,461.546696722507,1,0,2268804.57506771,2268805.62212919,10,0,1,4,3,34241780,10611709,0,11300019,0,31111719,0,-3130061,0,0,0,0,0,0,0,0,0,0,10611709,0,0,0,0,0,0,0,0,0,0,0,0,0,0,0,0,0,11300019,0,0,0
12,255,679.891164414585,1,0,2268807.23390876,2268808.28097293,10,1,1,32,19,75914966,134046655,125735865,70175846,0,12002019,11701309,0,11711019,0,40500619,0,0,10411909,11611609,40200719,0,0,40811109,31011309,0,0,0,0,11000309,0,21611909,11011909,42010519,0,40101219,10911909,11800619,0,11200619,-3150171,21601009,11511519,0,0
12,256,410.592879168689,1,0,2268810.0692471,2268811.11631127,10,0,1,36,9,32522218,53432957,20511128,53672938,11611209,0,0,0,0,0,0,0,20911009,0,11510319,20611319,0,21311319,0,0,0,0,0,10500909,0,0,0,10010219,0,0,0,0,0,0,0,31210919,0,20412009,0,-2050010
12,257,537.253119051456,1,0,2268812.6692946,2268813.71634723,10,0,1,33,31,218170482,185429574,238859711,241488773,41610909,11811819,31101909,10711909,30611609,30111309,21910809,40300209,0,11601409,0,0,0,41402009,30401619,31601919,30211509,40211109,21310609,11902009,11411309,41801609,30301709,30200919,20010609,31810819,40110119,21610809,31501209,31701719,10000119,41411809,-4130061,40410509,30711819,30010719
12,258,457.824124023318,1,0,2268815.44579589,2268816.49284813,10,1,1,35,19,155745875,176833354,101603727,117862295,0,0,31311219,21910519,40801419,0,41511509,20211209,0,31110409,0,41401009,0,0,30710109,31901109,31700709,10010009,30001909,0,0,31201309,0,0,0,0,40400509,10110509,0,0,0,20010309,21800119,20400009,-4030040,41511309
12,259,534.871365875006,0,0,2268818.10463425,2268819.15171113,10,1,0,18,3,40211319,12900749,0,20402009,0,0,0,0,40211319,0,0,0,0,0,11810609,0,0,0,0,0,0,-1090140,0,0,0,0,0,0,0,0,0,0,0,0,0,0,0,20402009,0,0
12,260,463.40143866837,1,0,2268820.77525126,2268821.83408638,10,1,1,11,31,234946212,108376924,209068702,229671021,30200509,31100319,11812009,30110009,30410319,0,21011119,40200509,40101419,10310009,-3031150,21701619,20311209,11312009,0,0,31110009,10600919,30401509,10210719,32011909,0,31912009,20910119,21911709,31300619,30410109,10102019,31911609,40610809,10212009,21000309,21510019,41011619,21301309,32011319
12,261,680.239939130843,1,0,2268832.54009401,2268833.58716126,11,1,1,25,9,0,10900609,81713097,115444675,0,0,0,0,0,0,0,0,0,0,0,0,0,0,0,0,0,10900609,0,20400609,0,20110019,0,0,-1091150,40111319,0,10301609,0,11211419,21010009,0,31111319,0,0,41810319
12,262,562.92578112334,0,0,2268835.32836663,2268836.37542734,11,0,0,29,19,144306265,148316513,113332965,63231348,0,0,31301209,0,0,30501809,11302019,30601219,40600009,21401309,11201319,20700719,31301019,11710019,10701819,41300309,0,0,0,10010109,40001319,41110009,0,10201309,0,12010219,0,32010109,-1110020,0,0,0,0,0,0,30111219
12,263,464.414271060377,1,0,2268838.09310313,2268839.14016884,11,0,1,24,31,145247223,283036721,196930063,166643613,20110919,11011219,40010619,0,10701919,21800819,21210809,20400919,0,31811109,31201309,41300209,10410119,41501209,31700319,41510419,42001219,11600809,10801909,41100009,10211219,40311219,20201009,-1190041,21111919,31400819,20601919,0,11601219,31500209,11810019,30010119,0,40210919,21510909,20000219
12,264,465.694651007652,1,0,2268840.66965955,2268841.71666405,11,0,1,36,19,133413756,156246174,93125637,198425475,0,30600519,0,31201709,30100619,0,0,0,41510909,0,0,30212009,11810809,11110819,30501509,41610609,31000419,0,30111719,0,31512009,0,0,0,0,0,31501909,40700409,20300719,42010909,20700809,41210819,0,31411709,0,-2090101
12,265,488.916650880128,0,0,2268843.37558094,2268844.42262471,11,0,0,4,0,0,0,0,0,0,0,0,-11401501,0,0,0,0,0,0,0,0,0,0,0,0,0,0,0,0,0,0,0,0,0,0,0,0,0,0,0,0,0,0,0,0
12,266,528.320869896561,1,0,2268846.10495723,2268847.15202064,11,1,1,18,3,40211319,12900749,0,20402009,0,0,0,0,40211319,0,0,0,0,0,11810609,0,0,0,0,0,0,-1090140,0,0,0,0,0,0,0,0,0,0,0,0,0,0,0,20402009,0,0
12,267,562.624356709421,1,0,2268848.86969604,2268849.91675983,11,0,1,27,3,0,41100119,1170071,32122128,0,0,0,0,0,0,0,0,0,0,0,0,0,0,41100119,0,0,0,0,0,0,0,0,0,0,0,-1170071,0,0,0,0,0,11710719,20411409,0,0
12,268,526.582771446556,0,0,2268851.66973154,2268852.71679494,11,1,0,11,31,234946212,108376924,209068702,229671021,30200509,31100319,11812009,30110009,30410319,0,21011119,40200509,40101419,10310009,-3031150,21701619,20311209,11312009,0,0,31110009,10600919,30401509,10210719,32011909,0,31912009,20910119,21911709,31300619,30410109,10102019,31911609,40610809,10212009,21000309,21510019,41011619,21301309,32011319
12,269,520.474981050938,1,0,2268854.37562983,2268855.42271325,11,1,1,31,3,10810519,41401609,0,31281110,0,0,0,10810519,0,0,0,0,0,0,0,0,0,0,41401609,0,0,0,0,0,0,0,0,0,0,0,0,0,0,0,-1170091,30111019,0,0,0,0
12,270,510.336264036596,0,0,2268857.11685022,2268858.16391439,11,0,0,13,9,53912238,65784647,0,114002266,0,0,0,12000419,0,0,41911819,0,0,10501109,0,0,-2180200,0,11601419,41501919,0,0,0,0,0,0,0,0,0,0,0,31000309,0,0,31200119,0,0,0,11801819,40000019
12,271,427.035716362298,1,0,2268859.81100066,2268860.8580656,11,0,1,16,31,199616802,127686713,226035313,229879421,20501609,20601709,0,21401019,11100519,31501009,21910309,41800619,30800009,21201919,11301219,20010219,0,31210519,10011119,-2050090,10601309,21300319,0,10010809,40910409,41902019,40511219,10900019,41000819,40800019,0,40910609,21411819,10010109,20811509,41911709,11001619,12000119,40511219,31310709
12,272,606.796701904386,0,0,2268862.29338677,2268863.3404879,11,1,0,32,19,75914966,134046655,125735865,70175846,0,12002019,11701309,0,11711019,0,40500619,0,0,10411909,11611609,40200719,0,0,40811109,31011309,0,0,0,0,11000309,0,21611909,11011909,42010519,0,40101219,10911909,11800619,0,11200619,-3150171,21601009,11511519,0,0
12,273,650.81891277805,0,0,2268865.09342419,2268866.14048028,11,0,0,33,9,41611938,143525865,0,43863979,0,0,0,0,0,0,20800319,20811619,0,0,20701419,40111719,20811509,0,20001009,0,0,41900209,0,0,0,0,0,0,0,0,0,10711809,31101009,0,0,0,-2051161,0,0,0
12,274,424.158903304487,1,0,2268867.90521177,2268868.95227286,11,1,1,10,9,131533446,56272178,30000919,10200309,0,0,30310209,0,0,30811509,30010019,40401709,0,-3040031,0,0,11411009,0,11010219,30810919,0,0,0,0,0,0,0,0,0,0,30000919,0,0,0,0,0,0,0,10200309,0
12,275,851.784702856094,1,0,2268870.50524811,2268871.55235809,11,1,1,30,19,168446084,156127974,41001338,98424506,31411019,0,0,0,20810319,32001409,10801409,31910819,41511109,0,10301309,0,11111309,0,40001509,31401319,22000909,41311619,0,0,0,0,0,0,11000019,30001319,0,41901709,11000319,-3110131,0,0,0,20401819,10500219,11510309
12,276,449.445448815823,0,0,2268873.49350834,2268874.54057752,11,1,0,14,31,308650731,228898972,185145493,186416393,30601219,20000119,41301909,31310709,32001219,40501609,41411009,30311819,41211119,31911009,41301719,41310309,20401719,-2140150,30201019,30910609,20310619,10411819,20110219,30600119,10011409,41100209,31212009,10500719,0,41610809,0,41100319,0,40900109,20101809,20710919,0,31400509,21702009,10500719
12,277,745.693696662784,0,0,2268876.04648051,2268877.09354776,11,1,0,28,9,30701609,10601219,52822737,125675566,0,0,0,30701609,0,0,0,0,0,0,0,0,0,0,0,10601219,0,0,0,0,20601409,0,0,0,20310409,0,11910919,-2050010,40811609,0,31210919,0,31601819,0,0,20001209
12,278,904.654856305569,0,0,2268878.96416277,2268880.01127698,11,1,0,35,19,155745875,176833354,101603727,117862295,0,0,31311219,21910519,40801419,0,41511509,20211209,0,31110409,0,41401009,0,0,30710109,31901109,31700709,10010009,30001909,0,0,31201309,0,0,0,0,40400509,10110509,0,0,0,20010309,21800119,20400009,-4030040,41511309
12,279,520.481140352786,1,0,2268881.95243031,2268882.9995018,11,1,1,6,0,0,0,0,0,0,0,0,0,0,-10210801,0,0,0,0,0,0,0,0,0,0,0,0,0,0,0,0,0,0,0,0,0,0,0,0,0,0,0,0,0,0
12,280,468.444042373449,1,0,2268884.64658306,2268885.69365031,11,0,1,9,19,95795277,93523647,158424683,137744265,0,31311009,21301919,20911809,21100409,0,0,0,-1170131,40610909,0,31611519,0,0,0,0,0,21301219,31200809,20900209,41100319,11111609,0,12001419,20100209,0,22010109,31311209,0,12000209,21510119,0,0,31011109,41911619,0
12,281,468.261570669711,0,0,2268887.24661016,2268888.29367472,11,0,0,22,3,21010109,21200209,23052570,0,0,21010109,0,0,0,0,0,0,0,0,0,0,0,0,0,21200209,0,0,0,0,0,-3051061,0,0,0,20001509,0,0,0,0,0,0,0,0,0,0
12,282,403.651263099164,0,0,2268889.81134866,2268890.85841399,11,0,0,17,31,237140502,179607295,209757912,196254801,31601509,30410719,20411409,30601209,21400009,0,31702019,40211719,30801909,30501709,10300819,0,40500809,11601419,0,40702019,-4200011,41800509,10410109,31701009,41601609,11301319,21310319,30810909,21712019,40910619,0,40300919,10101019,10511409,10710309,30110109,20700209,31510009,20300509,22010309
12,283,447.368199471384,0,0,2268892.41138269,2268893.45844879,11,0,0,4,9,14911579,11500719,51912628,124213565,0,0,0,-3200070,0,0,11711509,0,0,0,0,0,0,0,0,0,11500719,0,30800719,0,0,0,0,21111909,0,0,0,0,40601009,0,30300019,11101109,12001109,0,0,30210319
12,284,422.481243032962,1,0,2268895.01140595,2268896.05847474,11,0,1,34,3,40511709,31511419,20910019,3140021,0,0,0,0,0,40511709,0,0,0,0,0,31511419,0,0,0,0,0,0,0,0,0,0,0,0,0,20910019,0,0,0,0,0,0,0,-3140021,0,0
12,285,687.734744045883,1,0,2268897.68203181,2268898.72909021,11,1,1,3,31,260736432,247950512,217538642,134846633,21601519,30210209,-4170110,40010819,31810119,40300309,41311819,20210319,31111209,31001019,10001409,0,21711419,40011819,41611219,41501609,21412009,40700009,10211219,40602019,21500819,11700519,41000609,0,20411419,31611019,40501019,10010019,30010619,11712019,21200319,31000819,20301419,10611419,0,0
12,286,471.165716182441,0,0,2268900.50558803,2268901.55267145,11,1,0,2,3,4171161,31801809,52613628,0,0,-4171161,0,0,0,0,0,0,0,0,31801809,0,0,0,0,0,0,0,0,20811909,0,0,31801719,0,0,0,0,0,0,0,0,0,0,0,0,0
12,287,455.987475812435,1,0,2268907.64689103,2268908.69391363,12,0,1,29,9,175434465,52113038,10901209,36132940,41401809,0,30010319,41411409,0,0,0,40810119,21800809,0,0,0,0,0,0,21601419,0,30511619,0,0,0,0,0,0,10901209,0,0,0,-4121121,0,32011819,0,0,0,0,0
12,288,520.676700398326,1,0,2268910.34099027,2268911.38806407,12,1,1,11,31,234946212,108376924,209068702,229671021,30200509,31100319,11812009,30110009,30410319,0,21011119,40200509,40101419,10310009,-3031150,21701619,20311209,11312009,0,0,31110009,10600919,30401509,10210719,32011909,0,31912009,20910119,21911709,31300619,30410109,10102019,31911609,40610809,10212009,21000309,21510019,41011619,21301309,32011319
12,289,378.32660600543,1,0,2268912.9292572,2268913.97632522,12,0,1,22,3,11300409,0,2100190,72012618,0,0,0,0,0,0,11300409,0,0,0,0,0,0,0,0,0,0,0,0,0,0,-2100190,0,0,0,0,0,0,40902009,31110609,0,0,0,0,0,0
12,290,445.881865452975,0,0,2268915.55281543,2268916.59992348,12,1,0,2,3,4171161,31801809,52613628,0,0,-4171161,0,0,0,0,0,0,0,0,31801809,0,0,0,0,0,0,0,0,20811909,0,0,31801719,0,0,0,0,0,0,0,0,0,0,0,0,0
12,291,643.189371563494,1,0,2268918.07049707,2268919.11756432,12,0,1,13,0,0,0,0,0,0,0,0,0,0,0,0,0,0,0,0,0,-11601091,0,0,0,0,0,0,0,0,0,0,0,0,0,0,0,0,0,0,0,0,0,0,0
12,292,476.858518552035,0,0,2268920.90590316,2268921.95289227,12,1,0,14,31,308650731,228898972,185145493,186416393,30601219,20000119,41301909,31310709,32001219,40501609,41411009,30311819,41211119,31911009,41301719,41310309,20401719,-2140150,30201019,30910609,20310619,10411819,20110219,30600119,10011409,41100209,31212009,10500719,0,41610809,0,41100319,0,40900109,20101809,20710919,0,31400509,21702009,10500719
12,293,575.945545453578,0,0,2268923.62349811,2268924.67056536,12,0,0,36,31,185136203,202258392,229357621,152639764,10001909,31200019,31211019,0,30510509,30800909,20110719,31301119,0,0,21310309,31311609,11801309,41601119,21811609,31800219,20810309,21811909,40211009,30901409,11210609,21901309,40110219,30011319,21901419,11500309,21610019,41001419,10811809,10201009,31911409,21111819,22011309,11400819,0,-4190171
12,294,562.807212583721,0,0,2268926.41184157,2268927.45883491,12,1,0,32,19,75914966,134046655,125735865,70175846,0,12002019,11701309,0,11711019,0,40500619,0,0,10411909,11611609,40200719,0,0,40811109,31011309,0,0,0,0,11000309,0,21611909,11011909,42010519,0,40101219,10911909,11800619,0,11200619,-3150171,21601009,11511519,0,0
12,295,411.932158283889,1,0,2268929.11769367,2268930.16479018,12,1,1,28,9,30701609,10601219,52822737,125675566,0,0,0,30701609,0,0,0,0,0,0,0,0,0,0,0,10601219,0,0,0,0,20601409,0,0,0,20310409,0,11910919,-2050010,40811609,0,31210919,0,31601819,0,0,20001209
12,296,388.538850471377,1,0,2268931.600069,2268932.64713471,12,0,1,34,9,72812527,52411818,71900918,54001819,21800109,0,0,10101309,40911109,0,0,0,0,0,0,31501109,0,0,0,0,20910709,0,41300309,30600609,0,0,0,0,0,0,0,0,0,0,30000609,22001019,0,-2000191,0,0
12,297,537.493334617466,0,0,2268934.15303077,2268935.20010573,12,0,0,9,19,147424067,84414946,156235984,134525345,41710019,20002019,41810309,0,0,0,0,40811609,-3090111,0,0,0,22011009,10600909,0,41301419,10501609,0,0,21100309,41011509,0,0,10500619,41911919,11111609,30600019,41300909,0,11700209,30511209,30811409,0,0,20201609,0
12,298,516.30123378709,1,0,2268936.84719045,2268937.89425578,12,1,1,30,19,168446084,156127974,41001338,98424506,31411019,0,0,0,20810319,32001409,10801409,31910819,41511109,0,10301309,0,11111309,0,40001509,31401319,22000909,41311619,0,0,0,0,0,0,11000019,30001319,0,41901709,11000319,-3110131,0,0,0,20401819,10500219,11510309
12,299,428.31763625145,1,1,2268939.50603266,2268940.55310607,12,0,0,24,3,61010628,30301519,3090190,0,0,0,0,0,30700209,0,30310419,0,0,0,0,0,0,0,0,30301519,0,0,0,0,0,0,0,-3090190,0,0,0,0,0,0,0,0,0,0,0,0
12,300,480.839014984667,0,0,2268941.98841685,2268943.03553068,12,0,0,27,31,267738412,167852412,168778913,214738802,21510019,0,31401519,30600919,31111909,40211809,31101309,40700619,41100309,21101819,30901209,21411819,11311919,11000109,40612019,10811509,0,20702009,0,11301919,31001719,21401009,30710419,10510709,40810919,21901219,-1141000,0,20611609,30800909,31401919,20502019,10610009,40111509,20700309,40000519
12,301,510.357051622123,0,0,2268944.71786551,2268945.764932,12,0,0,4,31,228651412,180257293,189257102,217846802,10301909,40411519,10110819,-2080090,22011509,41911719,41701319,30011019,30111509,31500119,40801309,21711609,20810409,21811919,0,0,31711209,11910719,11210409,31410209,0,10311419,20800009,21801609,30501119,41712009,21510319,41900609,30210219,31200609,31910709,0,10901419,21011219,30500409,20211609
12,302,471.878664102405,0,0,2268947.44730725,2268948.49437296,12,0,0,33,9,82013537,62204147,124411557,4120010,0,21601409,0,40210419,20201709,0,0,0,0,0,21000919,20801409,0,20401819,0,0,0,0,41610919,0,41900119,0,0,40900519,0,0,0,0,0,0,0,0,-4120010,0,0,0
12,303,540.469083469361,1,0,2268950.17674899,2268951.22382201,12,1,1,3,31,260736432,247950512,217538642,134846633,21601519,30210209,-4170110,40010819,31810119,40300309,41311819,20210319,31111209,31001019,10001409,0,21711419,40011819,41611219,41501609,21412009,40700009,10211219,40602019,21500819,11700519,41000609,0,20411419,31611019,40501019,10010019,30010619,11712019,21200319,31000819,20301419,10611419,0,0
12,304,598.173961043358,1,0,2268952.95324797,2268954.00031253,12,0,1,13,3,30100019,35661809,31110609,0,0,0,0,0,0,0,30100019,0,0,0,0,0,-4051090,0,31610719,0,0,0,31110609,0,0,0,0,0,0,0,0,0,0,0,0,0,0,0,0,0
12,305,588.242738507688,1,0,2268955.62387229,2268956.67093839,12,1,1,31,3,10810519,41401609,0,31281110,0,0,0,10810519,0,0,0,0,0,0,0,0,0,0,41401609,0,0,0,0,0,0,0,0,0,0,0,0,0,0,0,-1170091,30111019,0,0,0,0
12,306,866.148750763386,1,0,2268958.41214107,2268959.45920293,12,1,1,18,3,40211319,12900749,0,20402009,0,0,0,0,40211319,0,0,0,0,0,11810609,0,0,0,0,0,0,-1090140,0,0,0,0,0,0,0,0,0,0,0,0,0,0,0,20402009,0,0
12,307,541.415702085942,1,0,2268961.38870387,2268962.44782194,12,1,1,25,9,0,10900609,81713097,115444675,0,0,0,0,0,0,0,0,0,0,0,0,0,0,0,0,0,10900609,0,20400609,0,20110019,0,0,-1091150,40111319,0,10301609,0,11211419,21010009,0,31111319,0,0,41810319
12,308,1173.52506518364,0,0,2268964.18867662,2268965.23574156,12,1,0,6,0,0,0,0,0,0,0,0,0,0,-10210801,0,0,0,0,0,0,0,0,0,0,0,0,0,0,0,0,0,0,0,0,0,0,0,0,0,0,0,0,0,0
12,309,420.057914219797,0,0,2268967.42401557,2268968.4710732,12,1,0,10,9,131533446,56272178,30000919,10200309,0,0,30310209,0,0,30811509,30010019,40401709,0,-3040031,0,0,11411009,0,11010219,30810919,0,0,0,0,0,0,0,0,0,0,30000919,0,0,0,0,0,0,0,10200309,0
12,310,535.671314690262,0,0,2268969.90638975,2268970.95346008,12,0,0,16,19,54322447,155877395,188750173,123135156,0,0,0,21400219,0,0,0,20912019,12010209,20811409,41001619,0,0,0,40411609,-1141140,40801309,11710309,30901709,10210809,41210109,0,11801909,32001909,0,31511909,31111819,0,41200919,0,0,0,30512009,30511319,0,20910909
12,311,385.453773196787,0,0,2268972.60053942,2268973.64760706,12,0,0,17,19,165749094,146443314,82512918,113113885,0,31910509,21511309,31302019,0,20401419,30411919,0,30211919,20501609,12010209,30200419,0,31500609,21000009,0,-1130040,30100419,42001409,0,0,40511509,0,0,0,0,0,0,30000609,20201219,41901419,10410119,10600519,0,0,0
12,312,491.5212970227,1,0,2268975.20057153,2268976.24763762,12,1,1,35,19,155745875,176833354,101603727,117862295,0,0,31311219,21910519,40801419,0,41511509,20211209,0,31110409,0,41401009,0,0,30710109,31901109,31700709,10010009,30001909,0,0,31201309,0,0,0,0,40400509,10110509,0,0,0,20010309,21800119,20400009,-4030040,41511309
12,313,539.51899940148,0,0,2268991.9183963,2268992.9654724,13,1,0,32,19,75914966,134046655,125735865,70175846,0,12002019,11701309,0,11711019,0,40500619,0,0,10411909,11611609,40200719,0,0,40811109,31011309,0,0,0,0,11000309,0,21611909,11011909,42010519,0,40101219,10911909,11800619,0,11200619,-3150171,21601009,11511519,0,0
12,314,503.093993291259,1,0,2268994.65961977,2268995.70669048,13,1,1,35,19,155745875,176833354,101603727,117862295,0,0,31311219,21910519,40801419,0,41511509,20211209,0,31110409,0,41401009,0,0,30710109,31901109,31700709,10010009,30001909,0,0,31201309,0,0,0,0,40400509,10110509,0,0,0,20010309,21800119,20400009,-4030040,41511309
12,315,448.424780741334,1,0,2268997.31854127,2268998.36534727,13,0,1,36,19,143834765,104334246,174825265,89955586,42000319,20411009,30111709,30711119,20600609,0,0,0,0,21510619,30200709,21011509,0,31611409,0,0,0,0,0,41500519,21701009,30701919,0,0,40510209,0,40411609,41701219,0,0,11700519,0,11301109,11100209,11101509,-3051021
12,316,906.043795403093,0,0,2268999.85967859,2269000.90674699,13,1,0,11,31,234946212,108376924,209068702,229671021,30200509,31100319,11812009,30110009,30410319,0,21011119,40200509,40101419,10310009,-3031150,21701619,20311209,11312009,0,0,31110009,10600919,30401509,10210719,32011909,0,31912009,20910119,21911709,31300619,30410109,10102019,31911609,40610809,10212009,21000309,21510019,41011619,21301309,32011319
12,317,476.220638491213,0,0,2269003.01266015,2269004.05972394,13,1,0,18,3,40211319,12900749,0,20402009,0,0,0,0,40211319,0,0,0,0,0,11810609,0,0,0,0,0,0,-1090140,0,0,0,0,0,0,0,0,0,0,0,0,0,0,0,20402009,0,0
12,318,562.44073016569,1,0,2269005.57739249,2269006.62445782,13,0,1,9,31,174926484,178158392,186849312,228640831,0,20101019,30001319,20100919,0,41610009,20700419,40301619,-2111180,10111019,10200009,21500909,21311709,40810909,0,21002009,31310009,21911819,20101519,11611309,22011919,21510919,0,40011919,40201009,20300109,11100609,11611019,40901209,30700819,30500819,41301909,11101309,30411319,11110419,21002009
12,319,577.741388231516,0,0,2269008.20108006,2269009.2480172,13,0,0,29,19,122034865,155956755,174616485,116184676,30011509,0,10611719,0,0,10201209,31010219,0,40200209,0,0,31311819,20911309,0,41211009,0,30911709,31610909,10201219,0,0,40201719,0,41510819,0,41001509,41701219,11500819,-1070100,0,41811219,0,0,21601519,40201019,0
12,320,454.563504550606,0,0,2269010.89510116,2269011.94216725,13,1,0,10,9,131533446,56272178,30000919,10200309,0,0,30310209,0,0,30811509,30010019,40401709,0,-3040031,0,0,11411009,0,11010219,30810919,0,0,0,0,0,0,0,0,0,0,30000919,0,0,0,0,0,0,0,10200309,0
12,321,910.119376610965,1,0,2269013.53041878,2269014.5774945,13,0,1,13,9,43411628,105896087,42122228,52211918,0,0,0,0,0,0,31701009,0,11710619,20712019,0,0,-3171150,0,0,0,40401309,41611609,0,0,0,20910309,0,0,0,21211919,0,20400109,0,0,0,0,0,0,31811809,0
12,322,490.802189800888,1,0,2269016.50693809,2269017.55399841,13,0,1,27,9,125615356,10610209,84052448,51303038,10411609,31901219,0,0,41501209,0,0,41801319,0,0,0,0,10610209,0,0,0,0,0,0,0,41011019,0,41901419,0,0,0,-1140010,20701619,0,0,0,0,0,0,0,30601419
12,323,478.136204648763,0,0,2269019.22459694,2269020.27167536,13,1,0,6,0,0,0,0,0,0,0,0,0,0,-10210801,0,0,0,0,0,0,0,0,0,0,0,0,0,0,0,0,0,0,0,0,0,0,0,0,0,0,0,0,0,0
12,324,637.441134080291,0,0,2269021.90699337,2269022.95406178,13,1,0,31,3,10810519,41401609,0,31281110,0,0,0,10810519,0,0,0,0,0,0,0,0,0,0,41401609,0,0,0,0,0,0,0,0,0,0,0,0,0,0,0,-1170091,30111019,0,0,0,0
12,325,489.438273012638,1,0,2269024.64826457,2269025.69528216,13,0,1,18,0,0,0,0,0,0,0,0,0,0,0,0,0,0,0,0,0,0,0,0,0,0,-20500991,0,0,0,0,0,0,0,0,0,0,0,0,0,0,0,0,0,0
12,326,604.03537703678,0,0,2269027.34235111,2269028.3894276,13,1,0,3,31,260736432,247950512,217538642,134846633,21601519,30210209,-4170110,40010819,31810119,40300309,41311819,20210319,31111209,31001019,10001409,0,21711419,40011819,41611219,41501609,21412009,40700009,10211219,40602019,21500819,11700519,41000609,0,20411419,31611019,40501019,10010019,30010619,11712019,21200319,31000819,20301419,10611419,0,0
12,327,1082.79515616596,0,0,2269030.07179362,2269031.11887935,13,1,0,28,9,30701609,10601219,52822737,125675566,0,0,0,30701609,0,0,0,0,0,0,0,0,0,0,0,10601219,0,0,0,0,20601409,0,0,0,20310409,0,11910919,-2050010,40811609,0,31210919,0,31601819,0,0,20001209
12,328,599.75461056456,1,0,2269033.23653612,2269034.28364379,13,0,1,24,19,127162484,195246594,145472696,103814137,31810409,11210609,20011119,31210219,0,0,0,11710109,21210019,41511119,0,40001419,0,10602009,40310509,30810819,32010719,0,41000519,0,0,41210319,30310819,-2140120,0,30810919,0,0,0,31111909,0,0,0,31601919,41100309,0
12,329,397.514985408634,0,0,2269036.02480528,2269037.07187099,13,0,0,4,9,55143238,85123866,82210738,30510919,0,0,0,-3121000,0,41211619,0,0,10810619,0,20510819,31710919,21000809,0,11901319,0,0,0,0,0,0,0,0,40800219,41410519,0,0,0,0,0,0,0,0,0,0,30510919
12,330,564.253126271069,1,0,2269038.56601073,2269039.61307414,13,1,1,30,19,168446084,156127974,41001338,98424506,31411019,0,0,0,20810319,32001409,10801409,31910819,41511109,0,10301309,0,11111309,0,40001509,31401319,22000909,41311619,0,0,0,0,0,0,11000019,30001319,0,41901709,11000319,-3110131,0,0,0,20401819,10500219,11510309
12,331,451.411444693804,0,0,2269041.36604661,2269042.41310655,13,0,0,22,3,11010109,41211919,42311670,0,0,0,11010109,0,0,0,0,0,0,0,0,0,0,0,0,0,41211919,0,0,0,0,-2200151,0,40111519,0,0,0,0,0,0,0,0,0,0,0,0
12,332,535.522719379514,1,0,2269044.02489806,2269045.07196608,13,1,1,2,3,4171161,31801809,52613628,0,0,-4171161,0,0,0,0,0,0,0,0,31801809,0,0,0,0,0,0,0,0,20811909,0,0,31801719,0,0,0,0,0,0,0,0,0,0,0,0,0
12,333,423.757389187813,1,0,2269046.63669188,2269047.68376144,13,1,1,25,9,0,10900609,81713097,115444675,0,0,0,0,0,0,0,0,0,0,0,0,0,0,0,0,0,10900609,0,20400609,0,20110019,0,0,-1091150,40111319,0,10301609,0,11211419,21010009,0,31111319,0,0,41810319
12,334,431.474315933883,0,0,2269049.23671975,2269050.28378623,13,1,0,14,31,308650731,228898972,185145493,186416393,30601219,20000119,41301909,31310709,32001219,40501609,41411009,30311819,41211119,31911009,41301719,41310309,20401719,-2140150,30201019,30910609,20310619,10411819,20110219,30600119,10011409,41100209,31212009,10500719,0,41610809,0,41100319,0,40900109,20101809,20710919,0,31400509,21702009,10500719
12,335,690.76554197818,0,0,2269051.75440293,2269052.80146402,13,0,0,16,31,187656713,206686033,249248951,200251202,11111119,0,10410219,41100319,32011109,0,41101219,41411019,10511709,30701809,40101409,41710809,12000319,30400719,30110709,-1150050,0,20510209,31700519,41101119,30700619,40301719,21810019,21111609,31611519,20000619,10911209,32011619,0,21511109,11001009,30801919,30811709,42000809,21601119,10511909
12,336,609.074131119996,1,0,2269054.67207903,2269055.71915167,13,0,1,17,31,201038122,159157764,197454613,200251901,21910309,11700119,32011419,31801819,40701519,20001209,21910809,21000919,0,21101419,30211109,41001019,10410819,11400019,20110909,0,-4021151,20901319,0,21510419,40400419,0,21201209,10510419,30610709,41611119,31610319,11901409,11111809,10200109,20301809,31700919,41701009,11311409,30212019,31811409
12,337,403.985793702304,1,0,2269057.47211491,2269058.51917484,13,0,1,34,3,0,32503128,41200809,4061110,0,0,0,0,0,0,0,0,0,0,0,0,10601319,0,0,0,21901809,0,0,0,0,0,0,41200809,0,0,0,0,0,0,0,0,0,-4061110,0,0
12,338,431.86582159251,1,0,2269059.9545091,2269061.00155903,13,0,1,33,3,0,31600819,30110119,45101290,0,0,0,0,0,0,0,0,0,0,0,31600819,0,0,0,0,0,0,0,0,0,0,0,30110119,0,0,0,0,0,0,0,41101219,-4000071,0,0,0
12,339,467.158272396773,1,0,2269065.62514497,2269066.67221222,14,0,1,17,9,83711438,14991709,92622037,64811847,41900919,0,0,0,41810519,0,0,0,0,0,0,0,0,0,0,0,-4081000,10910709,20910509,0,0,0,41300319,0,0,0,30411209,0,11900119,0,0,32001109,0,20910619,0,0
12,340,489.388613030314,0,0,2269068.29575698,2269069.34282307,14,1,0,3,31,260736432,247950512,217538642,134846633,21601519,30210209,-4170110,40010819,31810119,40300309,41311819,20210319,31111209,31001019,10001409,0,21711419,40011819,41611219,41501609,21412009,40700009,10211219,40602019,21500819,11700519,41000609,0,20411419,31611019,40501019,10010019,30010619,11712019,21200319,31000819,20301419,10611419,0,0
12,341,735.663153696805,0,0,2269070.8722672,2269071.91938026,14,0,0,36,19,114734665,123325065,113735965,94095056,21611419,0,40700309,20010009,0,0,11911319,0,20501609,0,30411419,11611509,0,30000219,0,0,40500309,10801609,21500509,21311809,40011319,0,0,10900619,0,20011709,0,0,0,31511509,0,10800619,0,10001709,40610019,-1171200
12,342,845.688460860401,0,0,2269073.66053982,2269074.70759861,14,1,0,25,9,0,10900609,81713097,115444675,0,0,0,0,0,0,0,0,0,0,0,0,0,0,0,0,0,10900609,0,20400609,0,20110019,0,0,-1091150,40111319,0,10301609,0,11211419,21010009,0,31111319,0,0,41810319
12,343,434.115148149431,1,0,2269076.74291916,2269077.78999488,14,1,1,14,31,308650731,228898972,185145493,186416393,30601219,20000119,41301909,31310709,32001219,40501609,41411009,30311819,41211119,31911009,41301719,41310309,20401719,-2140150,30201019,30910609,20310619,10411819,20110219,30600119,10011409,41100209,31212009,10500719,0,41610809,0,41100319,0,40900109,20101809,20710919,0,31400509,21702009,10500719
12,344,397.294017951936,1,0,2269079.29589171,2269080.34295319,14,0,1,13,3,0,4020151,53323547,0,0,0,0,0,0,0,0,0,0,0,0,0,-4020151,0,0,0,0,0,0,11211319,0,0,0,21711409,0,20400819,0,0,0,0,0,0,0,0,0,0
12,345,939.507681876421,1,0,2269081.91945764,2269082.96652027,14,0,1,4,31,177723105,215763121,166444823,205767831,41511919,30310119,0,-1070101,11010219,41010019,11610019,41200709,0,20501319,40801809,11001419,40010909,30511909,11011919,41212009,10400409,10311419,11810019,21511309,30310119,21001419,30210019,21401619,0,0,30200319,20811219,41301419,20010819,30000209,10411719,10001109,40610809,11410019,21210509
12,346,600.623852573335,1,0,2269085.08425249,2269086.13126508,14,0,1,22,31,257360222,158740412,159895855,190251701,30011109,21810409,31400219,0,41401319,30911109,40712019,30612019,30502019,20101409,10512009,30911309,11801719,21901619,10611719,42000519,0,10900109,41610409,0,31911519,-3041171,0,10910919,40510209,20300209,11611419,30310509,21802009,21401509,20011019,21202009,12001209,11100309,20911419,31511709
12,347,405.997985042632,1,0,2269087.74309855,2269088.79014463,14,1,1,28,9,30701609,10601219,52822737,125675566,0,0,0,30701609,0,0,0,0,0,0,0,0,0,0,0,10601219,0,0,0,0,20601409,0,0,0,20310409,0,11910919,-2050010,40811609,0,31210919,0,31601819,0,0,20001209
12,348,653.962118551135,0,0,2269090.3430783,2269091.39015826,14,0,0,24,9,30610809,53503328,117664566,41621138,0,0,0,30610809,0,0,0,0,0,0,0,0,0,0,31801619,0,0,21701709,0,30401419,0,0,40510709,-4140010,11901519,0,30710909,31410519,0,10210619,0,0,0,0,0,0
