sub_id,Trial,RT,Resp,Error,Fix_onset,Disp_onset,block,repeat,tid,tloc,d_setsize,quad1,quad2,quad3,quad4,loc1,loc2,loc3,loc4,loc5,loc6,loc7,loc8,loc9,loc10,loc11,loc12,loc13,loc14,loc15,loc16,loc17,loc18,loc19,loc20,loc21,loc22,loc23,loc24,loc25,loc26,loc27,loc28,loc29,loc30,loc31,loc32,loc33,loc34,loc35,loc36
13,1,567.399483272311,1,0,30391.8502515927,30392.8973273138,1,1,1,35,0,0,0,0,0,0,0,0,0,0,0,0,0,0,0,0,0,0,0,0,0,0,0,0,0,0,0,0,0,0,0,0,0,0,0,0,0,0,0,-40810191,0
13,2,449.371992443048,1,0,30394.6032309981,30395.6503059492,1,1,1,22,3,0,30701309,4040101,22201438,0,0,0,0,0,0,0,0,0,0,0,0,0,0,0,30701309,0,0,0,0,0,-4040101,0,0,0,0,0,10400519,0,0,0,11800919,0,0,0,0
13,3,827.010996068566,1,0,30397.2856208819,30398.332686209,1,1,1,7,31,238979812,178217211,211167622,167037584,10111619,40811819,12000609,30701109,40110209,41900509,-2030120,40401809,20912009,11802009,10000319,30400319,21201109,21501109,20800409,10101209,41300409,11110319,31601209,21811019,41911719,11410009,11411719,41600119,10711409,40710419,0,21300609,41202019,11411119,0,21811609,30810909,0,0,40501319
13,4,630.618157269055,1,0,30400.2738942011,30401.3209683823,1,0,1,25,9,62410918,41011509,115914326,41023228,21300009,41110909,0,0,0,0,0,0,0,0,0,41011509,0,0,0,0,0,0,0,31111819,0,31101119,20611109,30900219,-2190060,0,0,10611319,0,0,0,0,0,30411909,0,0
13,5,674.664620517433,0,0,30403.0739604914,30404.1210027209,1,0,0,31,31,167347484,247041602,225137611,210169333,20401909,41910509,41411409,0,21000519,21411119,21212019,0,0,40710509,41811909,41602009,40601909,11001819,10900019,20101409,0,40312019,20201009,20211409,30701009,31701509,30410119,40801619,20300119,20200109,10610709,11011109,40700309,31211009,-2110151,40310909,10710709,41611509,21101919,11401709
13,6,578.554112082202,1,0,30405.8739590286,30406.9210339797,1,1,1,23,9,61301238,23322018,94613798,30711628,0,0,0,20600519,0,0,0,40700719,0,0,0,0,0,0,11310009,0,12012009,0,0,10810509,0,0,-1081171,42011009,40711109,0,0,0,10500019,20211609,0,0,0,0,0,0
13,7,948.378793160373,0,0,30408.7092969819,30409.7563665436,1,0,0,36,31,226354912,209438322,208934492,191266333,0,10211219,41700209,20411419,10300809,41910219,30600219,30110409,41110409,21301319,30701509,40701709,41901009,21911019,20200019,20710419,0,12011319,21000609,41410919,10010309,0,21310519,11900309,20600509,41501009,41200309,41210109,20710209,11611309,40811019,21401709,20911019,0,30610809,-4000150
13,8,633.659733819513,1,0,30411.8269722335,30412.8858547072,1,0,1,18,31,247868322,208244563,136636303,245159591,10810519,40111209,41310319,30411819,41600609,31611319,0,21201509,30811019,31400619,41411419,20900419,40010619,10910409,21310409,0,41100519,-1200150,0,0,20600819,10602019,10500019,11111909,31400909,31710519,20710109,20811209,21501319,21311809,20410409,20500209,30311209,40110709,30201109,40001609
13,9,895.263804552087,0,0,30414.7211326067,30415.7681940842,1,0,0,5,19,190065185,93043456,186817184,73120737,0,41601509,32001409,31500009,-1140121,40910209,21811309,21100619,0,40811409,11210019,0,20911119,0,20110909,0,0,0,21901619,20711209,31801209,31501419,0,40701309,0,40200419,0,0,0,21100009,0,0,30010719,0,0,22010009
13,10,481.30681393377,1,0,30417.7211699479,30418.7682387397,1,0,1,7,0,0,0,0,0,0,0,0,0,0,0,-30901301,0,0,0,0,0,0,0,0,0,0,0,0,0,0,0,0,0,0,0,0,0,0,0,0,0,0,0,0,0
13,11,526.177093637671,1,0,30420.2741405761,30421.3212139874,1,0,1,6,9,83742088,103026246,10300109,52601528,41101409,0,0,0,0,-2140070,40500609,0,0,40001919,40311309,0,0,0,0,0,11011309,11701709,10300109,0,0,0,0,0,0,0,0,0,11901509,0,0,0,0,0,0,40700019
13,12,537.633916799678,0,0,30423.0388940125,30424.0859520254,1,1,0,27,19,145924865,82614846,116435976,152634455,31300519,21201809,41300909,0,0,42011209,0,0,10110419,40302009,10110419,0,0,21000509,11201909,0,0,0,0,20700409,10201809,31600509,11911809,0,40911319,0,-1110121,40710509,40200209,0,30811809,0,0,30011619,0,10900309
13,13,573.877606329916,0,0,30425.8036108776,30426.8506869836,1,1,0,33,3,0,0,72712028,43451389,0,0,0,0,0,0,0,0,0,0,0,0,0,0,0,0,0,0,0,31800219,0,0,40911809,0,0,0,0,41410219,0,0,0,0,-2041170,0,0,0
13,14,444.058761255292,1,0,30428.6271848089,30429.6742485962,1,1,1,12,9,154545455,43811530,30200009,52712718,0,41311109,30400019,30711709,21711009,30411609,0,0,0,0,0,-3000011,40811519,0,0,0,0,0,0,0,0,0,30200009,0,0,0,0,0,40911909,0,0,0,0,0,0,11800809
13,15,502.501994527847,1,0,30431.1919564154,30432.2389936404,1,1,1,29,19,147033685,105315755,162940604,73562618,0,30410519,0,0,31810019,0,31600419,12000819,41211909,0,0,20001509,12001109,0,31100519,21501609,0,20711009,0,20901719,20102019,30611619,0,10311709,40101619,40911919,0,40801019,-2151181,20200109,10410309,0,0,0,0,0
13,16,458.536373080278,0,0,30433.8037229012,30434.8507889982,1,0,0,14,9,103722947,63681629,10800319,74533557,20301119,0,0,0,41711419,41710409,0,0,0,0,0,0,0,-1170101,30600319,0,31911209,0,0,0,10800319,0,0,0,0,0,0,21610419,0,0,12011519,0,0,0,40911619,0
13,17,477.258179504133,0,0,30436.3449287375,30437.3919936797,1,1,0,16,19,134222846,101886217,154116575,136626594,0,41710109,0,30601719,0,30410609,0,31500409,0,0,0,30311109,20211619,0,10101309,-1061171,0,40201009,0,40900519,40001919,0,0,10201009,21911109,0,41102019,20311109,31801919,10000219,0,21401019,0,0,41400909,11711419
13,18,418.521605981368,0,0,30438.9096687772,30439.9567264051,1,1,0,20,9,54425476,74012327,22473090,41501019,0,11101919,10511019,11401519,0,0,21411019,0,0,31710609,0,12000709,0,30301009,0,0,0,0,0,-1061171,0,0,0,0,21411919,0,0,0,0,0,0,0,0,0,0,41501019
13,19,492.827155652776,1,0,30441.5802869398,30442.6273549617,1,1,1,26,3,20201709,0,22562040,40200819,0,0,0,0,0,0,0,20201709,0,0,0,0,0,0,0,0,0,0,0,0,0,20410919,0,0,0,-2151121,0,40200819,0,0,0,0,0,0,0,0
13,20,473.355445283232,0,0,30444.2038517091,30445.2509201159,1,1,0,10,31,189146012,148589032,186359592,133837813,21200809,40601319,21901509,10100009,31911019,22010409,31310819,10110119,0,-3121200,10211709,20710719,11910619,30111019,10401609,20910019,20911019,20301119,30010309,21001709,41101709,10311019,11111919,0,10610209,20711309,41501409,20000319,21100219,10502019,31200919,0,0,10711709,30210819,10111809
13,21,502.719112511841,0,0,30446.7804027361,30447.8274137837,1,1,0,3,31,178597954,198039512,220639522,188957631,21611019,0,-1051070,41301309,30911319,21600809,0,21410519,40711909,41411709,30500219,11501509,21101809,40400319,10011019,0,31501919,11611009,40701719,30700919,21400809,21700809,31500809,41811319,21511819,11311319,0,11011419,11601809,30300619,11710019,11901109,20610319,20410109,30010519,41401709
13,22,510.500328415219,1,0,30449.5098002029,30450.5568582158,1,0,1,2,3,54923289,40500909,0,0,0,-3200161,0,0,40211309,0,0,11511819,0,0,0,0,0,40500909,0,0,0,0,0,0,0,0,0,0,0,0,0,0,0,0,0,0,0,0,0,0
13,23,527.088681192254,0,0,30452.2510075021,30453.2980759089,1,0,0,11,19,93204666,53302557,137325774,105434464,40400219,0,10001309,0,0,11501519,31301619,0,0,0,-2070200,0,10310419,0,0,10111619,30810319,0,0,10700609,31201019,0,21100709,21011809,41810809,0,11500819,20100119,10911409,30700509,10400609,21511709,11810109,0,0,0
13,24,458.377769169601,0,0,30454.9686829076,30456.0157582437,1,0,0,28,3,30410909,11511319,0,45551219,0,0,0,30410909,0,0,0,0,0,0,0,11511319,0,0,0,0,0,0,0,0,0,0,0,0,0,0,0,-4050110,0,0,41501109,0,0,0,0,0
13,25,574.130525677901,1,0,30457.6628348887,30458.7098936714,1,0,1,19,19,83813747,72723866,202539424,162516885,0,20900909,0,0,31212019,31700819,0,0,0,0,0,11300709,0,0,10911119,40511319,0,10000719,-4090131,30301419,11110009,42011609,11811909,41611719,21201419,40401209,0,0,0,40401809,30010719,10101519,41600919,40401919,0,0
13,26,577.707582928269,0,0,30460.3334542062,30461.3805245378,1,0,0,30,3,21001109,40612009,0,24821389,0,0,21001109,0,0,0,0,0,0,40612009,0,0,0,0,0,0,0,0,0,0,0,0,0,0,0,0,0,0,0,-4011070,0,0,0,20810319,0,0
13,27,515.788152180903,0,0,30470.5100496576,30471.5571546357,2,0,0,2,9,25242049,134623565,32712528,40501309,0,-4141030,0,21101019,0,0,0,0,0,41800219,40711219,0,0,11301309,20300409,0,0,20510409,0,0,21900909,0,10811619,0,0,0,0,0,0,0,0,0,40501309,0,0,0
13,28,526.095481913217,0,0,30473.2747953947,30474.3218561023,2,0,0,19,31,268348021,173356293,188479023,151358302,30500209,41800319,31611119,21901909,30500119,20810709,20011409,30811919,40400309,10200509,31001509,30010219,40411019,0,0,20911109,30810009,10011919,-1040120,40100309,42001309,10011409,21902019,41611419,0,11301219,20511219,11011519,11911619,21201019,32001209,11010709,10910109,11900909,41411209,0
13,29,489.723600385332,1,0,30475.9101238011,30476.9571891282,2,0,1,31,3,20000309,0,72322538,3120200,0,0,0,0,0,0,0,0,20000309,0,0,0,0,0,0,0,0,0,0,0,0,41811419,0,0,0,0,30511119,0,0,0,-3120200,0,0,0,0,0
13,30,525.703591654747,0,0,30478.4630951993,30479.510204027,2,1,0,10,31,189146012,148589032,186359592,133837813,21200809,40601319,21901509,10100009,31911019,22010409,31310819,10110119,0,-3121200,10211709,20710719,11910619,30111019,10401609,20910019,20911019,20301119,30010309,21001709,41101709,10311019,11111919,0,10610209,20711309,41501409,20000319,21100219,10502019,31200919,0,0,10711709,30210819,10111809
13,31,523.2371467755,0,0,30481.086655349,30482.1337210611,2,1,0,16,19,134222846,101886217,154116575,136626594,0,41710109,0,30601719,0,30410609,0,31500409,0,0,0,30311109,20211619,0,10101309,-1061171,0,40201009,0,40900519,40001919,0,0,10201009,21911109,0,41102019,20311109,31801919,10000219,0,21401019,0,0,41400909,11711419
13,32,470.722312307771,1,0,30483.7102116492,30484.7572769763,2,0,1,5,31,259868584,208161431,135546074,227581041,41811719,40710719,40101619,41300709,-2041081,31301009,21500709,41101019,0,20502019,21411719,10900909,31201619,20511809,30910719,21201819,10210009,41310809,40811809,0,10410209,10910819,30300009,0,0,11301819,31811409,20111509,41210509,31111819,40212019,20410419,10701219,10610719,11911819,41301009
13,33,397.07466091204,0,1,30486.2867218703,30487.3337783433,2,1,1,7,31,238979812,178217211,211167622,167037584,10111619,40811819,12000609,30701109,40110209,41900509,-2030120,40401809,20912009,11802009,10000319,30400319,21201109,21501109,20800409,10101209,41300409,11110319,31601209,21811019,41911719,11410009,11411719,41600119,10711409,40710419,0,21300609,41202019,11411119,0,21811609,30810909,0,0,40501319
13,34,653.759700486262,0,0,30488.8161378922,30489.8632270869,2,1,0,23,9,61301238,23322018,94613798,30711628,0,0,0,20600519,0,0,0,40700719,0,0,0,0,0,0,11310009,0,12012009,0,0,10810509,0,0,-1081171,42011009,40711109,0,0,0,10500019,20211609,0,0,0,0,0,0
13,35,596.584143659129,1,0,30491.6750316068,30492.7220850001,2,0,1,11,19,103444555,140344666,64621937,155528764,20611409,0,0,21210119,0,10111209,10710609,0,40801209,0,-4031001,21610419,0,0,32001009,41501009,31000719,10200509,0,11101209,21710719,0,0,31810009,0,0,0,10811709,0,0,40601309,0,31402009,11711619,20700109,40302009
13,36,619.03545187306,0,0,30494.4397557861,30495.486823423,2,1,0,22,3,0,30701309,4040101,22201438,0,0,0,0,0,0,0,0,0,0,0,0,0,0,0,30701309,0,0,0,0,0,-4040101,0,0,0,0,0,10400519,0,0,0,11800919,0,0,0,0
13,37,483.206981236435,1,0,30497.1574350413,30498.2045111473,2,1,1,12,9,154545455,43811530,30200009,52712718,0,41311109,30400019,30711709,21711009,30411609,0,0,0,0,0,-3000011,40811519,0,0,0,0,0,0,0,0,0,30200009,0,0,0,0,0,40911909,0,0,0,0,0,0,11800809
13,38,608.809733857925,1,0,30499.7809917264,30500.8280574384,2,1,1,33,3,0,0,72712028,43451389,0,0,0,0,0,0,0,0,0,0,0,0,0,0,0,0,0,0,0,31800219,0,0,40911809,0,0,0,0,41410219,0,0,0,0,-2041170,0,0,0
13,39,553.011567353678,0,0,30502.4516206679,30503.4986806055,2,1,0,3,31,178597954,198039512,220639522,188957631,21611019,0,-1051070,41301309,30911319,21600809,0,21410519,40711909,41411709,30500219,11501509,21101809,40400319,10011019,0,31501919,11611009,40701719,30700919,21400809,21700809,31500809,41811319,21511819,11311319,0,11011419,11601809,30300619,11710019,11901109,20610319,20410109,30010519,41401709
13,40,673.492799352971,1,0,30505.134008242,30506.1810701044,2,0,1,36,19,146647864,61502957,186838213,78313288,0,10111919,31411109,0,0,31401009,21510709,12011209,40201909,40300019,0,11201919,0,0,0,10001019,0,0,0,0,31810019,31301809,40901619,11501219,20710319,10501809,40111419,0,0,20201809,22010309,0,0,0,31911009,-4190161
13,41,589.788427812891,0,0,30508.051688575,30509.0987823892,2,0,0,6,3,1021110,30311619,20910709,22001519,0,0,0,0,0,-1021110,0,0,0,0,0,0,0,30311619,0,0,0,0,0,0,0,0,0,0,0,0,20910709,0,0,0,0,0,22001519,0,0,0
13,42,745.943222154892,1,0,30510.8634911701,30511.9105568822,2,0,1,30,31,195836112,195947574,277456641,230030353,11000809,21101909,30310319,30501719,40410619,10500209,20210509,31800019,0,30711709,0,41010719,41110409,40301609,30801409,12011719,0,0,41801609,31910319,40301519,10310819,20510519,40700809,41010819,10100119,40810109,30411219,30110219,-2091141,41901209,21201919,41500509,40510919,10901209,11402009
13,43,521.408197248093,0,0,30513.8282302859,30514.8870669493,2,0,0,14,9,62803647,2181120,53524827,72825137,0,0,20401419,0,0,0,0,11401919,31000309,0,0,0,0,-2181120,0,0,0,0,0,11612009,0,21501209,20411609,0,0,0,0,31502009,11012009,0,30311119,0,0,0,0,0
13,44,573.851813944202,0,0,30516.5106182449,30517.5576901164,2,0,0,25,3,0,0,34161660,50611938,0,0,0,0,0,0,0,0,0,0,0,0,0,0,0,0,0,0,0,0,0,0,0,0,-3160051,31001609,0,0,30501719,0,0,0,0,0,0,20110219
13,45,593.056746369257,1,0,30519.2753532032,30520.3224200701,2,0,1,28,19,134645475,122624566,81622947,176688064,21511509,0,0,0,31110809,10511219,0,41401619,30110319,40001109,0,10710819,0,40611419,0,31301219,0,0,30900419,40011319,0,0,10711209,0,0,0,0,-1151071,30111509,0,30401609,10911019,20200409,21501309,41510219,20900919
13,46,493.330299628724,0,0,30522.0871604178,30523.1342192006,2,1,0,35,0,0,0,0,0,0,0,0,0,0,0,0,0,0,0,0,0,0,0,0,0,0,0,0,0,0,0,0,0,0,0,0,0,0,0,0,0,0,0,-40810191,0
13,47,658.661408404441,1,0,30524.8046414819,30525.8518980708,2,1,1,20,9,54425476,74012327,22473090,41501019,0,11101919,10511019,11401519,0,0,21411019,0,0,31710609,0,12000709,0,30301009,0,0,0,0,0,-1061171,0,0,0,0,21411919,0,0,0,0,0,0,0,0,0,0,41501019
13,48,487.942770978407,0,0,30527.6284016705,30528.6754608383,2,0,0,17,0,0,0,0,0,0,0,0,0,0,0,0,0,0,0,0,0,0,0,0,0,-10999991,0,0,0,0,0,0,0,0,0,0,0,0,0,0,0,0,0,0,0
13,49,510.262422543747,1,0,30530.2872554262,30531.3343195984,2,1,1,27,19,145924865,82614846,116435976,152634455,31300519,21201809,41300909,0,0,42011209,0,0,10110419,40302009,10110419,0,0,21000509,11201909,0,0,0,0,20700409,10201809,31600509,11911809,0,40911319,0,-1110121,40710509,40200209,0,30811809,0,0,30011619,0,10900309
13,50,597.926117567113,1,0,30532.9814047125,30534.0285285537,2,1,1,29,19,147033685,105315755,162940604,73562618,0,30410519,0,0,31810019,0,31600419,12000819,41211909,0,0,20001509,12001109,0,31100519,21501609,0,20711009,0,20901719,20102019,30611619,0,10311709,40101619,40911919,0,40801019,-2151181,20200109,10410309,0,0,0,0,0
13,51,468.476835019828,1,0,30535.7579171664,30536.8049801837,2,1,1,26,3,20201709,0,22562040,40200819,0,0,0,0,0,0,0,20201709,0,0,0,0,0,0,0,0,0,0,0,0,0,20410919,0,0,0,-2151121,0,40200819,0,0,0,0,0,0,0,0
13,52,640.485861586058,0,0,30538.3579384932,30539.4050130594,2,0,0,18,9,102633576,54103208,51802938,40801809,0,30610919,0,31311919,20210119,0,0,0,20500619,11101819,0,0,41001309,0,0,0,0,-2000080,0,31501519,0,0,0,0,20301419,0,0,0,0,0,0,40801809,0,0,0,0
13,53,818.420592222537,0,0,30555.4758000659,30556.5228626982,3,1,0,27,19,145924865,82614846,116435976,152634455,31300519,21201809,41300909,0,0,42011209,0,0,10110419,40302009,10110419,0,0,21000509,11201909,0,0,0,0,20700409,10201809,31600509,11911809,0,40911319,0,-1110121,40710509,40200209,0,30811809,0,0,30011619,0,10900309
13,54,464.262667377625,0,0,30558.3699573594,30559.4170153722,3,1,0,20,9,54425476,74012327,22473090,41501019,0,11101919,10511019,11401519,0,0,21411019,0,0,31710609,0,12000709,0,30301009,0,0,0,0,0,-1061171,0,0,0,0,21411919,0,0,0,0,0,0,0,0,0,0,41501019
13,55,500.847047358548,0,0,30560.9582192837,30562.0052842259,3,1,0,3,31,178597954,198039512,220639522,188957631,21611019,0,-1051070,41301309,30911319,21600809,0,21410519,40711909,41411709,30500219,11501509,21101809,40400319,10011019,0,31501919,11611009,40701719,30700919,21400809,21700809,31500809,41811319,21511819,11311319,0,11011419,11601809,30300619,11710019,11901109,20610319,20410109,30010519,41401709
13,56,545.377791491774,0,0,30563.5935449953,30564.6406126322,3,1,0,23,9,61301238,23322018,94613798,30711628,0,0,0,20600519,0,0,0,40700719,0,0,0,0,0,0,11310009,0,12012009,0,0,10810509,0,0,-1081171,42011009,40711109,0,0,0,10500019,20211609,0,0,0,0,0,0
13,57,457.983954103838,1,0,30566.3229798034,30567.3700505199,3,1,1,7,31,238979812,178217211,211167622,167037584,10111619,40811819,12000609,30701109,40110209,41900509,-2030120,40401809,20912009,11802009,10000319,30400319,21201109,21501109,20800409,10101209,41300409,11110319,31601209,21811019,41911719,11410009,11411719,41600119,10711409,40710419,0,21300609,41202019,11411119,0,21811609,30810909,0,0,40501319
13,58,471.722825845063,1,0,30569.0053781563,30570.0524750502,3,1,1,10,31,189146012,148589032,186359592,133837813,21200809,40601319,21901509,10100009,31911019,22010409,31310819,10110119,0,-3121200,10211709,20710719,11910619,30111019,10401609,20910019,20911019,20301119,30010309,21001709,41101709,10311019,11111919,0,10610209,20711309,41501409,20000319,21100219,10502019,31200919,0,0,10711709,30210819,10111809
13,59,957.338374570099,1,0,30571.6524701997,30572.6995459208,3,0,1,25,31,215038712,201542921,150417843,225244493,0,20500309,31010009,40711609,31401909,10510519,20300419,40302019,20301919,32011309,30401919,30200819,21701719,11001319,21611809,21000209,11811909,21801909,10912019,31511409,0,31010419,30811209,10000619,-3161040,21200219,11810909,40111319,31300119,0,30700009,10210809,0,40911319,41410409,30600509
13,60,522.242792616453,1,0,30574.8407449818,30575.8878110788,3,1,1,29,19,147033685,105315755,162940604,73562618,0,30410519,0,0,31810019,0,31600419,12000819,41211909,0,0,20001509,12001109,0,31100519,21501609,0,20711009,0,20901719,20102019,30611619,0,10311709,40101619,40911919,0,40801019,-2151181,20200109,10410309,0,0,0,0,0
13,61,917.468737752642,0,0,30577.4525403396,30578.4996087464,3,1,0,33,3,0,0,72712028,43451389,0,0,0,0,0,0,0,0,0,0,0,0,0,0,0,0,0,0,0,31800219,0,0,40911809,0,0,0,0,41410219,0,0,0,0,-2041170,0,0,0
13,62,606.181220417056,0,0,30580.4525707515,30581.4996372335,3,1,0,22,3,0,30701309,4040101,22201438,0,0,0,0,0,0,0,0,0,0,0,0,0,0,0,30701309,0,0,0,0,0,-4040101,0,0,0,0,0,10400519,0,0,0,11800919,0,0,0,0
13,63,447.484143889596,1,0,30583.2643718068,30584.3114386737,3,0,1,3,0,0,0,0,0,0,0,-31700791,0,0,0,0,0,0,0,0,0,0,0,0,0,0,0,0,0,0,0,0,0,0,0,0,0,0,0,0,0,0,0,0,0
13,64,463.928136305185,1,0,30585.8879331114,30586.9350103723,3,1,1,16,19,134222846,101886217,154116575,136626594,0,41710109,0,30601719,0,30410609,0,31500409,0,0,0,30311109,20211619,0,10101309,-1061171,0,40201009,0,40900519,40001919,0,0,10201009,21911109,0,41102019,20311109,31801919,10000219,0,21401019,0,0,41400909,11711419
13,65,554.960239740467,0,0,30588.5938529641,30589.6409760354,3,0,0,18,31,186342893,253679353,191066621,197468593,30810209,40610219,10610819,0,11810309,0,40600709,41800419,10100209,21010819,41201619,31010019,41600319,21411109,41000409,41811919,11502019,-3131121,11100919,31710409,20900019,11010009,21500709,11111409,31511319,21111219,31110609,40810619,0,11411819,0,41911909,40111219,31410509,21701809,10110709
13,66,421.079286603344,1,0,30591.4056513246,30592.4527189615,3,0,1,11,9,83425646,53212109,11701009,41322428,0,0,10902009,0,21311719,0,0,41210609,10001309,0,-2190091,0,40210509,0,0,0,10811509,0,0,0,0,0,0,11701009,0,0,0,0,0,30710609,0,0,10611819,0,0,0
13,67,425.017052275507,1,0,30593.9115624002,30594.9586315769,3,1,1,12,9,154545455,43811530,30200009,52712718,0,41311109,30400019,30711709,21711009,30411609,0,0,0,0,0,-3000011,40811519,0,0,0,0,0,0,0,0,0,30200009,0,0,0,0,0,40911909,0,0,0,0,0,0,11800809
13,68,432.062992746069,0,0,30596.5586517489,30597.6057190008,3,0,0,31,3,40000209,0,0,51812129,0,0,0,0,0,0,0,0,40000209,0,0,0,0,0,0,0,0,0,0,0,0,0,0,0,0,0,0,0,0,40200809,-1010011,10601309,0,0,0,0
13,69,484.132427387522,1,0,30599.1704567307,30600.2175197481,3,0,1,28,19,164834365,156934974,94023656,58245607,0,31411119,0,41000509,21100209,0,30111719,0,41210809,11900719,0,0,0,41210809,10110119,21611209,30700909,41401209,0,21510719,11111319,0,41100009,0,0,20301609,0,-4041051,0,0,21401919,0,11301009,11201419,10300209,0
13,70,552.26782277532,0,0,30601.8763623398,30602.9234392158,3,0,0,36,9,73403447,43312018,51210828,45863909,31600109,0,0,31101619,0,0,0,0,10701719,0,0,0,0,0,21912009,0,0,21400009,0,20300609,0,0,0,0,0,0,30910219,0,21801819,0,21000909,0,0,0,0,-3061181
13,71,394.875378944562,1,0,30604.6646395856,30605.7117002932,3,0,1,14,19,205937093,126695906,91421837,156324475,0,41801509,11400609,40210019,11112019,30111609,30901119,40400209,0,21400409,41111909,0,41011309,-3171070,0,20001209,0,0,31411419,0,40010109,0,0,0,0,0,20000309,30100819,0,0,21700019,0,41810209,0,30711409,32002019
13,72,575.039803472464,0,0,30607.2764310939,30608.3235018104,3,0,0,5,19,83004287,154213295,187556704,117044865,0,20101819,0,0,-1001150,30101309,0,0,31800009,0,0,21800719,40400519,0,0,30111419,40300319,21600319,0,31210719,30010519,32011219,41412019,11700919,41211309,0,0,0,22001619,0,41110009,11910009,0,10611209,31412019,0
13,73,423.466814485437,0,0,30610.0411664371,30611.0882363837,3,0,0,6,9,55073529,61523437,21712328,60012438,0,0,20100409,0,0,-4071201,30901919,0,0,10811609,0,0,30010709,0,0,20701119,0,0,0,0,0,0,10201209,11511119,0,0,0,40001119,0,0,0,0,0,0,0,20011319
13,74,598.74146488437,1,0,30612.6176755033,30613.6647462198,3,0,1,19,3,41710519,0,52853308,0,0,0,0,0,0,41710519,0,0,0,0,0,0,0,0,0,0,0,0,-1041080,0,20911919,0,30900309,0,0,0,0,0,0,0,0,0,0,0,0,0
13,75,817.838146289432,0,0,30615.4647720892,30616.5118312569,3,0,0,30,31,250746212,167658783,251048741,179816223,41200009,41310609,11800009,30111009,0,41910919,31400819,21511519,31501319,21911509,0,10600819,41411519,20510809,40311409,0,12000709,20912009,40911309,30900419,21410409,10502019,41501009,21701019,31400519,20811319,31910719,40010919,20801409,-3170130,30200919,11610409,0,31310609,11601509,31110319
13,76,507.472995421267,1,0,30618.5001034213,30619.5471668236,3,1,1,35,0,0,0,0,0,0,0,0,0,0,0,0,0,0,0,0,0,0,0,0,0,0,0,0,0,0,0,0,0,0,0,0,0,0,0,0,0,0,0,-40810191,0
13,77,449.251114700019,0,0,30621.1001301375,30622.1471950797,3,1,0,26,3,20201709,0,22562040,40200819,0,0,0,0,0,0,0,20201709,0,0,0,0,0,0,0,0,0,0,0,0,0,20410919,0,0,0,-2151121,0,40200819,0,0,0,0,0,0,0,0
13,78,529.615949901199,1,0,30623.6178090847,30624.6648751818,3,0,1,2,3,44092419,53602218,0,0,0,-2081200,0,0,0,0,0,0,42011219,0,0,0,41900709,0,0,0,0,11701509,0,0,0,0,0,0,0,0,0,0,0,0,0,0,0,0,0,0
13,79,578.76507068795,0,0,30635.3826564516,30636.4297198539,4,0,0,30,19,146428883,126317674,42811628,135323417,10201309,0,21210709,0,20101709,11901009,30201019,31901519,20911609,11801219,0,0,10600909,0,31301009,12011109,40601919,20001509,0,0,0,30901309,0,0,11910319,0,0,30011519,0,-2090051,0,20010619,0,42010019,41201209,0
13,80,872.421376006969,0,0,30638.170927538,30639.217993635,4,0,0,6,31,229961153,249049712,209360921,155554914,40201519,21410719,11201709,40101009,10600319,-3011141,40711619,20711609,42011509,11410819,30511409,42010609,40001809,41811409,41100619,20601619,0,21601419,11810619,41901809,31911619,30711109,10511509,11211019,20100809,40300609,10901819,0,0,30311319,31710519,0,31800119,30811919,10910619,20010419
13,81,480.031053306448,1,0,30641.1121409195,30642.159202782,4,1,1,29,19,147033685,105315755,162940604,73562618,0,30410519,0,0,31810019,0,31600419,12000819,41211909,0,0,20001509,12001109,0,31100519,21501609,0,20711009,0,20901719,20102019,30611619,0,10311709,40101619,40911919,0,40801019,-2151181,20200109,10410309,0,0,0,0,0
13,82,437.745786453888,1,0,30643.7945269538,30644.8415934358,4,1,1,23,9,61301238,23322018,94613798,30711628,0,0,0,20600519,0,0,0,40700719,0,0,0,0,0,0,11310009,0,12012009,0,0,10810509,0,0,-1081171,42011009,40711109,0,0,0,10500019,20211609,0,0,0,0,0,0
13,83,401.214531091682,1,0,30646.4769099083,30647.5239779301,4,1,1,35,0,0,0,0,0,0,0,0,0,0,0,0,0,0,0,0,0,0,0,0,0,0,0,0,0,0,0,0,0,0,0,0,0,0,0,0,0,0,0,-40810191,0
13,84,382.894623911852,1,0,30649.0534174347,30650.1005143286,4,1,1,16,19,134222846,101886217,154116575,136626594,0,41710109,0,30601719,0,30410609,0,31500409,0,0,0,30311109,20211619,0,10101309,-1061171,0,40201009,0,40900519,40001919,0,0,10201009,21911109,0,41102019,20311109,31801919,10000219,0,21401019,0,0,41400909,11711419
13,85,444.856015408732,0,0,30651.6652151023,30652.7122711903,4,1,0,3,31,178597954,198039512,220639522,188957631,21611019,0,-1051070,41301309,30911319,21600809,0,21410519,40711909,41411709,30500219,11501509,21101809,40400319,10011019,0,31501919,11611009,40701719,30700919,21400809,21700809,31500809,41811319,21511819,11311319,0,11011419,11601809,30300619,11710019,11901109,20610319,20410109,30010519,41401709
13,86,493.424230106029,0,0,30654.3358278754,30655.3828974371,4,0,0,11,9,40900738,94763698,33113118,33012838,0,0,0,0,10000319,0,0,0,30900419,0,-1131151,0,0,11910809,0,0,41511119,40210619,0,11101909,0,0,0,0,0,0,22011209,0,0,0,0,12001919,0,0,21010919,0
13,87,496.89118851893,1,0,30656.9241017336,30657.9711651359,4,0,1,25,3,31101219,40101309,2181101,21901109,0,0,0,0,31101219,0,0,0,0,0,0,40101309,0,0,0,0,0,0,0,0,0,0,0,0,-2181101,0,0,0,0,0,0,0,21901109,0,0,0
13,88,557.252297297964,1,0,30659.4888367688,30660.5359024809,4,0,1,19,31,219168932,267557512,200188623,196458702,21711719,20500219,11511309,40811019,0,40711919,20911609,31310119,31701019,41210719,0,31011319,40411909,21401009,40010309,10501909,41010019,42000319,-2150130,10501719,41801219,31701309,0,10910909,31900219,30311909,40911209,20511019,30710409,20511709,20000419,11311019,0,30112009,31500709,31801409
13,89,434.029373336671,0,0,30662.1359234227,30663.1829949092,4,0,0,24,0,0,0,0,0,0,0,0,0,0,0,0,0,0,0,0,0,0,0,0,0,0,0,0,0,0,0,0,-21001591,0,0,0,0,0,0,0,0,0,0,0,0
13,90,508.204806206777,0,0,30664.6418395028,30665.6889044449,4,1,0,27,19,145924865,82614846,116435976,152634455,31300519,21201809,41300909,0,0,42011209,0,0,10110419,40302009,10110419,0,0,21000509,11201909,0,0,0,0,20700409,10201809,31600509,11911809,0,40911319,0,-1110121,40710509,40200209,0,30811809,0,0,30011619,0,10900309
13,91,504.808295649127,0,0,30667.2183462593,30668.2654077367,4,0,0,5,9,53762679,51501138,11011619,83704456,0,0,0,0,-2150141,20211619,0,31400919,0,0,30600119,0,0,0,0,0,0,20901019,0,0,0,0,11011619,0,0,0,0,11200509,0,0,0,40401519,0,0,20101019,12001409
13,92,520.143215533608,1,0,30669.8889609572,30670.936019355,4,0,1,36,3,52321938,20700909,0,4101071,0,31411719,0,0,0,0,0,0,20910219,0,0,20700909,0,0,0,0,0,0,0,0,0,0,0,0,0,0,0,0,0,0,0,0,0,0,0,-4101071
13,93,475.134734842868,1,0,30672.547813558,30673.5948785001,4,1,1,12,9,154545455,43811530,30200009,52712718,0,41311109,30400019,30711709,21711009,30411609,0,0,0,0,0,-3000011,40811519,0,0,0,0,0,0,0,0,0,30200009,0,0,0,0,0,40911909,0,0,0,0,0,0,11800809
13,94,511.411146053433,1,0,30675.2654989725,30676.3125585252,4,0,1,28,19,197966683,186745794,10810919,134818246,0,41900209,0,30210409,41410009,12011219,20011509,21511419,30911909,0,0,31710519,40411509,10401519,20810219,41801109,0,41610919,0,0,0,0,0,0,0,0,10810919,-2081171,10511719,0,40411109,11001709,40510819,0,0,30301719
13,95,592.311076987244,0,0,30678.0067074265,30679.053769674,4,1,0,7,31,238979812,178217211,211167622,167037584,10111619,40811819,12000609,30701109,40110209,41900509,-2030120,40401809,20912009,11802009,10000319,30400319,21201109,21501109,20800409,10101209,41300409,11110319,31601209,21811019,41911719,11410009,11411719,41600119,10711409,40710419,0,21300609,41202019,11411119,0,21811609,30810909,0,0,40501319
13,96,435.15461422794,1,0,30680.7597534301,30681.8067409951,4,0,1,14,3,0,44931510,31801119,41200509,0,0,0,0,0,0,0,0,0,41801409,0,0,0,-3130101,0,0,0,0,0,0,0,0,0,31801119,0,0,0,0,0,0,41200509,0,0,0,0,0
13,97,430.727563176333,0,0,30683.3950521945,30684.4420690165,4,1,0,22,3,0,30701309,4040101,22201438,0,0,0,0,0,0,0,0,0,0,0,0,0,0,0,30701309,0,0,0,0,0,-4040101,0,0,0,0,0,10400519,0,0,0,11800919,0,0,0,0
13,98,492.099194478214,0,0,30686.0538659142,30687.1009320112,4,0,0,2,9,45001510,135111476,83332637,11111419,0,-3101091,41900419,0,0,0,0,0,0,0,0,0,0,21900519,41500019,40210819,31500119,0,31710309,0,11511919,0,0,0,0,0,40110409,0,0,0,0,0,0,0,11111419,0
13,99,484.441166077886,0,0,30688.7833061117,30689.8303641245,4,1,0,10,31,189146012,148589032,186359592,133837813,21200809,40601319,21901509,10100009,31911019,22010409,31310819,10110119,0,-3121200,10211709,20710719,11910619,30111019,10401609,20910019,20911019,20301119,30010309,21001709,41101709,10311019,11111919,0,10610209,20711309,41501409,20000319,21100219,10502019,31200919,0,0,10711709,30210819,10111809
13,100,520.57783645796,1,0,30691.3951026244,30692.4421683365,4,1,1,33,3,0,0,72712028,43451389,0,0,0,0,0,0,0,0,0,0,0,0,0,0,0,0,0,0,0,31800219,0,0,40911809,0,0,0,0,41410219,0,0,0,0,-2041170,0,0,0
13,101,461.599507452775,1,0,30694.0421973625,30695.0892626896,4,1,1,20,9,54425476,74012327,22473090,41501019,0,11101919,10511019,11401519,0,0,21411019,0,0,31710609,0,12000709,0,30301009,0,0,0,0,0,-1061171,0,0,0,0,21411919,0,0,0,0,0,0,0,0,0,0,41501019
13,102,418.479645235493,0,0,30696.7363397195,30697.7834162105,4,1,0,26,3,20201709,0,22562040,40200819,0,0,0,0,0,0,0,20201709,0,0,0,0,0,0,0,0,0,0,0,0,0,20410919,0,0,0,-2151121,0,40200819,0,0,0,0,0,0,0,0
13,103,597.069964391267,0,0,30699.27755441,30700.3246158874,4,0,0,18,31,165335073,170858812,207940602,215647402,30810609,21000109,10400709,30010209,30100509,11111909,0,0,31901019,11911119,20001319,21101719,40600009,31000019,10211909,11410909,20610709,-4011100,10510109,20301009,20911009,20101819,41501709,0,41501519,41902019,11211409,20602009,11811719,40101109,40610309,10010319,0,31100009,41010219,20401709
13,104,618.774063379533,1,0,30702.065818952,30703.1128896686,4,0,1,31,19,116947375,136835965,156236874,58094187,0,11711619,0,41410819,0,0,11901719,20612009,31311209,0,21901819,0,42012009,21400119,41210409,0,0,10311609,10801109,31601509,0,0,21411109,30511719,21801419,40110009,0,0,0,30310609,-4161160,11710409,0,0,11912009,0
13,105,460.240595257346,1,0,30719.4072019474,30720.4542776684,5,0,1,14,3,10310819,1010200,10401309,22011019,0,0,0,0,0,0,0,0,10310819,0,0,0,0,-1010200,0,0,0,0,0,0,0,0,0,10401309,0,0,0,0,0,0,0,0,0,22011019,0,0
13,106,511.575909342355,0,0,30721.9719408322,30723.0190169382,5,1,0,7,31,238979812,178217211,211167622,167037584,10111619,40811819,12000609,30701109,40110209,41900509,-2030120,40401809,20912009,11802009,10000319,30400319,21201109,21501109,20800409,10101209,41300409,11110319,31601209,21811019,41911719,11410009,11411719,41600119,10711409,40710419,0,21300609,41202019,11411119,0,21811609,30810909,0,0,40501319
13,107,742.838896963804,0,0,30724.5837843102,30725.6308049818,5,1,0,12,9,154545455,43811530,30200009,52712718,0,41311109,30400019,30711709,21711009,30411609,0,0,0,0,0,-3000011,40811519,0,0,0,0,0,0,0,0,0,30200009,0,0,0,0,0,40911909,0,0,0,0,0,0,11800809
13,108,653.527569022117,0,0,30727.4308316211,30728.4779019527,5,0,0,30,31,217926402,180139583,168248242,232246252,31401619,40300509,21700709,21600219,0,40901909,10310109,31700319,20011009,41000519,11401809,31911109,11911709,0,0,21701709,21411709,40801019,0,21411619,10401719,40711919,11110619,10900009,41810619,20200719,11701019,20501009,41710419,-4180040,20910619,10711419,40101719,31510009,21010509,41610509
13,109,464.515971689252,1,0,30730.2308678844,30731.2779362912,5,0,1,16,0,0,0,0,0,0,0,0,0,0,0,0,0,0,0,0,0,0,0,0,-41801901,0,0,0,0,0,0,0,0,0,0,0,0,0,0,0,0,0,0,0,0
13,110,526.573988387099,1,0,30732.8426971188,30733.8897328039,5,1,1,35,0,0,0,0,0,0,0,0,0,0,0,0,0,0,0,0,0,0,0,0,0,0,0,0,0,0,0,0,0,0,0,0,0,0,0,0,0,0,0,-40810191,0
13,111,479.819709737058,0,0,30735.4544589851,30736.5015343211,5,0,0,25,3,0,20111409,3041101,82210528,0,0,0,0,0,0,0,0,0,0,0,0,0,0,0,0,0,20111409,0,0,0,0,0,0,-3041101,0,0,0,41610319,0,0,40600209,0,0,0,0
13,112,555.563473564689,1,0,30738.0427324582,30739.0897958605,5,0,1,19,31,230433802,187260802,224457192,165759603,40900909,21711719,41201019,30610009,31600109,11200009,41400019,0,11810009,40811809,10811909,31100909,21601909,41410419,20411519,10510409,0,10601919,-4030070,11910409,31901519,21910619,31502009,30500909,40200119,21200619,31300919,0,40110419,41911709,10611709,11311119,0,10611609,21202019,30001019
13,113,569.469418362132,1,0,30740.8427510134,30741.8898332788,5,1,1,23,9,61301238,23322018,94613798,30711628,0,0,0,20600519,0,0,0,40700719,0,0,0,0,0,0,11310009,0,12012009,0,0,10810509,0,0,-1081171,42011009,40711109,0,0,0,10500019,20211609,0,0,0,0,0,0
13,114,453.55382336129,1,0,30743.4898584552,30744.5369218575,5,1,1,16,19,134222846,101886217,154116575,136626594,0,41710109,0,30601719,0,30410609,0,31500409,0,0,0,30311109,20211619,0,10101309,-1061171,0,40201009,0,40900519,40001919,0,0,10201009,21911109,0,41102019,20311109,31801919,10000219,0,21401019,0,0,41400909,11711419
13,115,488.760043099319,0,0,30746.0664202611,30747.1134228395,5,1,0,26,3,20201709,0,22562040,40200819,0,0,0,0,0,0,0,20201709,0,0,0,0,0,0,0,0,0,0,0,0,0,20410919,0,0,0,-2151121,0,40200819,0,0,0,0,0,0,0,0
13,116,441.467589025706,1,0,30748.7958038693,30749.8428568776,5,1,1,22,3,0,30701309,4040101,22201438,0,0,0,0,0,0,0,0,0,0,0,0,0,0,0,30701309,0,0,0,0,0,-4040101,0,0,0,0,0,10400519,0,0,0,11800919,0,0,0,0
13,117,556.103958751919,1,0,30751.4899504609,30752.5370215624,5,0,1,11,9,81022128,96573717,72110328,53611838,0,0,0,0,40811019,40211109,0,0,0,41501119,-4150060,0,0,20510819,0,30411719,0,0,0,40610219,0,0,0,0,0,0,31500109,0,0,31701219,21910619,0,0,0,0,0
13,118,700.354220334702,1,0,30754.2429287113,30755.2899905738,5,0,1,31,19,145534055,153544885,83614856,106173756,0,11701309,31211209,31310319,30601009,40710209,0,0,0,0,30210819,0,40510519,22000709,0,20111619,0,40711219,0,0,0,11801609,21800319,0,0,10011419,40001509,21101209,0,0,-1161081,20810219,30800019,20500719,11800509,0
13,119,419.142548013042,1,0,30757.1959014954,30758.2429722119,5,0,1,28,9,83234327,73923837,60721528,23712579,41511909,0,0,11311509,0,0,0,30410909,0,20501109,0,0,32011309,0,0,0,0,21411419,0,30510319,30211209,0,0,0,0,0,0,-2101070,0,0,0,21611509,0,0,0,0
13,120,456.737065549532,0,0,30759.7253456194,30760.7724178758,5,1,0,20,9,54425476,74012327,22473090,41501019,0,11101919,10511019,11401519,0,0,21411019,0,0,31710609,0,12000709,0,30301009,0,0,0,0,0,-1061171,0,0,0,0,21411919,0,0,0,0,0,0,0,0,0,0,41501019
13,121,449.547919601173,1,0,30762.3724376628,30763.4195056847,5,0,1,5,3,4030160,0,60412728,40301019,0,0,0,0,-4030160,0,0,0,0,0,0,0,0,0,0,0,0,0,0,0,0,0,0,0,0,30211209,30201519,0,0,0,0,0,0,0,40301019,0
13,122,531.881830120255,0,0,30765.0430535157,30766.0901157631,5,1,0,29,19,147033685,105315755,162940604,73562618,0,30410519,0,0,31810019,0,31600419,12000819,41211909,0,0,20001509,12001109,0,31100519,21501609,0,20711009,0,20901719,20102019,30611619,0,10311709,40101619,40911919,0,40801019,-2151181,20200109,10410309,0,0,0,0,0
13,123,443.86474093335,0,0,30767.796023297,30768.843090164,5,1,0,10,31,189146012,148589032,186359592,133837813,21200809,40601319,21901509,10100009,31911019,22010409,31310819,10110119,0,-3121200,10211709,20710719,11910619,30111019,10401609,20910019,20911019,20301119,30010309,21001709,41101709,10311019,11111919,0,10610209,20711309,41501409,20000319,21100219,10502019,31200919,0,0,10711709,30210819,10111809
13,124,493.178240049019,0,0,30770.4548889865,30771.501949694,5,1,0,3,31,178597954,198039512,220639522,188957631,21611019,0,-1051070,41301309,30911319,21600809,0,21410519,40711909,41411709,30500219,11501509,21101809,40400319,10011019,0,31501919,11611009,40701719,30700919,21400809,21700809,31500809,41811319,21511819,11311319,0,11011419,11601809,30300619,11710019,11901109,20610319,20410109,30010519,41401709
13,125,556.049294296827,0,0,30773.0549214772,30774.1019817998,5,1,0,27,19,145924865,82614846,116435976,152634455,31300519,21201809,41300909,0,0,42011209,0,0,10110419,40302009,10110419,0,0,21000509,11201909,0,0,0,0,20700409,10201809,31600509,11911809,0,40911319,0,-1110121,40710509,40200209,0,30811809,0,0,30011619,0,10900309
13,126,529.335698323848,0,0,30775.713772923,30776.7608420997,5,0,0,6,19,85524146,126544465,83724984,94924266,0,0,0,10910709,0,-3111090,20500119,40801809,10200419,11101709,0,21812019,0,40510209,41710119,0,11410409,0,10600509,0,20510419,20900419,0,10810909,10401109,10501619,0,11512019,0,0,20210419,41300419,0,0,21901409,0
13,127,463.31489349177,1,0,30778.4667446292,30779.5138134209,5,1,1,33,3,0,0,72712028,43451389,0,0,0,0,0,0,0,0,0,0,0,0,0,0,0,0,0,0,0,31800219,0,0,40911809,0,0,0,0,41410219,0,0,0,0,-2041170,0,0,0
13,128,529.34763210942,0,0,30781.1726637119,30782.2197325037,5,0,0,18,31,216858222,219874695,220358231,206450892,30400319,40411709,12011319,31711319,0,31810109,10001519,40111909,20400019,0,31210519,40710509,0,30611409,40611009,31900319,41710919,-3120011,10401219,40910909,31811409,21810909,21311219,20500519,31400319,11311219,30900509,40510909,11601209,41511619,10101609,31900809,30101809,0,20312009,20410919
13,129,519.581172531616,1,0,30783.8903375776,30784.9374117588,5,0,1,36,9,72010428,103414356,31610719,54783498,31700309,0,0,40310119,0,0,0,0,0,30901019,0,0,30610109,21201309,0,0,20701919,0,0,0,0,0,0,0,0,0,31610719,0,0,30711309,0,22001019,0,0,0,-2071170
13,130,493.535868783511,0,0,30786.5963094,30787.6433308416,5,0,0,2,19,64686018,136921555,196533794,135834865,11801609,-1161071,0,0,0,0,0,30511319,21212019,0,0,11500009,40700709,41910209,12010219,0,30800409,0,30210119,10800019,31610319,41801409,40510619,41601309,0,0,0,32012009,21500519,30211119,0,12000909,40110309,0,0,0
13,131,532.088169195049,1,0,30792.584564626,30793.6316361125,6,1,1,33,3,0,0,72712028,43451389,0,0,0,0,0,0,0,0,0,0,0,0,0,0,0,0,0,0,0,31800219,0,0,40911809,0,0,0,0,41410219,0,0,0,0,-2041170,0,0,0
13,132,468.317461181869,1,0,30795.3375459562,30796.384604739,6,1,1,27,19,145924865,82614846,116435976,152634455,31300519,21201809,41300909,0,0,42011209,0,0,10110419,40302009,10110419,0,0,21000509,11201909,0,0,0,0,20700409,10201809,31600509,11911809,0,40911319,0,-1110121,40710509,40200209,0,30811809,0,0,30011619,0,10900309
13,133,435.065688245231,1,0,30797.9846329951,30799.0316940876,6,0,1,14,9,53102018,32290310,62021927,65015737,0,0,0,22001209,0,0,0,0,31100809,0,0,0,0,-2190101,0,0,30100209,0,0,0,0,10010209,0,10301409,0,0,41710309,0,0,31801919,21412009,0,11801809,0,0,0
13,134,490.948161201231,0,0,30800.5376063181,30801.5846743399,6,1,0,3,31,178597954,198039512,220639522,188957631,21611019,0,-1051070,41301309,30911319,21600809,0,21410519,40711909,41411709,30500219,11501509,21101809,40400319,10011019,0,31501919,11611009,40701719,30700919,21400809,21700809,31500809,41811319,21511819,11311319,0,11011419,11601809,30300619,11710019,11901109,20610319,20410109,30010519,41401709
13,135,460.967016591894,0,0,30803.1846983615,30804.2317652284,6,1,0,12,9,154545455,43811530,30200009,52712718,0,41311109,30400019,30711709,21711009,30411609,0,0,0,0,0,-3000011,40811519,0,0,0,0,0,0,0,0,0,30200009,0,0,0,0,0,40911909,0,0,0,0,0,0,11800809
13,136,457.501598019007,1,0,30805.867081701,30806.9141427935,6,1,1,20,9,54425476,74012327,22473090,41501019,0,11101919,10511019,11401519,0,0,21411019,0,0,31710609,0,12000709,0,30301009,0,0,0,0,0,-1061171,0,0,0,0,21411919,0,0,0,0,0,0,0,0,0,0,41501019
13,137,411.190409435221,1,0,30808.4553493998,30809.5024147269,6,1,1,10,31,189146012,148589032,186359592,133837813,21200809,40601319,21901509,10100009,31911019,22010409,31310819,10110119,0,-3121200,10211709,20710719,11910619,30111019,10401609,20910019,20911019,20301119,30010309,21001709,41101709,10311019,11111919,0,10610209,20711309,41501409,20000319,21100219,10502019,31200919,0,0,10711709,30210819,10111809
13,138,441.005635871988,1,0,30811.0906739565,30812.1377800895,6,1,1,35,0,0,0,0,0,0,0,0,0,0,0,0,0,0,0,0,0,0,0,0,0,0,0,0,0,0,0,0,0,0,0,0,0,0,0,0,0,0,0,-40810191,0
13,139,496.511617013311,0,0,30813.6671749385,30814.7142391108,6,0,0,28,19,112235655,67043366,145536274,97785936,40011219,21011909,10500809,0,0,30700109,0,0,10011609,11510619,0,0,32011919,11910719,11610109,0,0,0,41101509,30701719,31510419,0,0,0,11601209,20310009,10311409,-4151170,0,0,0,41311919,0,10201619,31510009,10611219
13,140,480.987296334206,0,0,30816.3495628976,30817.3966301495,6,0,0,25,19,176436003,134717675,54641258,113536755,21411309,10600709,10211019,0,0,40900419,41500819,21201609,30610119,40301309,0,0,30711719,30801719,21101719,0,0,11801209,0,0,0,41500809,11010309,0,-2130140,0,0,10911609,0,30811709,0,21311209,0,30401919,20100309,0
13,141,468.24970805028,1,0,30818.9731215075,30820.0201864496,6,1,1,26,3,20201709,0,22562040,40200819,0,0,0,0,0,0,0,20201709,0,0,0,0,0,0,0,0,0,0,0,0,0,20410919,0,0,0,-2151121,0,40200819,0,0,0,0,0,0,0,0
13,142,480.923777777207,1,0,30821.5025644767,30822.5496294188,6,0,1,19,3,0,0,35621278,40110319,0,0,0,0,0,0,0,0,0,0,0,0,0,0,0,0,0,0,-4010150,0,0,0,0,0,20511119,0,11100009,0,0,40110319,0,0,0,0,0,0
13,143,594.204699958937,0,0,30824.1261323257,30825.173195343,6,0,0,36,31,178144422,207366222,188749341,145955635,30510319,41901019,11010519,11310719,31510109,11500509,10100419,0,30300809,10901009,30010909,20711219,40812019,20410419,12010019,40500419,0,32010209,22010219,21900609,10700119,10711819,20501709,31711419,20300919,10510719,40401809,31911109,0,30310919,11101319,30510009,0,10210619,30711509,-1200151
13,144,468.124595743575,0,0,30826.8202758376,30827.8673334655,6,0,0,31,9,31010119,73110738,63102147,105672598,0,0,0,0,0,0,31010119,0,0,0,0,41200219,0,31910519,0,0,0,0,0,0,0,31101319,20100119,0,0,0,11900709,20010909,0,0,-4050051,0,0,0,40301519,41310119
13,145,470.854353916366,0,0,30829.5026680312,30830.5497268139,6,0,0,18,9,101224047,55171609,10610509,72604437,30011919,0,0,0,0,30410719,0,0,40801409,0,10710919,0,40310519,0,0,0,0,-4150171,0,0,0,0,10610509,0,0,0,0,0,40201319,0,0,11201909,0,0,0,21201209
13,146,650.639976855018,1,0,30832.0438746374,30833.0909395796,6,1,1,29,19,147033685,105315755,162940604,73562618,0,30410519,0,0,31810019,0,31600419,12000819,41211909,0,0,20001509,12001109,0,31100519,21501609,0,20711009,0,20901719,20102019,30611619,0,10311709,40101619,40911919,0,40801019,-2151181,20200109,10410309,0,0,0,0,0
13,147,506.704998300847,0,0,30834.7615623617,30835.8086711894,6,0,0,30,31,196416113,238648212,252148831,147549583,10210719,31300509,30201819,20901209,31300819,42000519,0,30500519,0,40611919,41701319,31600619,20311309,30010909,0,42001309,11010619,21400209,21710419,21011809,41401719,21701209,11600719,40700209,40510809,31810619,21701319,20211419,11310909,-2091060,30811519,20400219,30701819,11711319,20311319,0
13,148,1114.26732540713,1,0,30837.4439372321,30838.4909994795,6,1,1,7,31,238979812,178217211,211167622,167037584,10111619,40811819,12000609,30701109,40110209,41900509,-2030120,40401809,20912009,11802009,10000319,30400319,21201109,21501109,20800409,10101209,41300409,11110319,31601209,21811019,41911719,11410009,11411719,41600119,10711409,40710419,0,21300609,41202019,11411119,0,21811609,30810909,0,0,40501319
13,149,509.141801183432,1,0,30840.667505235,30841.7263353541,6,0,1,1,0,0,0,0,0,-12010091,0,0,0,0,0,0,0,0,0,0,0,0,0,0,0,0,0,0,0,0,0,0,0,0,0,0,0,0,0,0,0,0,0,0,0
13,150,463.158984304755,0,0,30843.2910642299,30844.3381345615,6,1,0,23,9,61301238,23322018,94613798,30711628,0,0,0,20600519,0,0,0,40700719,0,0,0,0,0,0,11310009,0,12012009,0,0,10810509,0,0,-1081171,42011009,40711109,0,0,0,10500019,20211609,0,0,0,0,0,0
13,151,672.770997549378,0,0,30845.8205098938,30846.8675771457,6,0,0,6,31,199457954,184924513,252240241,260212441,40201119,41911509,31801319,0,31710319,-2011170,20410609,31411909,0,10001019,40400019,0,0,40600119,20101409,30411909,21600019,21810019,41600419,41901119,10901919,11010719,31011309,32001009,10111419,31800519,41901809,41901919,21601619,20001809,30301419,32000809,30602009,10400519,41700719,31701619
13,152,443.248803396273,0,0,30848.5970138786,30849.6440795906,6,1,0,16,19,134222846,101886217,154116575,136626594,0,41710109,0,30601719,0,30410609,0,31500409,0,0,0,30311109,20211619,0,10101309,-1061171,0,40201009,0,40900519,40001919,0,0,10201009,21911109,0,41102019,20311109,31801919,10000219,0,21401019,0,0,41400909,11711419
13,153,511.474664610432,0,0,30851.2088065417,30852.2558845725,6,0,0,11,3,61612927,4041001,0,0,0,20101709,10200709,31310509,0,0,0,0,0,0,-4041001,0,0,0,0,0,0,0,0,0,0,0,0,0,0,0,0,0,0,0,0,0,0,0,0,0
13,154,451.355311313819,1,0,30853.8559008948,30854.9029631423,6,0,1,5,3,4150111,71112128,0,21400909,0,0,0,0,-4150111,0,0,0,0,0,0,0,0,0,0,30101519,0,41010609,0,0,0,0,0,0,0,0,0,0,0,0,21400909,0,0,0,0,0
13,155,428.249954427883,0,0,30856.5029887037,30857.5500548007,6,1,0,22,3,0,30701309,4040101,22201438,0,0,0,0,0,0,0,0,0,0,0,0,0,0,0,30701309,0,0,0,0,0,-4040101,0,0,0,0,0,10400519,0,0,0,11800919,0,0,0,0
13,156,527.70885330392,1,0,30859.0794896857,30860.126563097,6,0,1,2,19,126740266,165713774,135212365,71923827,0,-1201101,10312019,42011919,21201709,0,10901909,41111609,0,10300409,21500819,0,20611319,30700309,0,42000809,0,40600109,12000109,41300219,20500509,0,0,0,30001509,31410019,0,11510709,0,0,0,0,0,30001509,30411609,0
13,157,550.972814104171,1,0,30865.1030978016,30866.1501550445,7,1,1,23,9,61301238,23322018,94613798,30711628,0,0,0,20600519,0,0,0,40700719,0,0,0,0,0,0,11310009,0,12012009,0,0,10810509,0,0,-1081171,42011009,40711109,0,0,0,10500019,20211609,0,0,0,0,0,0
13,158,455.842031315115,0,0,30867.8560691228,30868.9031340649,7,1,0,3,31,178597954,198039512,220639522,188957631,21611019,0,-1051070,41301309,30911319,21600809,0,21410519,40711909,41411709,30500219,11501509,21101809,40400319,10011019,0,31501919,11611009,40701719,30700919,21400809,21700809,31500809,41811319,21511819,11311319,0,11011419,11601809,30300619,11710019,11901109,20610319,20410109,30010519,41401709
13,159,511.64982184855,0,0,30870.5502211038,30871.597295285,7,0,0,36,9,73323637,30101809,20801219,108305207,21211319,0,0,21301009,0,0,30811309,0,0,0,0,0,0,0,0,30101809,0,0,0,0,0,0,0,0,0,20801219,0,0,41500819,0,0,10711309,0,31202019,21711019,-3180041
13,160,569.249220690836,0,0,30873.2326036734,30874.2796766997,7,0,0,30,31,165646304,267148522,207550141,170379543,40711519,0,10911519,21400819,0,30110519,20900919,41611009,0,31200019,30300009,20902009,40102019,41111109,30710719,41410819,0,31411819,30701019,20310919,11510409,21210819,30011509,20600909,40901719,21901119,10401719,21410609,10811519,-2021141,10711209,31311519,30900219,10901309,20600009,31712009
13,161,446.91209190205,1,0,30875.9620515701,30877.0091553933,7,1,1,22,3,0,30701309,4040101,22201438,0,0,0,0,0,0,0,0,0,0,0,0,0,0,0,30701309,0,0,0,0,0,-4040101,0,0,0,0,0,10400519,0,0,0,11800919,0,0,0,0
13,162,445.131647458766,0,0,30878.4679680351,30879.5150225833,7,1,0,29,19,147033685,105315755,162940604,73562618,0,30410519,0,0,31810019,0,31600419,12000819,41211909,0,0,20001509,12001109,0,31100519,21501609,0,20711009,0,20901719,20102019,30611619,0,10311709,40101619,40911919,0,40801019,-2151181,20200109,10410309,0,0,0,0,0
13,163,535.046209221036,1,0,30881.0209405882,30882.0680039905,7,1,1,26,3,20201709,0,22562040,40200819,0,0,0,0,0,0,0,20201709,0,0,0,0,0,0,0,0,0,0,0,0,0,20410919,0,0,0,-2151121,0,40200819,0,0,0,0,0,0,0,0
13,164,468.417935993784,1,0,30883.7503784759,30884.7974418782,7,0,1,31,9,21500009,102724466,62312128,84791129,0,0,0,0,0,0,21500009,0,0,20011319,0,0,31500519,0,0,10710909,0,40501719,0,41311619,21000509,0,0,0,0,0,0,42010219,0,0,-1180091,0,0,41600819,0,0
13,165,760.137117747945,0,0,30886.3386473295,30887.3857099619,7,0,0,6,19,125552826,74934775,96005156,163925285,30710219,10610109,0,31300219,20800809,-2021151,0,30110319,0,10310219,0,21612019,0,0,11500719,0,10310309,21201509,0,22002009,0,0,11600319,41002019,0,21400809,0,0,0,0,40511819,21201119,0,41811609,30300119,30100619
13,166,439.356848077296,1,0,30889.1975040879,30890.2445755743,7,0,1,14,19,153434575,117453186,62833756,147944174,0,0,40110119,31210009,30200919,30401509,0,21512019,0,10710109,0,31511909,0,-3130150,0,41500509,30600509,0,10101219,21910009,0,0,0,0,20011319,10811209,0,31711219,11010909,0,12000709,0,40410509,30800519,22010309,0
13,167,533.863994107378,1,0,30891.8210750165,30892.8681326444,7,1,1,12,9,154545455,43811530,30200009,52712718,0,41311109,30400019,30711709,21711009,30411609,0,0,0,0,0,-3000011,40811519,0,0,0,0,0,0,0,0,0,30200009,0,0,0,0,0,40911909,0,0,0,0,0,0,11800809
13,168,467.066723020253,1,0,30894.5975689923,30895.6446335495,7,1,1,16,19,134222846,101886217,154116575,136626594,0,41710109,0,30601719,0,30410609,0,31500409,0,0,0,30311109,20211619,0,10101309,-1061171,0,40201009,0,40900519,40001919,0,0,10201009,21911109,0,41102019,20311109,31801919,10000219,0,21401019,0,0,41400909,11711419
13,169,474.035671297315,0,0,30897.2446621906,30898.2917252079,7,1,0,35,0,0,0,0,0,0,0,0,0,0,0,0,0,0,0,0,0,0,0,0,0,0,0,0,0,0,0,0,0,0,0,0,0,0,0,0,0,0,0,-40810191,0
13,170,436.863840892329,0,0,30899.9388160964,30900.98591607,7,0,0,5,3,2160190,61921338,0,21001009,0,0,0,0,-2160190,0,0,0,0,0,31310419,30610919,0,0,0,0,0,0,0,0,0,0,0,0,0,0,0,21001009,0,0,0,0,0,0,0,0
13,171,457.916970895894,0,0,30902.4917863397,30903.5388840035,7,0,0,15,0,0,0,0,0,0,0,0,0,0,0,0,0,0,0,0,0,0,0,-31500991,0,0,0,0,0,0,0,0,0,0,0,0,0,0,0,0,0,0,0,0,0
13,172,451.17630446839,1,0,30905.1506443299,30906.1977061924,7,1,1,10,31,189146012,148589032,186359592,133837813,21200809,40601319,21901509,10100009,31911019,22010409,31310819,10110119,0,-3121200,10211709,20710719,11910619,30111019,10401609,20910019,20911019,20301119,30010309,21001709,41101709,10311019,11111919,0,10610209,20711309,41501409,20000319,21100219,10502019,31200919,0,0,10711709,30210819,10111809
13,173,440.194523129321,0,0,30907.6565581002,30908.7036195777,7,0,0,28,3,21911509,0,11610619,23082010,0,0,0,0,0,0,0,21911509,0,0,0,0,0,0,0,0,0,0,0,0,0,0,0,0,0,11610619,0,-1181191,0,21900819,0,0,0,0,0,0
13,174,498.498400531389,1,0,30910.1859926002,30911.2330621619,7,1,1,33,3,0,0,72712028,43451389,0,0,0,0,0,0,0,0,0,0,0,0,0,0,0,0,0,0,0,31800219,0,0,40911809,0,0,0,0,41410219,0,0,0,0,-2041170,0,0,0
13,175,424.556254005438,1,0,30912.8801461211,30913.927214143,7,0,1,11,9,82311328,31172120,82113737,93333357,0,0,0,40611209,0,0,41700119,0,0,0,-1061101,0,0,0,0,30111019,0,0,10301409,31311019,0,0,40501309,0,0,0,0,41511919,30210419,0,21611019,0,0,0,0,0
13,176,547.150536720437,1,0,30915.3742977942,30916.4213577319,7,0,1,25,19,95416376,144133975,99134016,193144274,30901919,21612019,0,0,11400919,0,0,0,31501519,30810019,0,21410509,0,0,30302019,20300119,41311309,0,0,0,0,0,40611009,11901109,-4110180,21400309,21111409,30810709,40200209,31711909,40400309,10010119,0,40011019,0,0
13,177,462.948025699006,0,0,30918.1155070182,30919.1625665709,7,1,0,20,9,54425476,74012327,22473090,41501019,0,11101919,10511019,11401519,0,0,21411019,0,0,31710609,0,12000709,0,30301009,0,0,0,0,0,-1061171,0,0,0,0,21411919,0,0,0,0,0,0,0,0,0,0,41501019
13,178,535.028885977226,1,0,30920.7743546144,30921.8214210964,7,1,1,7,31,238979812,178217211,211167622,167037584,10111619,40811819,12000609,30701109,40110209,41900509,-2030120,40401809,20912009,11802009,10000319,30400319,21201109,21501109,20800409,10101209,41300409,11110319,31601209,21811019,41911719,11410009,11411719,41600119,10711409,40710419,0,21300609,41202019,11411119,0,21811609,30810909,0,0,40501319
13,179,506.67497134782,0,0,30923.4096872554,30924.4567541223,7,0,0,19,31,207954692,247589351,128077544,169146712,40310109,11800909,41510909,21100109,31810919,0,20111109,10200409,31110219,10010609,10401119,30411319,31310119,30511919,31211809,31810719,40111519,31810219,-4140060,11301409,11111609,0,0,40310819,21001119,30211819,10000709,21710409,42011819,10900509,10400919,0,11100519,10510709,21900509,40611319
13,180,478.200178975385,0,0,30926.1391305325,30927.1862035588,7,1,0,27,19,145924865,82614846,116435976,152634455,31300519,21201809,41300909,0,0,42011209,0,0,10110419,40302009,10110419,0,0,21000509,11201909,0,0,0,0,20700409,10201809,31600509,11911809,0,40911319,0,-1110121,40710509,40200209,0,30811809,0,0,30011619,0,10900309
13,181,511.285648779449,0,0,30928.8450500002,30929.8921134025,7,0,0,2,31,167675054,276577531,199960741,188039613,40110809,-2030070,41601119,0,0,21211109,20200709,11711219,30810019,10110019,41600719,40410009,30210219,40911819,41111809,10211209,20201719,41810009,21511719,32011219,10101409,10601909,10200819,41511419,41100909,21911019,11010319,31701119,0,21111419,20911419,0,20801209,30802009,41411819,21300619
13,182,428.526356397924,1,0,30931.5509617687,30932.5980278657,7,0,1,18,3,41512128,4030101,30411619,0,0,0,30602019,0,0,0,10910109,0,0,0,0,0,0,0,0,0,0,-4030101,0,0,0,0,0,0,0,0,30411619,0,0,0,0,0,0,0,0,0
13,183,522.119220146124,0,0,30937.1863282862,30938.2333874539,8,0,0,31,3,0,31011319,11011509,25302430,0,0,0,0,0,0,0,0,0,0,0,0,0,0,0,0,31011319,0,0,0,0,0,0,0,0,11011509,0,0,0,0,-4101111,0,0,21201319,0,0
13,184,508.279873592983,1,0,30939.8451762674,30940.8922396697,8,0,1,2,9,47505548,52822228,42001918,22213938,0,-3181111,0,0,11211209,0,11211319,0,21901909,21310909,31511319,0,0,0,0,0,0,0,21301509,0,0,0,0,0,0,0,20700409,0,11312019,0,0,0,10901919,0,0,0
13,185,621.951146193169,0,0,30942.5863870312,30943.6334977837,8,0,0,11,31,269448911,157883776,177439232,269157211,32000609,21800609,20401609,41510219,20710109,30401719,40811209,41501819,20311009,0,-1160011,0,41501319,41810019,31310309,30701209,11400909,0,30301019,11801319,21301809,31000519,11001219,20310519,21511109,0,30211719,41210719,40311219,31500709,12000319,31201109,30910009,30300609,11611209,40111309
13,186,443.391623914067,1,0,30945.3158330031,30946.3628994851,8,1,1,26,3,20201709,0,22562040,40200819,0,0,0,0,0,0,0,20201709,0,0,0,0,0,0,0,0,0,0,0,0,0,20410919,0,0,0,-2151121,0,40200819,0,0,0,0,0,0,0,0
13,187,412.362230603321,1,0,30947.9158520202,30948.9629323608,8,1,1,35,0,0,0,0,0,0,0,0,0,0,0,0,0,0,0,0,0,0,0,0,0,0,0,0,0,0,0,0,0,0,0,0,0,0,0,0,0,0,0,-40810191,0
13,188,384.613089645427,1,0,30950.5276596968,30951.5747265637,8,1,1,23,9,61301238,23322018,94613798,30711628,0,0,0,20600519,0,0,0,40700719,0,0,0,0,0,0,11310009,0,12012009,0,0,10810509,0,0,-1081171,42011009,40711109,0,0,0,10500019,20211609,0,0,0,0,0,0
13,189,406.67520232455,1,0,30953.1395139536,30954.1865307757,8,1,1,12,9,154545455,43811530,30200009,52712718,0,41311109,30400019,30711709,21711009,30411609,0,0,0,0,0,-3000011,40811519,0,0,0,0,0,0,0,0,0,30200009,0,0,0,0,0,40911909,0,0,0,0,0,0,11800809
13,190,406.856133973633,0,0,30955.7983138147,30956.8454249522,8,1,0,20,9,54425476,74012327,22473090,41501019,0,11101919,10511019,11401519,0,0,21411019,0,0,31710609,0,12000709,0,30301009,0,0,0,0,0,-1061171,0,0,0,0,21411919,0,0,0,0,0,0,0,0,0,0,41501019
13,191,644.687710475409,0,0,30958.3983451506,30959.445417022,8,1,0,29,19,147033685,105315755,162940604,73562618,0,30410519,0,0,31810019,0,31600419,12000819,41211909,0,0,20001509,12001109,0,31100519,21501609,0,20711009,0,20901719,20102019,30611619,0,10311709,40101619,40911919,0,40801019,-2151181,20200109,10410309,0,0,0,0,0
13,192,562.48969117587,0,0,30961.1866135423,30962.2336754047,8,0,0,30,0,0,0,0,0,0,0,0,0,0,0,0,0,0,0,0,0,0,0,0,0,0,0,0,0,0,0,0,0,0,0,0,0,0,-31701391,0,0,0,0,0,0
13,193,582.21239609702,0,0,30963.8219350193,30964.8690065058,8,0,0,28,19,94423956,135846684,104425246,150427245,40701419,10711019,0,0,11600509,0,0,0,31411009,20510709,31811209,21800319,0,0,10711919,0,20201519,30811009,20401209,0,0,11911809,40301519,31810709,0,0,0,-3091090,12011109,0,0,0,41211209,41601709,11400719,41111409
13,194,418.435374725959,1,0,30966.5396235135,30967.5866873008,8,0,1,6,9,96694697,52521828,0,92522656,20410819,0,0,0,31201419,-4071040,0,41011419,0,0,20711509,0,0,0,0,31810319,0,0,0,0,0,0,0,0,0,0,0,10000409,0,21710419,0,0,20001719,40810109,0,0
13,195,450.89451304375,1,0,30969.0690576286,30970.1161268053,8,1,1,3,31,178597954,198039512,220639522,188957631,21611019,0,-1051070,41301309,30911319,21600809,0,21410519,40711909,41411709,30500219,11501509,21101809,40400319,10011019,0,31501919,11611009,40701719,30700919,21400809,21700809,31500809,41811319,21511819,11311319,0,11011419,11601809,30300619,11710019,11901109,20610319,20410109,30010519,41401709
13,196,454.823039650364,0,0,30971.6573353364,30972.704395274,8,0,0,5,3,1101121,0,0,83021537,0,0,0,0,-1101121,0,0,0,0,0,0,0,0,0,0,0,0,0,0,0,0,0,0,0,0,0,0,0,40210009,0,20811509,0,0,0,0,22000019
13,197,566.016318542097,0,0,30974.1750046595,30975.2220676769,8,0,0,36,3,50012018,40711819,0,4170150,0,10001009,40011009,0,0,0,0,0,0,0,0,0,0,0,40711819,0,0,0,0,0,0,0,0,0,0,0,0,0,0,0,0,0,0,0,0,-4170150
13,198,595.636369773274,1,0,30976.8103280614,30977.8573891539,8,1,1,16,19,134222846,101886217,154116575,136626594,0,41710109,0,30601719,0,30410609,0,31500409,0,0,0,30311109,20211619,0,10101309,-1061171,0,40201009,0,40900519,40001919,0,0,10201009,21911109,0,41102019,20311109,31801919,10000219,0,21401019,0,0,41400909,11711419
13,199,469.117025098967,1,0,30979.4927094761,30980.5397790378,8,1,1,27,19,145924865,82614846,116435976,152634455,31300519,21201809,41300909,0,0,42011209,0,0,10110419,40302009,10110419,0,0,21000509,11201909,0,0,0,0,20700409,10201809,31600509,11911809,0,40911319,0,-1110121,40710509,40200209,0,30811809,0,0,30011619,0,10900309
13,200,479.98100838231,0,0,30982.0339168522,30983.0809879538,8,0,0,18,19,137127575,112295555,92531366,114123345,0,0,11911319,21611409,0,40702019,41301319,21601509,0,0,0,22011419,41901309,0,11310909,11700119,21210719,-4161080,31710319,10010819,0,0,0,20410019,0,30400209,0,20110709,30010409,11500009,0,40601009,0,0,11901209,0
13,201,419.938262319192,1,0,30984.6927771522,30985.7398486387,8,1,1,10,31,189146012,148589032,186359592,133837813,21200809,40601319,21901509,10100009,31911019,22010409,31310819,10110119,0,-3121200,10211709,20710719,11910619,30111019,10401609,20910019,20911019,20301119,30010309,21001709,41101709,10311019,11111919,0,10610209,20711309,41501409,20000319,21100219,10502019,31200919,0,0,10711709,30210819,10111809
13,202,391.912334427616,0,0,30987.2928107978,30988.3398761249,8,1,0,22,3,0,30701309,4040101,22201438,0,0,0,0,0,0,0,0,0,0,0,0,0,0,0,30701309,0,0,0,0,0,-4040101,0,0,0,0,0,10400519,0,0,0,11800919,0,0,0,0
13,203,494.924422971962,0,0,30989.8340127845,30990.8810865808,8,1,0,33,3,0,0,72712028,43451389,0,0,0,0,0,0,0,0,0,0,0,0,0,0,0,0,0,0,0,31800219,0,0,40911809,0,0,0,0,41410219,0,0,0,0,-2041170,0,0,0
13,204,445.674827373296,0,0,30992.4222781735,30993.4693535096,8,0,0,19,19,105023546,121303365,179076986,158043575,0,31510509,10111809,21900809,41500419,0,0,0,0,20300509,30201409,0,10100409,20100419,0,0,0,40600619,-1031001,41811409,0,41500419,0,21811919,41511819,0,31410419,0,21711619,0,0,42010819,41310819,11410109,0,41600209
13,205,584.558348193241,1,0,30995.034106253,30996.0811484825,8,0,1,25,31,246951221,207655273,281485513,145446703,41411819,40601709,21901209,30101419,20600109,31210509,21011109,20011919,20101419,31911109,0,30910709,10811109,0,30000719,41310409,20910909,41800309,31700109,20611519,41010109,41011309,20800719,40200319,-4140011,41110009,40901409,10810019,10101709,21000419,30500309,41411619,20911109,0,10711519,0
13,206,570.442984633701,0,0,30997.8694130246,30998.9164691126,8,0,0,30,9,82714737,60613118,42201938,74632218,0,0,0,31111219,40201709,11401809,0,0,0,0,0,0,30411309,0,30201809,0,0,0,30201919,0,0,0,0,0,0,0,12000019,0,0,-1030190,0,0,0,42000519,0,31601509
13,207,409.220949160954,1,0,31000.5635626959,31001.6106264831,8,0,1,14,31,187427413,200939753,270837331,238258292,21810719,0,21200809,20710019,30801019,0,40901909,31501319,20501619,20100919,31712009,41311909,31701209,-3180070,21811209,30712019,20410409,0,41710719,31601619,21910309,31600919,11501319,30312009,41600019,20600309,40000109,31001709,20711409,21010109,0,41800109,30011009,32011919,31702019,30010009
13,208,495.412553467759,1,0,31003.1282946514,31004.1753603635,8,1,1,7,31,238979812,178217211,211167622,167037584,10111619,40811819,12000609,30701109,40110209,41900509,-2030120,40401809,20912009,11802009,10000319,30400319,21201109,21501109,20800409,10101209,41300409,11110319,31601209,21811019,41911719,11410009,11411719,41600119,10711409,40710419,0,21300609,41202019,11411119,0,21811609,30810909,0,0,40501319
13,209,462.025659235223,1,0,31013.3754753898,31014.4225418718,9,1,1,35,0,0,0,0,0,0,0,0,0,0,0,0,0,0,0,0,0,0,0,0,0,0,0,0,0,0,0,0,0,0,0,0,0,0,0,0,0,0,0,-40810191,0
13,210,460.816496855841,1,0,31015.9637831245,31017.0108188096,9,0,1,30,3,31410119,10810819,31200119,3011060,0,0,0,0,0,0,0,31410119,0,0,0,0,0,0,0,0,0,10810819,0,0,0,0,0,0,31200119,0,0,0,0,-3011060,0,0,0,0,0,0
13,211,406.386481605296,1,0,31018.59907034,31019.6461399017,9,1,1,23,9,61301238,23322018,94613798,30711628,0,0,0,20600519,0,0,0,40700719,0,0,0,0,0,0,11310009,0,12012009,0,0,10810509,0,0,-1081171,42011009,40711109,0,0,0,10500019,20211609,0,0,0,0,0,0
13,212,371.74114998561,1,0,31021.1167477474,31022.1638388668,9,1,1,12,9,154545455,43811530,30200009,52712718,0,41311109,30400019,30711709,21711009,30411609,0,0,0,0,0,-3000011,40811519,0,0,0,0,0,0,0,0,0,30200009,0,0,0,0,0,40911909,0,0,0,0,0,0,11800809
13,213,527.588360520895,0,0,31023.7050142912,31024.7520850078,9,0,0,25,9,113911056,62212147,41970940,30810609,21300019,0,0,0,0,41800209,0,20610719,30200109,0,20401319,0,0,0,0,31200319,0,10610509,0,0,40800909,0,0,0,-1170031,0,0,0,0,0,0,30810609,0,0,0,0
13,214,368.989064074412,0,0,31026.3874003255,31027.4344683473,9,0,0,31,31,238268721,225437713,217145302,140719473,11011809,21911319,10810119,21111609,30411309,40501009,30500619,31710219,40300709,30801019,20801609,30410319,40411309,40511719,0,40701319,0,21800419,11600809,41810919,20900109,20810409,30111109,30601319,0,40700609,20610019,41211809,11410719,0,-2160070,11310409,11800519,30612009,10901919,21312019
13,215,475.95470169108,0,0,31028.9403644094,31029.9874393605,9,0,0,28,9,81711118,63631527,135214566,2140111,0,0,40900709,0,0,0,0,40810409,0,0,20610409,0,11110809,0,0,31910309,0,0,0,0,0,40400419,0,41201619,0,11601619,42010909,-2140111,0,0,0,0,0,0,0,0
13,216,388.074658603728,1,0,31031.599228559,31032.6462908064,9,0,1,2,9,4100031,104023037,145925676,22401038,0,-4100031,0,0,0,0,0,0,0,0,30711409,31710919,0,0,0,41600709,0,0,0,0,0,42010519,0,0,31301719,41911519,30701919,0,0,11800319,0,0,10600719,0,0,0
13,217,465.316305529996,0,0,31034.1051400195,31035.1522122759,9,1,0,22,3,0,30701309,4040101,22201438,0,0,0,0,0,0,0,0,0,0,0,0,0,0,0,30701309,0,0,0,0,0,-4040101,0,0,0,0,0,10400519,0,0,0,11800919,0,0,0,0
13,218,426.710495547013,1,0,31036.7757566423,31037.8228308235,9,0,1,33,0,0,0,0,0,0,0,0,0,0,0,0,0,0,0,0,0,0,0,0,0,0,0,0,0,0,0,0,0,0,0,0,0,0,0,0,0,-31500491,0,0,0
13,219,421.750658522797,1,0,31039.4463821191,31040.493509425,9,1,1,20,9,54425476,74012327,22473090,41501019,0,11101919,10511019,11401519,0,0,21411019,0,0,31710609,0,12000709,0,30301009,0,0,0,0,0,-1061171,0,0,0,0,21411919,0,0,0,0,0,0,0,0,0,0,41501019
13,220,499.289880270226,0,0,31042.0228815613,31043.0699499681,9,0,0,6,3,43531389,30001419,10811709,0,0,0,0,0,40511209,-3020180,0,0,0,0,0,0,0,0,0,0,0,30001419,0,0,0,0,0,10811709,0,0,0,0,0,0,0,0,0,0,0,0
13,221,472.593607537419,1,0,31044.5876146717,31045.6346826936,9,1,1,33,3,0,0,72712028,43451389,0,0,0,0,0,0,0,0,0,0,0,0,0,0,0,0,0,0,0,31800219,0,0,40911809,0,0,0,0,41410219,0,0,0,0,-2041170,0,0,0
13,222,449.359288730193,0,0,31047.2817681926,31048.3288377543,9,1,0,3,31,178597954,198039512,220639522,188957631,21611019,0,-1051070,41301309,30911319,21600809,0,21410519,40711909,41411709,30500219,11501509,21101809,40400319,10011019,0,31501919,11611009,40701719,30700919,21400809,21700809,31500809,41811319,21511819,11311319,0,11011419,11601809,30300619,11710019,11901109,20610319,20410109,30010519,41401709
13,223,375.98149497353,0,0,31049.9053310371,31050.9524367851,9,1,0,26,3,20201709,0,22562040,40200819,0,0,0,0,0,0,0,20201709,0,0,0,0,0,0,0,0,0,0,0,0,0,20410919,0,0,0,-2151121,0,40200819,0,0,0,0,0,0,0,0
13,224,446.078651420976,0,0,31052.470069537,31053.5171340942,9,1,0,27,19,145924865,82614846,116435976,152634455,31300519,21201809,41300909,0,0,42011209,0,0,10110419,40302009,10110419,0,0,21000509,11201909,0,0,0,0,20700409,10201809,31600509,11911809,0,40911319,0,-1110121,40710509,40200209,0,30811809,0,0,30011619,0,10900309
13,225,402.618868676655,0,0,31055.1406884695,31056.1877580312,9,0,0,14,19,135136495,116183207,208146803,94012656,0,31111119,40601619,10310719,0,21311619,0,31801419,0,0,41310219,0,0,-3150060,30610919,41112009,0,0,40800809,41200419,0,30611819,20610809,31610519,11911409,0,31401019,0,20810209,11801109,0,30900819,30500519,0,0,0
13,226,418.383789954532,0,0,31057.7407225001,31058.7877816678,9,1,0,7,31,238979812,178217211,211167622,167037584,10111619,40811819,12000609,30701109,40110209,41900509,-2030120,40401809,20912009,11802009,10000319,30400319,21201109,21501109,20800409,10101209,41300409,11110319,31601209,21811019,41911719,11410009,11411719,41600119,10711409,40710419,0,21300609,41202019,11411119,0,21811609,30810909,0,0,40501319
13,227,510.693963780795,0,0,31060.3525178579,31061.3995854948,9,1,0,16,19,134222846,101886217,154116575,136626594,0,41710109,0,30601719,0,30410609,0,31500409,0,0,0,30311109,20211619,0,10101309,-1061171,0,40201009,0,40900519,40001919,0,0,10201009,21911109,0,41102019,20311109,31801919,10000219,0,21401019,0,0,41400909,11711419
13,228,483.95804006941,1,0,31063.1172974716,31064.1643250725,9,0,1,18,19,143934384,106762698,95637265,104527665,30510409,11400719,10200719,0,40901919,0,0,20110409,30810209,0,0,0,40400909,31310219,32001519,0,0,-3050051,22001409,10210909,40611609,11401619,0,11411719,0,0,0,0,10311419,10901809,0,0,31101809,11510619,40702009,0
13,229,459.796350307442,1,0,31065.6702796487,31066.7172983955,9,1,1,10,31,189146012,148589032,186359592,133837813,21200809,40601319,21901509,10100009,31911019,22010409,31310819,10110119,0,-3121200,10211709,20710719,11910619,30111019,10401609,20910019,20911019,20301119,30010309,21001709,41101709,10311019,11111919,0,10610209,20711309,41501409,20000319,21100219,10502019,31200919,0,0,10711709,30210819,10111809
13,230,445.121253509569,1,0,31068.1879027765,31069.234974263,9,0,1,5,3,1100030,10400209,60711818,0,0,0,0,0,-1100030,0,0,0,0,0,0,0,0,0,10400209,0,0,0,0,20300209,0,0,0,0,0,40411609,0,0,0,0,0,0,0,0,0,0
13,231,510.532665139181,1,0,31070.8585848427,31071.9055931955,9,1,1,29,19,147033685,105315755,162940604,73562618,0,30410519,0,0,31810019,0,31600419,12000819,41211909,0,0,20001509,12001109,0,31100519,21501609,0,20711009,0,20901719,20102019,30611619,0,10311709,40101619,40911919,0,40801019,-2151181,20200109,10410309,0,0,0,0,0
13,232,625.354971009074,0,0,31073.5056199118,31074.5526856239,9,0,0,19,31,190050731,135126593,220091743,159419213,32000319,22001319,11301309,30800909,10400919,31011809,10511109,30011319,12011719,20201509,22000819,21002009,10311109,20100519,31510219,0,0,10000409,-2061031,41501319,20011609,22001109,20610219,32001909,20101709,21102019,40700819,32001319,21001519,0,0,31201619,11501819,20800409,31601009,11311519
13,233,629.219594095048,0,0,31076.3056565601,31077.3527203474,9,0,0,36,19,149645694,134454894,144737565,64572249,0,21410709,21900519,11801419,21910709,0,40812019,31810319,0,0,10511319,31410119,40512009,20810719,0,11010519,20200209,0,30311809,0,11511109,41201009,0,0,20611619,0,41102019,0,30010409,0,30511819,0,0,0,0,-4050021
13,234,447.943402316014,1,0,31079.1880425174,31080.2351390263,9,0,1,11,31,208137622,176065484,218049092,266358421,0,40500619,41900409,40602019,20101919,22010619,21101219,10610109,11310709,30210709,-2021000,30611119,0,31300909,40301609,31310119,10310019,0,0,30000809,21401409,30301919,21610609,22010009,31711319,40911509,20101509,30910609,20001119,30200709,40301609,40400019,22011519,10010409,40810919,31711509
13,235,427.397265899344,1,0,31085.5763457095,31086.6234245103,10,1,1,10,31,189146012,148589032,186359592,133837813,21200809,40601319,21901509,10100009,31911019,22010409,31310819,10110119,0,-3121200,10211709,20710719,11910619,30111019,10401609,20910019,20911019,20301119,30010309,21001709,41101709,10311019,11111919,0,10610209,20711309,41501409,20000319,21100219,10502019,31200919,0,0,10711709,30210819,10111809
13,236,460.159753456537,0,0,31088.0587379801,31089.1057967629,10,0,0,19,31,179867231,198514522,251359532,186727294,10910119,11310009,10810719,31411309,41900209,10010809,41010919,11801919,10701219,21001519,0,21211009,21800019,21000019,31900309,20101019,20400109,41100519,-4201100,20310609,11002019,21610319,30010319,42011819,40202019,41910209,40101119,0,31201509,41311819,31700619,0,31610309,0,20801719,30101319
13,237,381.009855045704,1,0,31090.7058284837,31091.7528922709,10,0,1,6,9,45882969,94223047,21200819,74130347,0,10801009,0,0,32000919,-3081041,0,0,0,0,31211719,21400209,0,0,0,41611119,0,0,0,21200819,0,0,0,0,0,0,0,0,0,0,0,0,21010119,11810109,0,41310119
13,238,450.478755206859,1,0,31093.3293809342,31094.3764485711,10,0,1,2,19,125715566,167627503,41010919,207737173,0,-1090020,22001909,0,30510609,31911209,0,0,40201819,20001019,41910709,11001709,0,11701319,21500419,0,41511309,20001019,0,0,0,0,0,0,0,41010919,0,31301009,32001419,21811409,40001609,0,30310109,31300609,21011009,0
13,239,391.722933632991,0,0,31096.0000091058,31097.0470701984,10,1,0,33,3,0,0,72712028,43451389,0,0,0,0,0,0,0,0,0,0,0,0,0,0,0,0,0,0,0,31800219,0,0,40911809,0,0,0,0,41410219,0,0,0,0,-2041170,0,0,0
13,240,438.877186723403,0,0,31098.5529855085,31099.6000739332,10,1,0,7,31,238979812,178217211,211167622,167037584,10111619,40811819,12000609,30701109,40110209,41900509,-2030120,40401809,20912009,11802009,10000319,30400319,21201109,21501109,20800409,10101209,41300409,11110319,31601209,21811019,41911719,11410009,11411719,41600119,10711409,40710419,0,21300609,41202019,11411119,0,21811609,30810909,0,0,40501319
13,241,625.69720130341,1,1,31101.0471321771,31102.0941951944,10,0,0,30,19,93813256,134045174,75733756,186845866,31200319,0,11501719,0,0,0,0,40900409,10210809,31210219,20700809,10511609,0,0,20011319,11200909,0,40410309,31410509,0,0,12001519,0,11611119,20710609,0,0,42011719,0,-2000091,0,31900909,30011609,40310219,0,40611319
13,242,551.348536002479,0,0,31103.7883294673,31104.8354051883,10,1,0,27,19,145924865,82614846,116435976,152634455,31300519,21201809,41300909,0,0,42011209,0,0,10110419,40302009,10110419,0,0,21000509,11201909,0,0,0,0,20700409,10201809,31600509,11911809,0,40911319,0,-1110121,40710509,40200209,0,30811809,0,0,30011619,0,10900309
13,243,524.991798836709,1,0,31106.5765982439,31107.6236708853,10,0,1,31,3,11810519,10401809,11301619,3061080,0,0,0,0,0,11810519,0,0,0,0,0,0,10401809,0,0,0,0,0,11301619,0,0,0,0,0,0,0,0,0,0,0,-3061080,0,0,0,0,0
13,244,461.097133393196,0,0,31109.176636894,31110.2237072256,10,1,0,23,9,61301238,23322018,94613798,30711628,0,0,0,20600519,0,0,0,40700719,0,0,0,0,0,0,11310009,0,12012009,0,0,10810509,0,0,-1081171,42011009,40711109,0,0,0,10500019,20211609,0,0,0,0,0,0
13,245,417.638890496164,0,0,31111.706071394,31112.7531475001,10,0,0,28,9,62221118,155903946,52011328,42071790,0,0,21310509,0,0,0,40910609,0,0,0,41401109,41401109,31300009,0,0,0,0,41801719,0,0,0,20110119,31901209,0,0,0,0,-1061071,0,0,0,0,0,0,41010719,0
13,246,557.628789119917,1,0,31114.3061077344,31115.3531761412,10,1,1,29,19,147033685,105315755,162940604,73562618,0,30410519,0,0,31810019,0,31600419,12000819,41211909,0,0,20001509,12001109,0,31100519,21501609,0,20711009,0,20901719,20102019,30611619,0,10311709,40101619,40911919,0,40801019,-2151181,20200109,10410309,0,0,0,0,0
13,247,512.72039828109,0,0,31117.0237958436,31118.0708938924,10,1,0,3,31,178597954,198039512,220639522,188957631,21611019,0,-1051070,41301309,30911319,21600809,0,21410519,40711909,41411709,30500219,11501509,21101809,40400319,10011019,0,31501919,11611009,40701719,30700919,21400809,21700809,31500809,41811319,21511819,11311319,0,11011419,11601809,30300619,11710019,11901109,20610319,20410109,30010519,41401709
13,248,405.952245637309,1,0,31119.635585812,31120.6826576834,10,0,1,26,0,0,0,0,0,0,0,0,0,0,0,0,0,0,0,0,0,0,0,0,0,0,0,0,0,0,0,0,0,0,-41801601,0,0,0,0,0,0,0,0,0,0
13,249,459.8729575373,1,0,31122.1414945778,31123.1885668342,10,1,1,22,3,0,30701309,4040101,22201438,0,0,0,0,0,0,0,0,0,0,0,0,0,0,0,30701309,0,0,0,0,0,-4040101,0,0,0,0,0,10400519,0,0,0,11800919,0,0,0,0
13,250,632.829373029381,0,0,31124.7415339978,31125.7885920106,10,0,0,36,31,209259822,227235493,227428451,192924403,10411719,21901919,41710309,41500119,10311819,0,21501409,20911909,41010619,0,0,30810619,20910119,42000709,40100109,40810619,11801609,40801709,21201419,20410619,40310819,20301319,41301819,20900619,31400909,21400009,10200919,41810409,11411709,10410019,31510009,31811819,31900019,0,30010309,-4060110
13,251,443.027835801331,1,0,31127.4474503858,31128.4945060889,10,1,1,12,9,154545455,43811530,30200009,52712718,0,41311109,30400019,30711709,21711009,30411609,0,0,0,0,0,-3000011,40811519,0,0,0,0,0,0,0,0,0,30200009,0,0,0,0,0,40911909,0,0,0,0,0,0,11800809
13,252,465.764015127206,1,0,31130.141600827,31131.1886700037,10,0,1,14,31,246430821,160437683,206055983,219655472,30701209,10010709,40510919,20400919,31302019,30901409,41501609,20400219,20701809,11012019,20610019,30001209,11200519,-4001180,31901209,10410909,0,41300619,0,30500209,30310109,21512019,40410019,0,31710109,10901909,40711609,41111409,10500509,41600309,30410009,21610309,41410209,21901809,0,11110909
13,253,549.801377899712,1,0,31132.7416360124,31133.7886928704,10,1,1,35,0,0,0,0,0,0,0,0,0,0,0,0,0,0,0,0,0,0,0,0,0,0,0,0,0,0,0,0,0,0,0,0,0,0,0,0,0,0,0,-40810191,0
13,254,422.290758750023,1,0,31135.3651849983,31136.4122537901,10,0,1,18,3,60823337,1051010,0,0,10811309,0,10011409,40000619,0,0,0,0,0,0,0,0,0,0,0,0,0,-1051010,0,0,0,0,0,0,0,0,0,0,0,0,0,0,0,0,0,0
13,255,413.828931861644,0,0,31137.9416909849,31138.9887601616,10,1,0,20,9,54425476,74012327,22473090,41501019,0,11101919,10511019,11401519,0,0,21411019,0,0,31710609,0,12000709,0,30301009,0,0,0,0,0,-1061171,0,0,0,0,21411919,0,0,0,0,0,0,0,0,0,0,41501019
13,256,370.954674745008,1,0,31140.565256909,31141.6123183865,10,0,1,11,9,41812718,23980930,42120427,73412127,0,0,21801709,0,0,0,20011009,0,0,0,-2180121,0,21800809,0,0,0,0,0,0,0,11310009,0,20800309,10010109,0,0,0,0,0,0,0,0,0,10800809,31710009,30901309
13,257,487.752600263775,1,0,31143.0476445601,31144.0946998782,10,1,1,26,3,20201709,0,22562040,40200819,0,0,0,0,0,0,0,20201709,0,0,0,0,0,0,0,0,0,0,0,0,0,20410919,0,0,0,-2151121,0,40200819,0,0,0,0,0,0,0,0
13,258,559.212518513959,0,0,31145.6711958558,31146.7182619528,10,1,0,16,19,134222846,101886217,154116575,136626594,0,41710109,0,30601719,0,30410609,0,31500409,0,0,0,30311109,20211619,0,10101309,-1061171,0,40201009,0,40900519,40001919,0,0,10201009,21911109,0,41102019,20311109,31801919,10000219,0,21401019,0,0,41400909,11711419
13,259,595.259108027676,0,0,31148.3300503813,31149.3771214829,10,0,0,25,19,176657293,63015227,87204836,105525775,41111009,11301819,0,20510209,31510909,21511919,40311109,10400319,0,0,0,0,0,0,11102009,21401609,30511609,0,10811019,0,10410109,0,31801519,0,-3171180,0,31011009,20110909,0,31911819,21101309,11400219,0,0,0,21001519
13,260,591.737870119687,0,0,31151.1183226226,31152.1654295255,10,0,0,5,3,4031050,42601118,0,40102009,0,0,0,0,-4031050,0,0,0,0,0,0,0,0,0,0,11701009,30900109,0,0,0,0,0,0,0,0,0,0,0,0,0,0,0,0,0,40102009,0
13,261,438.436021460802,1,0,31161.4125582942,31162.4596320905,11,1,1,22,3,0,30701309,4040101,22201438,0,0,0,0,0,0,0,0,0,0,0,0,0,0,0,30701309,0,0,0,0,0,-4040101,0,0,0,0,0,10400519,0,0,0,11800919,0,0,0,0
13,262,471.157703155768,1,0,31163.9419977987,31164.9890685153,11,0,1,6,9,33310270,61201728,104321966,51211338,0,0,0,0,31110109,-2200161,0,0,0,0,0,0,30401419,0,0,0,30800309,0,40210119,11700509,21710819,0,0,0,30700519,0,0,0,0,0,0,0,30510819,20700519,0,0
13,263,478.794173737697,1,0,31166.577337369,31167.6243942269,11,1,1,7,31,238979812,178217211,211167622,167037584,10111619,40811819,12000609,30701109,40110209,41900509,-2030120,40401809,20912009,11802009,10000319,30400319,21201109,21501109,20800409,10101209,41300409,11110319,31601209,21811019,41911719,11410009,11411719,41600119,10711409,40710419,0,21300609,41202019,11411119,0,21811609,30810909,0,0,40501319
13,264,504.51765012258,0,0,31169.165602758,31170.2126715497,11,1,0,10,31,189146012,148589032,186359592,133837813,21200809,40601319,21901509,10100009,31911019,22010409,31310819,10110119,0,-3121200,10211709,20710719,11910619,30111019,10401609,20910019,20911019,20301119,30010309,21001709,41101709,10311019,11111919,0,10610209,20711309,41501409,20000319,21100219,10502019,31200919,0,0,10711709,30210819,10111809
13,265,632.159925917222,0,0,31171.8479853276,31172.8950391058,11,0,0,25,31,219848012,178168912,170488913,254749222,40811719,30811709,11801119,22010409,31001119,31910919,0,21200609,30300409,30311309,11410509,31900809,40410719,0,10011619,11111819,31900409,11111719,31600809,30711219,12001909,0,21701619,21010219,-1141020,11711609,40610509,40011909,0,31901809,40500309,40610919,40301419,30010719,20710919,10701219
13,266,466.466568879696,1,0,31174.5774297596,31175.624492007,11,1,1,27,19,145924865,82614846,116435976,152634455,31300519,21201809,41300909,0,0,42011209,0,0,10110419,40302009,10110419,0,0,21000509,11201909,0,0,0,0,20700409,10201809,31600509,11911809,0,40911319,0,-1110121,40710509,40200209,0,30811809,0,0,30011619,0,10900309
13,267,556.311452713999,1,0,31177.2245164135,31178.2715848203,11,0,1,31,9,83422038,81123547,93233856,4090041,0,0,41410019,0,0,0,42012019,0,0,10512019,40010119,0,0,0,0,30601409,0,0,0,30910819,10211109,0,11911809,0,0,40200119,0,0,0,0,-4090041,0,0,0,0,0
13,268,408.896427070431,1,0,31179.9539646952,31181.0010238629,11,0,1,19,3,20501109,21100819,1141090,21811709,0,20501109,0,0,0,0,0,0,0,0,0,0,0,0,21100819,0,0,0,-1141090,0,0,0,0,0,0,0,0,0,21811709,0,0,0,0,0,0,0
13,269,461.499802560866,0,0,31182.5304687569,31183.5775302344,11,1,0,16,19,134222846,101886217,154116575,136626594,0,41710109,0,30601719,0,30410609,0,31500409,0,0,0,30311109,20211619,0,10101309,-1061171,0,40201009,0,40900519,40001919,0,0,10201009,21911109,0,41102019,20311109,31801919,10000219,0,21401019,0,0,41400909,11711419
13,270,616.331101118703,0,0,31185.2246176583,31186.2716806756,11,0,0,30,31,236769601,235826593,177234683,230049432,30110409,11301309,10611409,40801609,40011909,11600809,20110019,41610219,30611909,20601109,40601009,21200509,40812019,0,30611819,40100119,41900009,0,30600109,40510309,32002019,21100809,0,11710109,31310719,0,10000609,31801709,20910509,-1080140,11610319,40201009,30211919,30810409,41511609,21911809
13,271,453.306293464266,1,0,31188.083470182,31189.1305401287,11,1,1,3,31,178597954,198039512,220639522,188957631,21611019,0,-1051070,41301309,30911319,21600809,0,21410519,40711909,41411709,30500219,11501509,21101809,40400319,10011019,0,31501919,11611009,40701719,30700919,21400809,21700809,31500809,41811319,21511819,11311319,0,11011419,11601809,30300619,11710019,11901109,20610319,20410109,30010519,41401709
13,272,440.80122160085,1,0,31190.6129181557,31191.660031218,11,0,1,5,19,96632486,114021656,84105656,152437013,31210009,0,22010909,10810009,-1100040,0,0,0,31501519,0,21400319,30500419,0,30810409,0,0,31310509,0,0,0,0,0,0,10701809,21701319,30301909,21400619,0,20202019,30000709,40400819,10211219,30301019,10811019,10510209,0
13,273,417.056059599417,0,0,31193.1188276914,31194.1658987929,11,0,0,14,3,10710319,51941628,0,0,0,0,10710319,0,0,0,0,0,0,0,0,0,0,-1030190,20411119,0,0,30500319,0,0,0,0,0,0,0,0,0,0,0,0,0,0,0,0,0,0
13,274,539.159902051324,0,0,31195.6365066386,31196.6835742755,11,1,0,33,3,0,0,72712028,43451389,0,0,0,0,0,0,0,0,0,0,0,0,0,0,0,0,0,0,0,31800219,0,0,40911809,0,0,0,0,41410219,0,0,0,0,-2041170,0,0,0
13,275,468.15308285295,1,0,31198.2835967572,31199.3306601595,11,1,1,29,19,147033685,105315755,162940604,73562618,0,30410519,0,0,31810019,0,31600419,12000819,41211909,0,0,20001509,12001109,0,31100519,21501609,0,20711009,0,20901719,20102019,30611619,0,10311709,40101619,40911919,0,40801019,-2151181,20200109,10410309,0,0,0,0,0
13,276,538.672541475535,0,0,31200.9659835613,31202.0130600523,11,1,0,12,9,154545455,43811530,30200009,52712718,0,41311109,30400019,30711709,21711009,30411609,0,0,0,0,0,-3000011,40811519,0,0,0,0,0,0,0,0,0,30200009,0,0,0,0,0,40911909,0,0,0,0,0,0,11800809
13,277,651.775611688208,0,0,31203.5777812289,31204.6249008356,11,0,0,18,3,40310219,2080021,72521428,0,0,0,0,0,0,40310219,0,0,0,0,0,0,0,0,0,0,0,-2080021,40611309,0,31910119,0,0,0,0,0,0,0,0,0,0,0,0,0,0,0
13,278,409.133563021896,1,0,31206.2954639487,31207.3425238864,11,0,1,4,0,0,0,0,0,0,0,0,-12010001,0,0,0,0,0,0,0,0,0,0,0,0,0,0,0,0,0,0,0,0,0,0,0,0,0,0,0,0,0,0,0,0
13,279,438.819057617366,0,0,31208.9307750318,31209.9778549875,11,1,0,23,9,61301238,23322018,94613798,30711628,0,0,0,20600519,0,0,0,40700719,0,0,0,0,0,0,11310009,0,12012009,0,0,10810509,0,0,-1081171,42011009,40711109,0,0,0,10500019,20211609,0,0,0,0,0,0
13,280,393.805957395671,0,0,31211.4249340192,31212.4720039658,11,1,0,20,9,54425476,74012327,22473090,41501019,0,11101919,10511019,11401519,0,0,21411019,0,0,31710609,0,12000709,0,30301009,0,0,0,0,0,-1061171,0,0,0,0,21411919,0,0,0,0,0,0,0,0,0,0,41501019
13,281,482.999487277993,1,0,31214.0484887795,31215.0955591111,11,0,1,2,9,77563837,33111828,71822228,50821128,21001319,-3040200,31511209,0,0,22011109,0,0,0,11711309,0,0,0,0,0,0,21400519,0,0,0,0,0,0,40610209,0,31212019,0,30511119,20310009,0,0,0,0,0,0,0
13,282,474.849478770921,0,0,31216.7309129249,31217.7779455303,11,1,0,35,0,0,0,0,0,0,0,0,0,0,0,0,0,0,0,0,0,0,0,0,0,0,0,0,0,0,0,0,0,0,0,0,0,0,0,0,0,0,0,-40810191,0
13,283,465.852556149912,0,0,31219.3426805655,31220.3897451227,11,0,0,28,31,231558241,187646011,168334774,188309614,12000419,21200119,10811519,41501709,20601709,41410419,31910809,30910519,21211019,31300409,21010609,31210019,30110719,10101409,10000209,11810819,30100409,12001409,41601409,0,20301109,0,0,22010119,30910419,21800409,31711309,-3201111,11201409,30001009,30800419,30900109,41201619,21002019,0,20001919
13,284,799.254155892413,1,0,31222.0603578959,31223.1074220681,11,1,1,26,3,20201709,0,22562040,40200819,0,0,0,0,0,0,0,20201709,0,0,0,0,0,0,0,0,0,0,0,0,0,20410919,0,0,0,-2151121,0,40200819,0,0,0,0,0,0,0,0
13,285,730.335364947678,0,0,31224.9780347642,31226.0251081755,11,0,0,11,19,258447402,118444227,132514856,114231947,40701719,41001809,41010709,31811819,31410709,21000319,0,20000109,31510209,0,-4200161,40810909,0,0,20710419,41112019,0,11610719,11202019,40700609,40510909,0,0,40101319,0,0,0,0,0,0,0,41010819,41510719,0,31710409,0
13,286,638.000553619349,1,0,31227.8016090806,31228.8486670934,11,0,1,36,19,103632856,197856613,174646784,43671868,40011909,0,10810819,41900009,0,0,0,0,10910119,0,41012019,41010919,11510009,20101109,0,21900219,30311819,32010519,0,31511609,30511709,30600219,0,0,20510319,31512019,30000909,0,0,31400709,0,0,0,11201019,0,-1070140
13,287,475.805721795041,0,0,31240.2135681238,31241.2605822511,12,1,0,12,9,154545455,43811530,30200009,52712718,0,41311109,30400019,30711709,21711009,30411609,0,0,0,0,0,-3000011,40811519,0,0,0,0,0,0,0,0,0,30200009,0,0,0,0,0,40911909,0,0,0,0,0,0,11800809
13,288,598.584400810068,0,0,31242.8606555477,31243.9076781441,12,1,0,7,31,238979812,178217211,211167622,167037584,10111619,40811819,12000609,30701109,40110209,41900509,-2030120,40401809,20912009,11802009,10000319,30400319,21201109,21501109,20800409,10101209,41300409,11110319,31601209,21811019,41911719,11410009,11411719,41600119,10711409,40710419,0,21300609,41202019,11411119,0,21811609,30810909,0,0,40501319
13,289,442.248674818984,1,0,31245.6959311374,31246.7430037787,12,1,1,16,19,134222846,101886217,154116575,136626594,0,41710109,0,30601719,0,30410609,0,31500409,0,0,0,30311109,20211619,0,10101309,-1061171,0,40201009,0,40900519,40001919,0,0,10201009,21911109,0,41102019,20311109,31801919,10000219,0,21401019,0,0,41400909,11711419
13,290,590.829362248769,0,0,31248.3666031945,31249.4136227113,12,0,0,31,9,52711737,121934947,32511618,23162049,10700709,0,0,0,0,0,21710819,20300209,0,0,0,0,40011319,41811909,0,0,0,40111719,0,0,0,0,10710009,0,21801609,0,0,0,0,0,-2061130,0,0,0,21100919,0
13,291,393.358247794822,1,0,31251.1548192315,31252.201890333,12,0,1,5,9,77324487,52202728,60722028,71421838,0,31501909,0,20101419,-4110040,0,0,21611119,0,0,0,31002009,0,0,0,0,21200719,0,0,0,0,40310919,20411109,0,0,0,0,40011019,0,0,0,31410819,0,0,0,0
13,292,419.575244130101,1,0,31253.6136769138,31254.6607422409,12,0,1,10,0,0,0,0,0,0,0,0,0,0,0,0,0,0,-21711801,0,0,0,0,0,0,0,0,0,0,0,0,0,0,0,0,0,0,0,0,0,0,0,0,0,0
13,293,522.578863536182,0,0,31256.1195933788,31257.1666656352,12,0,0,11,19,144726794,171459055,103414856,83723737,20311319,20501219,0,0,0,32000809,30300619,10001509,31611319,0,-4110181,31112009,30910809,21602009,21310519,20512019,41901509,0,40501119,20300809,0,21901419,0,0,0,0,20711509,0,0,0,0,32011419,0,40810409,0,10901909
13,294,511.20865658595,1,0,31258.8490316514,31259.8960908192,12,1,1,33,3,0,0,72712028,43451389,0,0,0,0,0,0,0,0,0,0,0,0,0,0,0,0,0,0,0,31800219,0,0,40911809,0,0,0,0,41410219,0,0,0,0,-2041170,0,0,0
13,295,529.847696398065,1,0,31261.5431890219,31262.5903128631,12,1,1,27,19,145924865,82614846,116435976,152634455,31300519,21201809,41300909,0,0,42011209,0,0,10110419,40302009,10110419,0,0,21000509,11201909,0,0,0,0,20700409,10201809,31600509,11911809,0,40911319,0,-1110121,40710509,40200209,0,30811809,0,0,30011619,0,10900309
13,296,438.3451706708,1,0,31264.3196933916,31265.3667537143,12,0,1,6,3,54073139,0,0,41610519,10900219,0,40001819,0,0,-3171101,0,0,0,0,0,0,0,0,0,0,0,0,0,0,0,0,0,0,0,0,0,0,0,0,0,0,0,0,41610519,0
13,297,453.376741323154,0,0,31266.9667873598,31268.0138496073,12,0,0,2,31,169295654,228465922,218847482,169036912,20110009,-1141061,21700519,40901709,0,11911309,21610309,20510719,31410019,31412009,41210509,0,20410119,31800909,30810419,10610419,31601219,30610319,11101309,11810309,0,10500409,41811409,40901309,41010509,30101909,31610319,0,11200619,30001819,22000909,10900019,30511309,21811709,31510409,11100119
13,298,448.998580308398,0,0,31269.6609347214,31270.7079985086,12,0,0,28,9,50511318,61112728,33811447,25512139,0,0,0,10000909,0,0,0,0,40510409,0,0,0,0,40901419,0,0,0,20211309,0,0,0,11910619,0,10500209,0,11400619,0,-3100201,0,10900219,0,0,0,0,0,11511719
13,299,528.296688687988,0,0,31272.2727312341,31273.3197923266,12,0,0,30,19,122644265,82114147,194035294,87047255,0,10211319,30411209,21911609,40100019,0,20010109,0,0,0,0,0,30101819,21511119,0,0,0,30501209,0,40911309,30300609,40100219,31601019,20811419,0,0,30310719,20510919,20910419,-2201170,0,0,11411309,0,10401919,21611519
13,300,970.498265029164,0,0,31274.9904066396,31276.0374742765,12,1,0,23,9,61301238,23322018,94613798,30711628,0,0,0,20600519,0,0,0,40700719,0,0,0,0,0,0,11310009,0,12012009,0,0,10810509,0,0,-1081171,42011009,40711109,0,0,0,10500019,20211609,0,0,0,0,0,0
13,301,513.121912561473,1,0,31278.1198593868,31279.1669250989,12,0,1,25,31,218069892,248647111,178749333,249045903,11010709,21901809,41611419,0,40110409,10212009,41411709,41211019,10600809,30412009,21200209,41410209,10011109,40200619,41711119,20001709,12000119,31700009,30011819,31511419,11601209,0,11710019,41701509,-1000030,30011319,21202009,42010609,41601819,41011609,0,30410619,0,11800119,41210719,41000409
13,302,481.1247273974,0,0,31280.719886873,31281.7669475806,12,1,0,22,3,0,30701309,4040101,22201438,0,0,0,0,0,0,0,0,0,0,0,0,0,0,0,30701309,0,0,0,0,0,-4040101,0,0,0,0,0,10400519,0,0,0,11800919,0,0,0,0
13,303,428.238020638673,1,0,31283.2846211383,31284.331700324,12,1,1,29,19,147033685,105315755,162940604,73562618,0,30410519,0,0,31810019,0,31600419,12000819,41211909,0,0,20001509,12001109,0,31100519,21501609,0,20711009,0,20901719,20102019,30611619,0,10311709,40101619,40911919,0,40801019,-2151181,20200109,10410309,0,0,0,0,0
13,304,404.900147332228,0,0,31285.8728872972,31286.9199803415,12,1,0,20,9,54425476,74012327,22473090,41501019,0,11101919,10511019,11401519,0,0,21411019,0,0,31710609,0,12000709,0,30301009,0,0,0,0,0,-1061171,0,0,0,0,21411919,0,0,0,0,0,0,0,0,0,0,41501019
13,305,577.049299688952,0,0,31288.4258660097,31289.4729313368,12,0,0,18,3,0,2000081,11000119,53112028,0,0,0,0,0,0,0,0,0,0,0,0,0,0,0,0,0,-2000081,0,0,0,0,0,0,0,11000119,0,0,41711809,0,0,11400219,0,0,0,0
13,306,376.804541505408,1,0,31291.120064186,31292.1670802381,12,1,1,26,3,20201709,0,22562040,40200819,0,0,0,0,0,0,0,20201709,0,0,0,0,0,0,0,0,0,0,0,0,0,20410919,0,0,0,-2151121,0,40200819,0,0,0,0,0,0,0,0
13,307,411.67007079639,1,0,31293.7200454769,31294.7671423708,12,0,1,36,3,10400209,0,50202718,2120191,0,0,10400209,0,0,0,0,0,0,0,0,0,0,0,0,0,0,0,0,0,0,0,10101509,0,0,40101209,0,0,0,0,0,0,0,0,0,-2120191
13,308,420.257779915119,0,0,31296.2024204243,31297.2494911408,12,1,0,3,31,178597954,198039512,220639522,188957631,21611019,0,-1051070,41301309,30911319,21600809,0,21410519,40711909,41411709,30500219,11501509,21101809,40400319,10011019,0,31501919,11611009,40701719,30700919,21400809,21700809,31500809,41811319,21511819,11311319,0,11011419,11601809,30300619,11710019,11901109,20610319,20410109,30010519,41401709
13,309,446.366217256582,1,0,31298.7083388141,31299.755406066,12,1,1,10,31,189146012,148589032,186359592,133837813,21200809,40601319,21901509,10100009,31911019,22010409,31310819,10110119,0,-3121200,10211709,20710719,11910619,30111019,10401609,20910019,20911019,20301119,30010309,21001709,41101709,10311019,11111919,0,10610209,20711309,41501409,20000319,21100219,10502019,31200919,0,0,10711709,30210819,10111809
13,310,454.063511675486,0,0,31301.2966045881,31302.3436695302,12,1,0,35,0,0,0,0,0,0,0,0,0,0,0,0,0,0,0,0,0,0,0,0,0,0,0,0,0,0,0,0,0,0,0,0,0,0,0,0,0,0,0,-40810191,0
13,311,386.559837224922,1,0,31303.8731048002,31304.9201670476,12,0,1,14,31,269540121,168145933,185226903,229039042,32001719,40310819,30810309,41901609,10601709,30110309,41600419,12001219,30202009,20600419,11100019,31601219,10210009,-2110030,21511909,30612019,0,40400309,0,40701809,0,40310209,10501319,40611919,22000309,20300219,10801119,11201219,21601419,41611519,41611319,41611009,0,20400619,30001319,21000619
13,312,458.210696109745,1,0,31306.4613767335,31307.5084409058,12,0,1,19,19,123532327,133134375,158166446,214214794,0,41410609,0,40910609,0,0,41211109,0,0,30311109,31411209,20000619,0,0,0,30200519,0,21210919,-2141171,30411519,0,31810119,31900409,0,30501309,0,31401919,40510009,0,0,41400019,40101619,0,30200519,20300919,41701709
13,313,575.003617137554,0,0,31312.2496716875,31313.2967439439,13,1,0,7,31,238979812,178217211,211167622,167037584,10111619,40811819,12000609,30701109,40110209,41900509,-2030120,40401809,20912009,11802009,10000319,30400319,21201109,21501109,20800409,10101209,41300409,11110319,31601209,21811019,41911719,11410009,11411719,41600119,10711409,40710419,0,21300609,41202019,11411119,0,21811609,30810909,0,0,40501319
13,314,474.17310236051,0,0,31315.0144135751,31316.0614823668,13,1,0,33,3,0,0,72712028,43451389,0,0,0,0,0,0,0,0,0,0,0,0,0,0,0,0,0,0,0,31800219,0,0,40911809,0,0,0,0,41410219,0,0,0,0,-2041170,0,0,0
13,315,562.437721448077,0,0,31317.6262189419,31318.6732773397,13,1,0,23,9,61301238,23322018,94613798,30711628,0,0,0,20600519,0,0,0,40700719,0,0,0,0,0,0,11310009,0,12012009,0,0,10810509,0,0,-1081171,42011009,40711109,0,0,0,10500019,20211609,0,0,0,0,0,0
13,316,420.760923891066,1,0,31320.2968844547,31321.3438966572,13,1,1,26,3,20201709,0,22562040,40200819,0,0,0,0,0,0,0,20201709,0,0,0,0,0,0,0,0,0,0,0,0,0,20410919,0,0,0,-2151121,0,40200819,0,0,0,0,0,0,0,0
13,317,493.08931406631,0,0,31322.7674503396,31323.8145145118,13,0,0,36,31,245139422,177757032,216769012,210048164,40802019,40710119,31001709,10000719,0,41401519,30101109,30011719,21110509,41211319,10111519,41211809,20200119,21800109,21910619,10001319,11310219,0,41711119,30511809,10901109,30110419,0,40711709,21111919,21310209,20400719,42011109,41111109,21001119,0,10701219,40410909,31801319,20911309,-2100071
13,318,404.460521913279,0,0,31325.438070427,31326.4851334444,13,0,0,2,3,35193049,30000509,0,41801019,32001919,-3191130,0,0,0,0,0,0,0,0,0,0,30000509,0,0,0,0,0,0,0,0,0,0,0,0,0,0,0,0,0,41801019,0,0,0,0,0
13,319,591.340205446613,0,0,31327.9792831926,31329.0263408205,13,0,0,30,31,234720692,225934993,270162421,230071094,40100509,10901819,20000709,40601719,40102009,21100909,21711909,0,40201109,0,40200109,40901719,30110909,0,30401309,21710009,31510219,31100719,11201009,31102009,40810319,31711509,40711209,31711319,10811919,30101919,42001209,30801919,41711909,-4011191,31110319,21111319,20511609,40710809,0,40102019
13,320,487.859234450298,1,0,31330.7675523543,31331.8146592572,13,1,1,22,3,0,30701309,4040101,22201438,0,0,0,0,0,0,0,0,0,0,0,0,0,0,0,30701309,0,0,0,0,0,-4040101,0,0,0,0,0,10400519,0,0,0,11800919,0,0,0,0
13,321,474.141535563831,1,0,31333.3322896992,31334.3793511767,13,0,1,19,19,72323547,113721556,148384745,158614183,0,20401419,31510709,0,0,0,0,20411419,0,41600309,0,21310309,0,40700519,0,10110419,0,0,-4040180,30310219,0,30510609,11800809,0,30811509,40911419,0,20200209,41900009,20900719,0,0,31010609,11901209,21300619,11400809
13,322,443.413181725191,1,0,31335.9558463844,31337.0029097867,13,1,1,10,31,189146012,148589032,186359592,133837813,21200809,40601319,21901509,10100009,31911019,22010409,31310819,10110119,0,-3121200,10211709,20710719,11910619,30111019,10401609,20910019,20911019,20301119,30010309,21001709,41101709,10311019,11111919,0,10610209,20711309,41501409,20000319,21100219,10502019,31200919,0,0,10711709,30210819,10111809
13,323,423.089937707118,1,0,31338.5911786403,31339.6382370381,13,1,1,16,19,134222846,101886217,154116575,136626594,0,41710109,0,30601719,0,30410609,0,31500409,0,0,0,30311109,20211619,0,10101309,-1061171,0,40201009,0,40900519,40001919,0,0,10201009,21911109,0,41102019,20311109,31801919,10000219,0,21401019,0,0,41400909,11711419
13,324,458.636847895832,0,0,31341.1676853968,31342.2147410998,13,0,0,6,19,96844447,159335413,153847785,71912337,0,22001119,41900719,0,0,-1040081,20501219,0,11401309,11501909,32010319,0,31300019,11511019,20011519,22000309,0,31000319,41111719,0,10411219,30001719,0,40811619,0,0,31511509,0,20401509,11100509,0,0,0,0,0,40410319
13,325,469.529318288551,0,0,31343.7676997943,31344.8147724357,13,0,0,18,3,0,46412078,0,40300719,0,0,0,0,0,0,0,0,0,31800119,0,0,0,11600819,0,0,0,-3011140,0,0,0,0,0,0,0,0,0,0,0,0,0,0,40300719,0,0,0
13,326,582.281689072261,1,0,31346.3559736525,31347.4030416743,13,0,1,31,31,148358412,221328812,129018113,265829233,10110909,0,40001309,21701919,11401319,11710009,11510719,21911709,20010519,21800109,31400319,11501009,0,42010419,21011819,41301409,10901809,41401919,41801619,21501519,11900409,11100219,0,10801119,0,21901719,10011509,20401919,41100709,40901609,-1200041,40000409,30500709,11101219,40411709,40210909
13,327,463.059664376487,0,0,31349.0383550672,31350.0854250138,13,0,0,25,9,42213528,105624066,63022829,31701009,0,21401719,0,20811809,0,0,0,0,0,0,0,0,0,31010119,31100719,31512019,12001209,0,30011419,0,0,0,32000409,0,-1011001,0,0,0,0,0,0,0,0,0,31701009,0
13,328,349.650550193473,1,0,31351.6736861682,31352.7207495705,13,1,1,12,9,154545455,43811530,30200009,52712718,0,41311109,30400019,30711709,21711009,30411609,0,0,0,0,0,-3000011,40811519,0,0,0,0,0,0,0,0,0,30200009,0,0,0,0,0,40911909,0,0,0,0,0,0,11800809
13,329,449.141400826193,0,0,31354.2619423182,31355.3090145746,13,0,0,28,0,0,0,0,0,0,0,0,0,0,0,0,0,0,0,0,0,0,0,0,0,0,0,0,0,0,0,0,0,0,0,0,-21601691,0,0,0,0,0,0,0,0
13,330,432.270486708148,1,0,31356.9208018482,31357.9678710249,13,1,1,3,31,178597954,198039512,220639522,188957631,21611019,0,-1051070,41301309,30911319,21600809,0,21410519,40711909,41411709,30500219,11501509,21101809,40400319,10011019,0,31501919,11611009,40701719,30700919,21400809,21700809,31500809,41811319,21511819,11311319,0,11011419,11601809,30300619,11710019,11901109,20610319,20410109,30010519,41401709
13,331,442.164753330871,0,0,31359.4620099943,31360.5090737816,13,0,0,28,9,41812418,63000728,72002118,116382097,0,0,0,0,20000909,0,0,0,21811509,0,0,0,0,0,21600409,0,41400319,0,0,30201109,0,0,0,0,0,41801009,0,-3170150,0,40600219,31000109,41611619,0,0,0,0
13,332,398.831237780541,1,0,31362.0032112111,31363.0503389019,13,0,1,5,19,137327055,146217165,83111927,136845174,0,41701419,0,21301009,-2091170,41811419,10210519,20211519,0,31401719,31410609,20201709,0,0,0,31601409,31601719,0,0,31410309,10800309,0,0,40901309,0,0,0,0,0,21900919,40410909,30511119,11911609,21800209,0,10310409
13,333,456.447959870275,1,0,31364.6267779052,31365.6738413075,13,1,1,20,9,54425476,74012327,22473090,41501019,0,11101919,10511019,11401519,0,0,21411019,0,0,31710609,0,12000709,0,30301009,0,0,0,0,0,-1061171,0,0,0,0,21411919,0,0,0,0,0,0,0,0,0,0,41501019
13,334,435.074927307141,0,0,31367.1679748874,31368.215054843,13,0,0,11,3,0,12822170,0,43412718,0,0,0,0,0,0,0,0,0,0,-1020151,11802019,0,0,0,0,0,0,0,0,0,0,0,0,0,0,0,0,21612009,0,0,21800709,0,0,0,0
13,335,418.590513989329,1,0,31369.7915519755,31370.8386873655,13,1,1,29,19,147033685,105315755,162940604,73562618,0,30410519,0,0,31810019,0,31600419,12000819,41211909,0,0,20001509,12001109,0,31100519,21501609,0,20711009,0,20901719,20102019,30611619,0,10311709,40101619,40911919,0,40801019,-2151181,20200109,10410309,0,0,0,0,0
13,336,384.385577712237,1,0,31372.285698644,31373.3327662809,13,1,1,35,0,0,0,0,0,0,0,0,0,0,0,0,0,0,0,0,0,0,0,0,0,0,0,0,0,0,0,0,0,0,0,0,0,0,0,0,0,0,0,-40810191,0
13,337,400.075046647544,0,0,31374.7798503171,31375.8269121796,13,1,0,27,19,145924865,82614846,116435976,152634455,31300519,21201809,41300909,0,0,42011209,0,0,10110419,40302009,10110419,0,0,21000509,11201909,0,0,0,0,20700409,10201809,31600509,11911809,0,40911319,0,-1110121,40710509,40200209,0,30811809,0,0,30011619,0,10900309
13,338,413.537131455087,1,0,31377.2504577778,31378.2975281094,13,0,1,14,9,94112347,136175886,11100719,11701909,21101719,31600609,0,41410019,0,0,0,0,0,0,0,0,31710609,-2051140,40802009,30400309,31211819,0,0,0,0,0,0,0,0,0,11100719,0,0,0,0,0,0,0,11701909,0
13,339,584.730040780414,1,0,31382.9211598619,31383.9681832283,14,0,1,5,31,138980333,215116813,196655612,240743412,10801709,30201609,11900409,10511719,-2151031,10900409,21311219,21000909,20201319,40400919,0,20501019,30500709,21301419,41400419,0,40911419,20100909,20210009,22000109,31511019,0,40310319,10201509,30910319,10510509,31001819,30300009,11800819,0,21911019,40400509,41710119,41900119,20710209,32010609
13,340,470.308094310894,0,0,31385.6505638731,31386.6976334347,14,1,0,35,0,0,0,0,0,0,0,0,0,0,0,0,0,0,0,0,0,0,0,0,0,0,0,0,0,0,0,0,0,0,0,0,0,0,0,0,0,0,0,-40810191,0
13,341,395.919778031384,0,0,31388.2271018114,31389.2741398062,14,1,0,26,3,20201709,0,22562040,40200819,0,0,0,0,0,0,0,20201709,0,0,0,0,0,0,0,0,0,0,0,0,0,20410919,0,0,0,-2151121,0,40200819,0,0,0,0,0,0,0,0
13,342,452.825092263083,1,0,31390.8741969344,31391.9212203008,14,0,1,25,31,199051222,258071302,162489534,218146302,0,40702019,40711209,11502009,30101319,22001219,11411709,31911019,10710719,31611709,41412009,40311809,10901809,31011819,20301809,0,41510319,41010019,30211819,21200619,21511319,11901909,21500809,41301609,-4151041,0,10710409,40710309,41501319,20210809,30611119,30601019,0,12000109,31000509,11511109
13,343,441.730517362885,1,1,31393.521247787,31394.5683119592,14,0,0,18,3,0,33952290,30010209,11110219,0,0,0,0,0,0,0,0,0,0,30801119,0,0,0,0,0,0,-3151171,0,30010209,0,0,0,0,0,0,0,0,0,11110219,0,0,0,0,0,0
13,344,488.326192094974,1,0,31396.2153939936,31397.2624647102,14,0,1,19,19,175615675,126658404,105465077,135543966,41701909,0,30910419,0,41201709,0,0,40500119,21301519,11611719,21011019,30411219,0,11611719,0,30001009,0,22011719,-3040121,0,10201209,0,41111609,0,10411519,0,40700619,22010509,0,0,0,41110819,0,30810619,41612019,0
13,345,708.618947210198,0,0,31398.8860171607,31399.9330801781,14,0,0,36,9,40710528,61020537,41922318,24642899,0,10110409,30600119,0,0,0,0,0,0,0,0,30110309,0,10510109,0,20400119,0,0,10810809,0,0,0,0,31111509,0,0,0,0,0,0,0,10000909,0,11610809,0,-3031181
13,346,477.700884606747,1,0,31401.791960419,31402.8390003387,14,1,1,12,9,154545455,43811530,30200009,52712718,0,41311109,30400019,30711709,21711009,30411609,0,0,0,0,0,-3000011,40811519,0,0,0,0,0,0,0,0,0,30200009,0,0,0,0,0,40911909,0,0,0,0,0,0,11800809
13,347,535.562056909839,1,0,31404.427351959,31405.4743302849,14,1,1,33,3,0,0,72712028,43451389,0,0,0,0,0,0,0,0,0,0,0,0,0,0,0,0,0,0,0,31800219,0,0,40911809,0,0,0,0,41410219,0,0,0,0,-2041170,0,0,0
13,348,524.980634971143,0,0,31407.1567040004,31408.2037777966,14,1,0,3,31,178597954,198039512,220639522,188957631,21611019,0,-1051070,41301309,30911319,21600809,0,21410519,40711909,41411709,30500219,11501509,21101809,40400319,10011019,0,31501919,11611009,40701719,30700919,21400809,21700809,31500809,41811319,21511819,11311319,0,11011419,11601809,30300619,11710019,11901109,20610319,20410109,30010519,41401709
13,349,483.602721105854,0,0,31409.8862046367,31410.9332133746,14,1,0,23,9,61301238,23322018,94613798,30711628,0,0,0,20600519,0,0,0,40700719,0,0,0,0,0,0,11310009,0,12012009,0,0,10810509,0,0,-1081171,42011009,40711109,0,0,0,10500019,20211609,0,0,0,0,0,0
