sub_id,Trial,RT,Resp,Error,Fix_onset,Disp_onset,block,repeat,tid,tloc,d_setsize,quad1,quad2,quad3,quad4,loc1,loc2,loc3,loc4,loc5,loc6,loc7,loc8,loc9,loc10,loc11,loc12,loc13,loc14,loc15,loc16,loc17,loc18,loc19,loc20,loc21,loc22,loc23,loc24,loc25,loc26,loc27,loc28,loc29,loc30,loc31,loc32,loc33,loc34,loc35,loc36
11,1,590.077261906117,0,0,2260885.77988331,2260886.82695749,1,0,0,14,9,155335685,23163049,62313957,0,0,40801819,0,31211919,21801309,0,30310219,0,31210419,20112019,0,0,0,-3051030,0,0,0,0,0,10001819,0,0,0,41510519,10801619,0,0,0,0,0,0,0,0,0,0,0
11,2,713.71401892975,1,0,2260888.61523897,2260889.66228582,1,0,1,31,3,11601719,11710609,20501809,1000180,0,0,0,0,0,0,0,0,11601719,0,11710609,0,0,0,0,0,0,0,0,0,0,0,0,0,0,20501809,0,0,0,0,-1000180,0,0,0,0,0
11,3,708.641387987882,0,0,2260891.50935738,2260892.55645043,1,0,0,16,31,158228803,197498793,207955122,277361211,0,40900709,11200609,31101219,41911119,11412009,10401519,11301619,0,31111809,40401109,11900819,31110009,21811909,0,-1051020,40001609,20110509,11210719,40810419,20510519,21510619,0,21900309,41001509,10210809,40800219,30511619,31211409,40310109,40610709,20001909,41801909,30810709,10101319,32001519
11,4,695.13888284564,0,0,2260894.39176143,2260895.4388206,1,1,0,12,19,21403528,185914285,152647174,116446484,0,0,10401809,0,11001719,0,0,0,0,30310209,0,-2181030,40601919,0,32000009,0,40310309,40510809,11011009,10011109,0,0,30601609,40101009,40210419,20712019,0,0,41510209,11711619,0,10011109,10401019,0,31111609,11700919
11,5,522.814573254436,1,0,2260897.27417703,2260898.32121849,1,1,1,5,0,0,0,0,0,0,0,0,0,-10510401,0,0,0,0,0,0,0,0,0,0,0,0,0,0,0,0,0,0,0,0,0,0,0,0,0,0,0,0,0,0,0
11,6,469.321167562157,1,0,2260899.86241702,2260900.90948311,1,1,1,27,3,52720528,0,45881879,0,0,10910019,0,0,41810509,0,0,0,0,0,0,0,0,0,0,0,0,0,0,0,0,0,41701709,0,0,0,-4180170,0,0,0,0,0,0,0,0,0
11,7,748.44519700855,1,0,2260902.56833302,2260903.61540258,1,0,1,35,31,185857112,231179431,115427484,226476762,20600419,30710119,0,30801219,30511909,11310409,30511419,20800609,10611009,21710409,31411919,31010809,11300919,21512019,21710319,11011119,40111209,41400709,31500709,20901209,21801419,20900619,0,10012009,10311519,0,0,40611309,40111209,30611909,21210009,30410119,20700619,20210419,-2111050,20500119
11,8,465.792615432292,0,0,2260905.48601374,2260906.53308638,1,1,0,9,3,3161160,30111809,41201909,21010219,0,0,0,0,0,0,0,0,-3161160,0,0,0,0,30111809,0,0,0,0,0,0,0,41201909,0,0,0,0,0,0,21010219,0,0,0,0,0,0,0
11,9,510.362625587732,1,1,2260908.16839785,2260909.21546625,1,0,0,1,9,34011898,82012038,54112647,71702228,-1110180,10900509,0,0,22001209,0,0,0,0,0,0,0,0,0,42001519,40010519,0,0,30810709,0,0,11501319,0,0,0,11800619,0,0,0,0,31700409,0,40001819,0,0,0
11,10,563.369440380484,0,0,2260910.81548565,2260911.86255791,1,0,0,15,19,117727794,138595007,186837393,61112118,0,10101319,0,22010419,30911209,0,21602019,21701809,11401019,21811809,0,41010919,0,31000619,-3071151,41700509,0,0,0,0,30411519,41701609,41000909,10600109,21311409,11000219,30811619,0,30110509,0,0,0,0,31001609,0,0
11,11,533.939559943974,1,0,2260913.50964226,2260914.55670489,1,0,1,11,9,61113438,115992168,63203028,51820928,0,41111719,0,0,0,20001719,0,0,0,41010319,-2170131,0,0,0,0,31611009,0,41200709,0,21601819,0,0,0,0,0,41601209,0,0,0,30810709,21010219,0,0,0,0,0
11,12,496.362750884146,1,0,2260916.13320164,2260917.18026927,1,0,1,33,3,10200519,0,20601719,24651870,0,10200519,0,0,0,0,0,0,0,0,0,0,0,0,0,0,0,0,0,0,0,0,0,0,20601719,0,0,0,0,21511709,0,0,-3140161,0,0,0
11,13,568.301559891552,0,0,2260918.82736478,2260919.87441509,1,1,0,4,9,72584668,21010519,85033137,52911928,0,0,20001109,-1061031,0,0,0,30410919,21111609,21010519,0,0,0,0,0,0,0,0,31911309,0,11910819,0,41211009,0,0,0,0,0,22011709,0,0,30900219,0,0,0,0
11,14,453.364151064307,1,0,2260921.62738372,2260922.67444674,1,1,1,22,31,149158341,236728622,231667242,108127884,31510219,10100309,20611219,21110219,11610919,20801409,11701419,10902019,10810609,40411509,30011409,20000319,31802019,0,10901219,40800709,31000619,31800819,11511009,30510319,30000919,-3110040,31411609,30711019,41901009,40810109,11701209,0,0,21701119,21602009,0,11001619,11902019,20010709,21910409
11,15,450.956220272928,0,0,2260924.21565873,2260925.2627718,1,0,0,10,3,40900419,4190111,21310409,11511419,0,0,0,0,0,0,0,0,40900419,-4190111,0,0,0,0,0,0,0,0,0,0,0,0,21310409,0,0,0,0,0,0,0,11511419,0,0,0,0,0
11,16,558.53741010651,0,0,2260926.85097213,2260927.89804361,1,1,0,13,31,236450902,231505025,225488041,246858722,21510819,30400419,30111809,0,40311219,21201309,32001909,20401409,40512009,0,31210019,40900809,-4081031,0,40800509,31300819,41700019,41511819,10401009,31010519,20711519,10610619,20011319,41210419,30911719,20610809,40010109,20111009,40510119,41011709,31901719,30901019,40200909,0,31810319,10411919
11,17,498.634790536016,1,0,2260929.50984013,2260930.55690083,1,1,1,2,9,74332847,22412018,21020518,23522028,0,-1030000,0,0,41401919,11200719,20700209,0,0,0,0,10400009,0,0,12012009,0,0,0,0,0,0,10210209,0,0,0,0,10810309,0,0,0,0,0,0,0,12011709,11510319
11,18,559.916340280324,0,0,2260932.227519,2260933.274572,1,0,0,20,31,186460102,288637021,119091935,279171841,40410809,20202009,21210619,40711609,0,10911819,30901009,10110419,12001809,40111309,30700409,41801019,22000309,31310009,40311219,30800519,31101409,20500819,0,-3160060,10710819,32000419,0,0,21510019,11010009,40700609,41712019,41912019,21701209,30811919,30810209,20111019,10211819,41400619,40501009
11,19,476.631191559136,1,0,2260934.86284047,2260935.90990118,1,1,1,21,19,173816285,117424675,157536285,81734437,0,0,41000019,31101009,0,20611819,0,40901719,40201719,0,11801719,41800519,0,11810509,11110809,40901119,0,0,30610019,20812019,-2181191,21211409,31300609,0,10810619,40610419,0,20811619,0,0,0,30011109,0,30911709,0,0
11,20,546.378418337554,1,0,2260937.48639446,2260938.55699823,1,0,1,24,19,133635265,113645265,169234225,63013866,31810809,0,0,0,0,30200709,11210719,20412019,40001009,30010409,0,10511909,0,0,21200709,30710319,0,21211919,0,31200809,41900409,0,41701619,-2020160,0,11800609,40610619,0,0,0,11500019,30501719,10601609,10410519,0,0
11,21,473.174242302775,0,0,2260940.25113558,2260941.29820861,1,1,0,3,19,154205507,82631737,136135885,195327723,0,0,-1091161,41211419,0,0,41100509,30500409,40302009,0,0,0,0,41010109,0,31510809,0,10110819,41510319,0,11102019,0,42001319,0,10910909,30611319,0,11800719,0,11511709,40401919,0,40400319,11001319,40011319,40200419
11,22,677.282083313912,1,0,2260942.80411121,2260943.85117462,1,0,1,36,19,133414466,98027993,144324985,65513157,0,0,41911119,20600419,30001719,40901209,0,0,0,20701819,12002009,0,11801009,21501119,0,11800219,10111809,10110009,0,0,40801719,31310519,11200719,0,20401219,40610809,0,0,0,21311209,20010509,0,0,22000309,0,-2191130
11,23,572.692039888352,1,0,2260945.72179617,2260946.76885918,1,1,1,29,9,31011019,61913238,71511818,63966376,0,0,31011019,0,0,0,0,0,0,31601319,0,0,0,30311919,0,0,0,0,0,0,0,0,40700609,0,0,0,30811209,20011109,-1020130,10911609,0,0,10412009,0,21611519,0
11,24,683.421440888196,0,0,2260948.36888282,2260949.41594815,1,1,0,28,31,138847402,206047413,168747502,240905883,12011419,11300409,42001209,10800109,10300809,21111819,0,10910419,20411209,40600119,11301819,20211909,40411009,0,0,31700019,41311419,20511119,0,10001609,21610219,31300909,40911609,11600919,20400909,11010619,21910709,-2150191,10511009,31100009,41310009,41401609,31211609,31910519,20300019,31010909
11,25,490.271513350308,0,0,2260951.1689083,2260952.21598018,1,1,0,18,3,0,25881810,0,41011838,0,0,0,0,0,0,0,0,0,0,0,0,0,0,0,21810619,0,-4071191,0,0,0,0,0,0,0,0,0,0,0,0,30001719,11010119,0,0,0,0
11,26,513.02270591259,1,0,2260953.8513159,2260954.89838276,1,0,1,22,0,0,0,0,0,0,0,0,0,0,0,0,0,0,0,0,0,0,0,0,0,0,0,0,0,0,-11601091,0,0,0,0,0,0,0,0,0,0,0,0,0,0
11,27,783.753431402147,1,0,2260976.67510194,2260977.72223695,2,1,1,28,31,138847402,206047413,168747502,240905883,12011419,11300409,42001209,10800109,10300809,21111819,0,10910419,20411209,40600119,11301819,20211909,40411009,0,0,31700019,41311419,20511119,0,10001609,21610219,31300909,40911609,11600919,20400909,11010619,21910709,-2150191,10511009,31100009,41310009,41401609,31211609,31910519,20300019,31010909
11,28,525.125878863037,1,0,2260979.59278959,2260980.63985376,2,0,1,35,9,122011847,52313856,20511809,35331730,40610319,0,41301519,40100009,0,0,0,0,0,10400919,10400819,0,0,21301609,0,10210509,0,0,0,0,0,0,0,20511809,0,0,0,0,0,0,0,0,31301609,0,-4030121,0
11,29,574.118705000728,0,0,2260982.23988587,2260983.28695158,2,0,0,1,9,34643809,0,10310419,107612084,-3030181,0,0,0,0,0,11012009,20601619,0,0,0,0,0,0,0,0,0,0,0,10310419,0,0,0,0,0,0,0,20800519,0,0,11900119,0,11700309,41210109,10200609,11800419
11,30,605.065716896206,1,0,2260984.88697214,2260985.934039,2,0,1,10,31,156239722,177610263,218027803,166427702,10711719,11610719,21101919,21110519,0,10201219,30101409,40001909,11400309,-2101171,10100009,11401809,30601509,20101919,11300709,30101509,21700309,40201319,11002019,0,40700919,41601519,0,41300609,10601009,41811609,31010119,10500419,0,11011909,31102009,30801319,10410009,41500219,20701709,10400109
11,31,604.607998393476,0,0,2260987.56935932,2260988.61642388,2,0,0,24,31,230079291,148050793,166540674,126616702,42001909,10412009,21610609,11100109,40611709,30810109,10910109,31511819,31110909,41911719,0,11810709,20712009,21401219,20711519,11101909,0,20401709,20712019,10311819,30001809,41810819,0,-1081151,11011619,10500619,41110819,11300409,22001909,10100619,21800919,20100509,10401509,0,10610809,20300019
11,32,560.047612525523,0,0,2260990.3458583,2260991.39292787,2,0,0,16,3,41510609,24111820,0,40401519,41510609,0,0,0,0,0,0,0,0,0,0,0,0,0,21011709,-3100111,0,0,0,0,0,0,0,0,0,0,0,0,0,0,0,0,0,0,40401519,0
11,33,504.983566235751,1,0,2260993.04008381,2260994.08709101,2,0,1,14,19,115224856,168096715,73333365,115023076,0,0,11400819,0,0,41601209,31110919,31111909,0,40500809,0,10700209,21201709,-3171051,20400619,40910309,31212009,0,11211109,11010319,20110609,0,20700919,10300409,0,0,0,0,0,32001619,0,0,0,20710319,41701119,20610019
11,34,403.544813394547,0,0,2260995.67533908,2260996.72240325,2,0,0,21,0,0,0,0,0,0,0,0,0,0,0,0,0,0,0,0,0,0,0,0,0,0,0,0,0,-10910401,0,0,0,0,0,0,0,0,0,0,0,0,0,0,0
11,35,496.714219450951,1,0,2260998.24007835,2260999.28714136,2,1,1,29,9,31011019,61913238,71511818,63966376,0,0,31011019,0,0,0,0,0,0,31601319,0,0,0,30311919,0,0,0,0,0,0,0,0,40700609,0,0,0,30811209,20011109,-1020130,10911609,0,0,10412009,0,21611519,0
11,36,449.194253887981,1,0,2261000.96952047,2261002.01659619,2,1,1,21,19,173816285,117424675,157536285,81734437,0,0,41000019,31101009,0,20611819,0,40901719,40201719,0,11801719,41800519,0,11810509,11110809,40901119,0,0,30610019,20812019,-2181191,21211409,31300609,0,10810619,40610419,0,20811619,0,0,0,30011109,0,30911709,0,0
11,37,423.380311578512,0,0,2261003.56955565,2261004.61662175,2,0,0,15,3,0,21682020,52110728,0,0,0,0,0,0,0,0,0,0,0,0,0,0,20600909,-1081111,0,0,0,0,0,0,0,20600409,0,0,0,31510319,0,0,0,0,0,0,0,0,0
11,38,480.784534942359,1,0,2261006.09900016,2261007.14605086,2,1,1,4,9,72584668,21010519,85033137,52911928,0,0,20001109,-1061031,0,0,0,30410919,21111609,21010519,0,0,0,0,0,0,0,0,31911309,0,11910819,0,41211009,0,0,0,0,0,22011709,0,0,30900219,0,0,0,0
11,39,488.024496007711,0,0,2261008.71079283,2261009.75785661,2,1,0,22,31,149158341,236728622,231667242,108127884,31510219,10100309,20611219,21110219,11610919,20801409,11701419,10902019,10810609,40411509,30011409,20000319,31802019,0,10901219,40800709,31000619,31800819,11511009,30510319,30000919,-3110040,31411609,30711019,41901009,40810109,11701209,0,0,21701119,21602009,0,11001619,11902019,20010709,21910409
11,40,396.509651560336,1,0,2261011.44025766,2261012.48730798,2,1,1,9,3,3161160,30111809,41201909,21010219,0,0,0,0,0,0,0,0,-3161160,0,0,0,0,30111809,0,0,0,0,0,0,0,41201909,0,0,0,0,0,0,21010219,0,0,0,0,0,0,0
11,41,484.755792655051,1,0,2261013.95790581,2261015.00499501,2,1,1,12,19,21403528,185914285,152647174,116446484,0,0,10401809,0,11001719,0,0,0,0,30310209,0,-2181030,40601919,0,32000009,0,40310309,40510809,11011009,10011109,0,0,30601609,40101009,40210419,20712019,0,0,41510209,11711619,0,10011109,10401019,0,31111609,11700919
11,42,472.546370700002,0,0,2261016.60500709,2261017.65206857,2,1,0,18,3,0,25881810,0,41011838,0,0,0,0,0,0,0,0,0,0,0,0,0,0,0,21810619,0,-4071191,0,0,0,0,0,0,0,0,0,0,0,0,30001719,11010119,0,0,0,0
11,43,472.572548314929,1,0,2261019.29915561,2261020.34622094,2,0,1,36,3,0,51500838,0,22861410,0,0,0,0,0,0,0,0,0,0,31300619,0,0,0,0,20200219,0,0,0,0,0,0,0,0,0,0,0,0,0,0,0,21700219,0,0,0,-1161191
11,44,518.560754600912,1,0,2261021.89919503,2261022.94625805,2,1,1,3,19,154205507,82631737,136135885,195327723,0,0,-1091161,41211419,0,0,41100509,30500409,40302009,0,0,0,0,41010109,0,31510809,0,10110819,41510319,0,11102019,0,42001319,0,10910909,30611319,0,11800719,0,11511709,40401919,0,40400319,11001319,40011319,40200419
11,45,464.101482182741,0,0,2261024.62863176,2261025.67569324,2,0,0,20,31,225667322,284457712,195128983,195515803,31400119,0,20501009,11210209,40212009,10911219,40411619,30910219,40110919,0,20310209,40511619,30810119,40901119,40310409,30000209,41302009,40312019,10800709,-4100061,32011619,21400819,11701119,11511009,40400909,41201419,22001319,0,30900209,0,30101209,20900209,40200319,10711319,21301719,41400819
11,46,346.061963587999,1,0,2261027.16989342,2261028.22847687,2,1,1,5,0,0,0,0,0,0,0,0,0,-10510401,0,0,0,0,0,0,0,0,0,0,0,0,0,0,0,0,0,0,0,0,0,0,0,0,0,0,0,0,0,0,0
11,47,479.338237084448,0,0,2261029.76986547,2261030.81724493,2,1,0,13,31,236450902,231505025,225488041,246858722,21510819,30400419,30111809,0,40311219,21201309,32001909,20401409,40512009,0,31210019,40900809,-4081031,0,40800509,31300819,41700019,41511819,10401009,31010519,20711519,10610619,20011319,41210419,30911719,20610809,40010109,20111009,40510119,41011709,31901719,30901019,40200909,0,31810319,10411919
11,48,506.058377213776,0,0,2261032.34638955,2261033.39343524,2,1,0,27,3,52720528,0,45881879,0,0,10910019,0,0,41810509,0,0,0,0,0,0,0,0,0,0,0,0,0,0,0,0,0,41701709,0,0,0,-4180170,0,0,0,0,0,0,0,0,0
11,49,489.793777000159,0,0,2261034.93464686,2261035.9817014,2,0,0,11,19,134616455,41610959,126247574,166669783,40902009,0,0,0,0,30701109,11201209,31211209,20600919,0,-1110050,0,0,0,40500909,0,0,0,0,20211019,30200809,0,21001009,11511809,0,31712009,11610919,0,0,31011009,40311709,11711809,41711509,10111419,20600819,11211509
11,50,580.15450835228,1,0,2261037.48766098,2261038.65231995,2,0,1,33,19,126515785,102516356,154635065,149645275,0,41501409,0,30512019,0,21501219,21200919,11800219,0,0,31611209,40301719,0,20101919,0,0,10501509,0,0,20500419,0,40011409,31510009,20702019,0,41911209,0,20300119,0,0,41101919,0,-4031190,41910319,11800919,30500809
11,51,536.295135971159,0,0,2261040.26414457,2261041.31121605,2,0,0,31,9,71913728,51812928,51101518,44054847,0,0,0,0,31812019,0,40101709,0,0,0,40301619,0,11511309,0,0,0,0,0,0,0,0,0,0,0,30701409,0,20400109,20111009,11802019,10100809,-2041010,0,0,0,0,0
11,52,413.106088526547,0,0,2261042.9111985,2261043.95829193,2,1,0,2,9,74332847,22412018,21020518,23522028,0,-1030000,0,0,41401919,11200719,20700209,0,0,0,0,10400009,0,0,12012009,0,0,0,0,0,0,10210209,0,0,0,0,10810309,0,0,0,0,0,0,0,12011709,11510319
11,53,614.90493407473,1,0,2261066.664457,2261067.71150462,3,0,1,35,19,116003256,64911456,217847783,113254837,0,41200119,0,41002019,0,12000509,21800609,0,0,0,21200009,11010409,20800319,0,0,0,0,11900719,31411219,40811209,10311309,21200119,40901909,31801809,41410209,0,0,30801119,0,40400119,10511509,0,0,30500919,-1041171,0
11,54,452.204648405313,1,0,2261069.52329913,2261070.59389443,3,0,1,15,31,218957513,241977633,281958431,196936503,21711119,41011709,22000919,41411419,20810519,31701109,0,40310719,0,31010009,20400819,21500409,41000419,41310709,-4141021,30611319,11301709,40701219,31410419,21901719,20710319,41200309,40601809,21210209,41311219,22010809,41601619,21700619,32011809,0,30100019,41500319,20210909,10302019,41110809,0
11,55,572.139621246606,1,0,2261072.12332123,2261073.19394386,3,1,1,2,9,74332847,22412018,21020518,23522028,0,-1030000,0,0,41401919,11200719,20700209,0,0,0,0,10400009,0,0,12012009,0,0,0,0,0,0,10210209,0,0,0,0,10810309,0,0,0,0,0,0,0,12011709,11510319
11,56,383.115575648844,0,1,2261074.92341139,2261076.01729156,3,0,1,1,9,32642909,41900619,86012946,41821538,-1031181,0,10910209,0,0,0,0,0,20701519,0,0,41900619,0,0,0,0,0,0,21200919,11701209,0,0,41500109,0,0,0,11610709,0,11310219,0,0,0,0,0,0,30511319
11,57,485.525714699179,0,0,2261077.55872555,2261078.60576932,3,0,0,28,0,0,0,0,0,0,0,0,0,0,0,0,0,0,0,0,0,0,0,0,0,0,0,0,0,0,0,0,0,0,0,0,-30511191,0,0,0,0,0,0,0,0
11,58,463.399313390255,0,0,2261080.26459536,2261081.31168224,3,1,0,28,31,138847402,206047413,168747502,240905883,12011419,11300409,42001209,10800109,10300809,21111819,0,10910419,20411209,40600119,11301819,20211909,40411009,0,0,31700019,41311419,20511119,0,10001609,21610219,31300909,40911609,11600919,20400909,11010619,21910709,-2150191,10511009,31100009,41310009,41401609,31211609,31910519,20300019,31010909
11,59,481.609121896327,1,0,2261082.81757946,2261083.86464363,3,1,1,12,19,21403528,185914285,152647174,116446484,0,0,10401809,0,11001719,0,0,0,0,30310209,0,-2181030,40601919,0,32000009,0,40310309,40510809,11011009,10011109,0,0,30601609,40101009,40210419,20712019,0,0,41510209,11711619,0,10011109,10401019,0,31111609,11700919
11,60,466.051309369504,0,0,2261085.39411932,2261086.44117156,3,1,0,22,31,149158341,236728622,231667242,108127884,31510219,10100309,20611219,21110219,11610919,20801409,11701419,10902019,10810609,40411509,30011409,20000319,31802019,0,10901219,40800709,31000619,31800819,11511009,30510319,30000919,-3110040,31411609,30711019,41901009,40810109,11701209,0,0,21701119,21602009,0,11001619,11902019,20010709,21910409
11,61,395.307418424636,0,0,2261088.06470553,2261089.11177047,3,0,0,14,3,0,3141050,73711318,30810109,0,0,0,0,0,0,0,0,0,0,0,0,0,-3141050,0,0,0,0,0,0,41900309,31811009,0,0,0,0,0,0,0,0,0,30810109,0,0,0,0
11,62,435.229795053601,0,0,2261090.61767423,2261091.66473725,3,1,0,21,19,173816285,117424675,157536285,81734437,0,0,41000019,31101009,0,20611819,0,40901719,40201719,0,11801719,41800519,0,11810509,11110809,40901119,0,0,30610019,20812019,-2181191,21211409,31300609,0,10810619,40610419,0,20811619,0,0,0,30011109,0,30911709,0,0
11,63,487.525234464556,0,0,2261093.17068913,2261094.26457415,3,0,0,36,9,52012328,92115537,62612347,23350439,40000909,0,12011419,0,0,0,0,0,0,40601919,0,0,10201609,0,0,0,0,41312009,30900119,0,0,0,0,0,20500419,11211809,0,0,21300309,0,0,0,0,0,0,-2050130
11,64,423.195915296674,1,0,2261095.77067158,2261096.81773652,3,0,1,20,3,0,0,41891379,81720838,0,0,0,0,0,0,0,0,0,0,0,0,0,0,0,0,0,0,0,-1181170,0,0,0,0,40710209,0,0,0,40510119,0,0,0,0,41210719,0,0
11,65,461.640459485352,0,0,2261098.2885226,2261099.33522488,3,1,0,13,31,236450902,231505025,225488041,246858722,21510819,30400419,30111809,0,40311219,21201309,32001909,20401409,40512009,0,31210019,40900809,-4081031,0,40800509,31300819,41700019,41511819,10401009,31010519,20711519,10610619,20011319,41210419,30911719,20610809,40010109,20111009,40510119,41011709,31901719,30901019,40200909,0,31810319,10411919
11,66,591.648287605494,1,0,2261100.85319104,2261101.90016552,3,0,1,33,31,208743583,227037213,245663441,191347513,0,20810219,41510809,41910709,22000609,31300409,41010719,0,10200109,0,31601519,30910419,30701919,31801309,30000519,0,31010309,41011219,40000219,20900819,30900019,30210009,11110109,20010219,40910319,41411219,10210509,11000519,30510109,10900519,42001809,20200909,-3011201,11911019,41411109,20400319
11,67,487.095970194787,1,0,2261103.52373298,2261104.57078368,3,0,1,31,19,54913576,166025875,125615775,148075386,0,11900619,20901119,10110319,0,0,0,0,12001519,0,0,41411319,0,0,32001319,20011309,30601119,42000809,0,40501119,0,0,31401609,21800619,11400719,20511709,0,10200119,31901309,0,-4140021,40211719,40810609,0,0,20811609
11,68,698.101927060634,0,1,2261106.18258019,2261107.22963051,3,0,1,24,31,220979331,194738683,178188062,234926803,30610019,12011809,10810019,31811109,40111609,11210219,41010619,31701909,11702019,31801009,40212009,0,0,20610609,10700519,20000819,30611709,40802009,21200219,11410109,21801709,40100509,20300119,-1071160,41201509,10501719,10601009,0,41100719,20710119,10700309,41701809,40100209,40011919,40601719,0
11,69,529.32310802862,0,0,2261108.99439203,2261110.0414254,3,1,0,9,3,3161160,30111809,41201909,21010219,0,0,0,0,0,0,0,0,-3161160,0,0,0,0,30111809,0,0,0,0,0,0,0,41201909,0,0,0,0,0,0,21010219,0,0,0,0,0,0,0
11,70,572.256649378687,1,0,2261111.58264587,2261112.68854555,3,0,1,16,3,0,2071101,0,113823447,0,0,0,0,0,0,0,0,0,0,0,0,0,0,0,-2071101,0,0,0,0,0,0,0,0,0,0,0,0,0,41700119,0,30512019,41611309,0,0,0
11,71,513.241363689303,1,0,2261114.28866157,2261115.33563644,3,1,1,4,9,72584668,21010519,85033137,52911928,0,0,20001109,-1061031,0,0,0,30410919,21111609,21010519,0,0,0,0,0,0,0,0,31911309,0,11910819,0,41211009,0,0,0,0,0,22011709,0,0,30900219,0,0,0,0
11,72,514.887072145939,0,0,2261116.98269807,2261118.02976301,3,1,0,18,3,0,25881810,0,41011838,0,0,0,0,0,0,0,0,0,0,0,0,0,0,0,21810619,0,-4071191,0,0,0,0,0,0,0,0,0,0,0,0,30001719,11010119,0,0,0,0
11,73,494.469512719661,0,0,2261119.7121552,2261120.759224,3,1,0,3,19,154205507,82631737,136135885,195327723,0,0,-1091161,41211419,0,0,41100509,30500409,40302009,0,0,0,0,41010109,0,31510809,0,10110819,41510319,0,11102019,0,42001319,0,10910909,30611319,0,11800719,0,11511709,40401919,0,40400319,11001319,40011319,40200419
11,74,492.20016784966,0,0,2261122.40629294,2261123.45336404,3,0,0,11,9,105533546,26093839,40811619,52022828,31211109,41610909,0,0,0,21910309,0,10801219,0,0,-4080011,0,0,10811919,0,11201909,0,0,0,0,0,40811619,0,0,0,0,0,20510919,0,0,0,0,0,0,31511909,0
11,75,409.199504647404,0,0,2261125.05337921,2261126.10044723,3,0,0,10,19,197016374,63791459,125345295,153838314,41901509,41301319,0,21111309,41300309,30401709,21000219,0,0,-2190031,0,0,0,0,0,0,30301409,31300019,30810619,0,21210519,0,20401119,0,11811719,41111319,0,30611919,0,31111319,0,10200119,30001919,30101619,21811419,0
11,76,519.890794530511,0,0,2261127.68877768,2261128.73578565,3,1,0,29,9,31011019,61913238,71511818,63966376,0,0,31011019,0,0,0,0,0,0,31601319,0,0,0,30311919,0,0,0,0,0,0,0,0,40700609,0,0,0,30811209,20011109,-1020130,10911609,0,0,10412009,0,21611519,0
11,77,468.484262935817,1,0,2261130.37116102,2261131.41818439,3,1,1,27,3,52720528,0,45881879,0,0,10910019,0,0,41810509,0,0,0,0,0,0,0,0,0,0,0,0,0,0,0,0,0,41701709,0,0,0,-4180170,0,0,0,0,0,0,0,0,0
11,78,590.038380585611,1,0,2261133.05378765,2261134.10055579,3,1,1,5,0,0,0,0,0,0,0,0,0,-10510401,0,0,0,0,0,0,0,0,0,0,0,0,0,0,0,0,0,0,0,0,0,0,0,0,0,0,0,0,0,0,0
11,79,617.663949262351,0,0,2261158.0537761,2261159.10085568,4,0,0,24,9,121614976,10311409,14992409,63303347,10111119,0,0,0,0,0,30701819,40701619,40100419,0,0,10311409,0,0,0,0,0,0,0,0,0,0,11811209,-3181200,0,0,0,11901419,0,0,0,30100809,0,0,0,21301119
11,80,933.561373967677,1,1,2261160.88915948,2261161.936174,4,0,0,31,31,247160012,175068002,198737312,189587534,31212009,40311119,20711019,10410919,0,41710719,21301709,41401809,40100709,11011409,20610309,41711519,0,10611119,20000609,40810019,10101109,20211909,0,10801819,12010119,21210109,41100519,20701309,21700209,40101409,31111819,40001109,0,11400319,-4171131,31410519,20001509,31900119,40401709,10301119
11,81,574.230729136616,0,0,2261163.94797574,2261164.99505031,4,0,0,20,31,206339302,169770682,161779533,197347812,20001709,31701709,0,30101009,11511619,41410619,10710709,40201709,20700219,0,40911419,11411509,31911509,10401109,11210909,31811609,11901309,20211309,30102009,-4040150,12000409,12000619,41611809,10512009,0,41011119,10501409,21111619,10300809,30501319,21902009,30610209,10811419,0,30600409,41510019
11,82,498.839589301497,0,0,2261166.73625337,2261167.78337375,4,0,0,15,9,73210938,24712608,43212818,83213437,0,31600019,0,0,0,0,0,0,41610919,0,11510519,0,0,0,-1191080,12011009,0,0,0,0,0,0,0,0,0,31611409,11601409,0,0,0,30900209,21001209,31312019,0,0,0
11,83,700.482525862753,1,0,2261169.35980698,2261170.40688232,4,0,1,11,19,53734637,168087846,134914575,116035394,0,0,0,0,0,30611509,11611709,11511419,0,41511819,-2151061,21600719,41210809,0,40302019,21311419,0,0,0,0,30901109,0,31400119,30111009,20901319,0,21601019,31811219,0,0,11100319,20500819,10810909,31510409,0,10301719
11,84,518.254325725138,1,0,2261172.15989906,2261173.20691242,4,1,1,3,19,154205507,82631737,136135885,195327723,0,0,-1091161,41211419,0,0,41100509,30500409,40302009,0,0,0,0,41010109,0,31510809,0,10110819,41510319,0,11102019,0,42001319,0,10910909,30611319,0,11800719,0,11511709,40401919,0,40400319,11001319,40011319,40200419
11,85,453.991637099534,1,0,2261174.74789595,2261175.79517935,4,1,1,18,3,0,25881810,0,41011838,0,0,0,0,0,0,0,0,0,0,0,0,0,0,0,21810619,0,-4071191,0,0,0,0,0,0,0,0,0,0,0,0,30001719,11010119,0,0,0,0
11,86,476.870637387037,0,0,2261177.44220411,2261178.48936906,4,1,0,22,31,149158341,236728622,231667242,108127884,31510219,10100309,20611219,21110219,11610919,20801409,11701419,10902019,10810609,40411509,30011409,20000319,31802019,0,10901219,40800709,31000619,31800819,11511009,30510319,30000919,-3110040,31411609,30711019,41901009,40810109,11701209,0,0,21701119,21602009,0,11001619,11902019,20010709,21910409
11,87,486.865811049938,0,0,2261180.13639412,2261181.18326961,4,1,0,27,3,52720528,0,45881879,0,0,10910019,0,0,41810509,0,0,0,0,0,0,0,0,0,0,0,0,0,0,0,0,0,41701709,0,0,0,-4180170,0,0,0,0,0,0,0,0,0
11,88,534.157062415034,1,0,2261182.75996851,2261183.80702845,4,1,1,13,31,236450902,231505025,225488041,246858722,21510819,30400419,30111809,0,40311219,21201309,32001909,20401409,40512009,0,31210019,40900809,-4081031,0,40800509,31300819,41700019,41511819,10401009,31010519,20711519,10610619,20011319,41210419,30911719,20610809,40010109,20111009,40510119,41011709,31901719,30901019,40200909,0,31810319,10411919
11,89,417.935809120536,1,0,2261185.45410894,2261186.50118543,4,1,1,4,9,72584668,21010519,85033137,52911928,0,0,20001109,-1061031,0,0,0,30410919,21111609,21010519,0,0,0,0,0,0,0,0,31911309,0,11910819,0,41211009,0,0,0,0,0,22011709,0,0,30900219,0,0,0,0
11,90,460.044763516635,1,0,2261188.01886477,2261189.06592316,4,0,1,1,3,3160070,10400009,61112128,0,-3160070,0,0,0,0,0,0,0,0,10400009,0,0,0,0,0,0,0,0,0,0,40011909,0,0,0,21100219,0,0,0,0,0,0,0,0,0,0,0
11,91,465.239041950554,0,0,2261190.60714902,2261191.6542359,4,1,0,21,19,173816285,117424675,157536285,81734437,0,0,41000019,31101009,0,20611819,0,40901719,40201719,0,11801719,41800519,0,11810509,11110809,40901119,0,0,30610019,20812019,-2181191,21211409,31300609,0,10810619,40610419,0,20811619,0,0,0,30011109,0,30911709,0,0
11,92,549.955860711634,1,0,2261193.26576832,2261194.31308966,4,1,1,29,9,31011019,61913238,71511818,63966376,0,0,31011019,0,0,0,0,0,0,31601319,0,0,0,30311919,0,0,0,0,0,0,0,0,40700609,0,0,0,30811209,20011109,-1020130,10911609,0,0,10412009,0,21611519,0
11,93,659.308256581426,0,0,2261195.88952789,2261196.93660207,4,0,0,35,3,0,41100109,40110719,14080350,0,0,0,0,0,0,0,0,0,41100109,0,0,0,0,0,0,0,0,0,0,0,0,40110719,0,0,0,0,0,0,0,0,0,0,10010309,-4070041,0
11,94,543.041224591434,0,0,2261198.66605613,2261199.7599885,4,0,0,33,31,257130541,250059522,136234784,199158143,10400619,21311419,20301109,30910519,30901719,41200119,40101819,21201409,40801809,21811419,41511019,41701719,10811119,31900809,30911719,31110509,0,40301209,10911709,41000719,20501109,0,40910619,0,0,11600509,11310119,30600519,30910609,12011119,40511319,20401419,-1110031,30000009,21701109,11912009
11,95,429.132398683578,0,0,2261201.47783678,2261202.52490018,4,1,0,9,3,3161160,30111809,41201909,21010219,0,0,0,0,0,0,0,0,-3161160,0,0,0,0,30111809,0,0,0,0,0,0,0,41201909,0,0,0,0,0,0,21010219,0,0,0,0,0,0,0
11,96,506.787493359298,0,0,2261204.11317212,2261205.16022551,4,1,0,12,19,21403528,185914285,152647174,116446484,0,0,10401809,0,11001719,0,0,0,0,30310209,0,-2181030,40601919,0,32000009,0,40310309,40510809,11011009,10011109,0,0,30601609,40101009,40210419,20712019,0,0,41510209,11711619,0,10011109,10401019,0,31111609,11700919
11,97,485.722814686596,1,0,2261206.7249771,2261207.77208054,4,1,1,28,31,138847402,206047413,168747502,240905883,12011419,11300409,42001209,10800109,10300809,21111819,0,10910419,20411209,40600119,11301819,20211909,40411009,0,0,31700019,41311419,20511119,0,10001609,21610219,31300909,40911609,11600919,20400909,11010619,21910709,-2150191,10511009,31100009,41310009,41401609,31211609,31910519,20300019,31010909
11,98,443.36940953508,1,0,2261209.30147115,2261210.34853455,4,1,1,5,0,0,0,0,0,0,0,0,0,-10510401,0,0,0,0,0,0,0,0,0,0,0,0,0,0,0,0,0,0,0,0,0,0,0,0,0,0,0,0,0,0,0
11,99,518.573842942715,0,0,2261211.97207931,2261213.01914848,4,0,0,16,19,206627083,94263658,85233846,123725375,40400009,20501609,0,0,41600909,10201709,41910019,21211409,30801419,0,0,21210519,0,30010519,0,-2131001,0,40911619,21600109,0,0,20911709,0,0,0,11911319,30810709,30300809,12011219,0,20602009,0,0,20700219,0,40111119
11,100,516.055043786764,1,0,2261214.74861986,2261215.79565555,4,0,1,10,9,10200019,84062867,64022137,51112718,10200019,0,0,0,0,0,0,0,0,-3160120,0,40400819,0,0,0,10000619,30501309,0,10911719,0,0,0,0,0,21410209,31700209,0,0,0,0,20301809,0,0,0,30810909,0
11,101,355.039347428828,0,0,2261217.50156077,2261218.54864919,4,0,0,25,0,0,0,0,0,0,0,0,0,0,0,0,0,0,0,0,0,0,0,0,0,0,0,0,0,0,0,0,0,-10201591,0,0,0,0,0,0,0,0,0,0,0
11,102,496.373914647847,1,0,2261220.01923779,2261221.06631813,4,0,1,14,19,75324076,109925897,105835265,198424974,0,31111019,0,11211119,22001019,11000919,0,0,0,31010909,32000519,0,21911709,-4101051,0,0,0,20901709,20101309,10610019,21211419,0,21911309,0,0,32001209,0,0,41610919,41900209,31901309,0,31410909,0,30700009,20901619
11,103,546.102401334792,1,0,2261222.71338515,2261223.76047281,4,1,1,2,9,74332847,22412018,21020518,23522028,0,-1030000,0,0,41401919,11200719,20700209,0,0,0,0,10400009,0,0,12012009,0,0,0,0,0,0,10210209,0,0,0,0,10810309,0,0,0,0,0,0,0,12011709,11510319
11,104,481.555227190256,1,0,2261225.3251963,2261226.37224892,4,0,1,36,3,0,10610209,31301019,13281349,0,0,0,0,0,0,0,0,0,0,0,0,0,0,10610209,0,0,0,0,0,0,0,0,31301019,0,0,0,0,10100319,0,0,0,0,0,0,-3181030
11,105,547.98948019743,0,0,2261241.46655511,2261242.51362891,5,1,0,22,31,149158341,236728622,231667242,108127884,31510219,10100309,20611219,21110219,11610919,20801409,11701419,10902019,10810609,40411509,30011409,20000319,31802019,0,10901219,40800709,31000619,31800819,11511009,30510319,30000919,-3110040,31411609,30711019,41901009,40810109,11701209,0,0,21701119,21602009,0,11001619,11902019,20010709,21910409
11,106,419.688920956105,0,0,2261244.25482851,2261245.3019,5,1,0,5,0,0,0,0,0,0,0,0,0,-10510401,0,0,0,0,0,0,0,0,0,0,0,0,0,0,0,0,0,0,0,0,0,0,0,0,0,0,0,0,0,0,0
11,107,437.290491070598,0,0,2261246.89015846,2261247.93722301,5,1,0,4,9,72584668,21010519,85033137,52911928,0,0,20001109,-1061031,0,0,0,30410919,21111609,21010519,0,0,0,0,0,0,0,0,31911309,0,11910819,0,41211009,0,0,0,0,0,22011709,0,0,30900219,0,0,0,0
11,108,464.063755702227,0,0,2261249.47841576,2261250.52547724,5,0,0,24,9,73124347,51510928,43001809,72713647,21511219,11602019,0,0,0,0,0,0,40011109,0,0,0,0,0,0,10000509,0,41510419,40910619,0,0,0,0,-2091190,0,0,0,0,0,0,21201709,0,0,20310619,31201319,0
11,109,600.41615832597,1,0,2261252.14905856,2261253.19615045,5,0,1,36,31,240159821,185037013,227953892,230928043,40411009,30601619,31211609,30801109,21610409,21100319,11911619,32011819,20500309,0,31301519,0,30311719,11911209,10100809,30810719,30400619,40200419,31110809,20510009,42010509,11210409,31011219,0,10400319,40000009,41700609,0,42010209,41400519,31611209,30701719,20511109,21511019,41001219,-2181040
11,110,387.130847666413,1,0,2261254.9491314,2261255.99614167,5,0,1,11,0,0,0,0,0,0,0,0,0,0,0,0,0,0,0,-31211691,0,0,0,0,0,0,0,0,0,0,0,0,0,0,0,0,0,0,0,0,0,0,0,0,0
11,111,552.319135982543,0,0,2261257.5020516,2261258.54911461,5,0,0,31,3,73213727,0,0,2150030,0,0,0,0,11412009,21501009,0,40300709,0,0,0,0,0,0,0,0,0,0,0,0,0,0,0,0,0,0,0,0,0,0,-2150030,0,0,0,0,0
11,112,628.519463352859,0,0,2261260.1726686,2261261.21973624,5,0,0,33,9,51711428,82614137,41701319,123633857,20300009,0,0,0,0,0,0,0,31411419,31701309,20001409,0,0,0,0,0,30911419,0,0,0,0,0,41701319,0,0,0,0,0,0,40101219,40111509,41300019,-2121110,0,0,0
11,113,493.10636613518,0,0,2261263.0080004,2261264.0550996,5,0,0,11,3,30110619,1051071,20411109,10712019,0,0,0,30110619,0,0,0,0,0,0,-1051071,0,0,0,0,0,0,0,0,0,0,0,0,0,0,0,20411109,0,0,0,0,10712019,0,0,0,0
11,114,498.253678437322,0,1,2261265.60803096,2261266.6550936,5,1,1,18,3,0,25881810,0,41011838,0,0,0,0,0,0,0,0,0,0,0,0,0,0,0,21810619,0,-4071191,0,0,0,0,0,0,0,0,0,0,0,0,30001719,11010119,0,0,0,0
11,115,502.756182104349,1,0,2261268.34924134,2261269.39636172,5,0,1,10,3,51603428,24002290,0,0,10202009,0,0,0,0,0,41401419,0,0,-2201081,0,21801209,0,0,0,0,0,0,0,0,0,0,0,0,0,0,0,0,0,0,0,0,0,0,0,0
11,116,654.590944759548,0,0,2261271.0316243,2261272.07868885,5,1,0,29,9,31011019,61913238,71511818,63966376,0,0,31011019,0,0,0,0,0,0,31601319,0,0,0,30311919,0,0,0,0,0,0,0,0,40700609,0,0,0,30811209,20011109,-1020130,10911609,0,0,10412009,0,21611519,0
11,117,521.4391076006,0,0,2261273.78458291,2261274.83165017,5,0,0,14,31,127876803,128839393,168052222,190879531,20210709,0,0,21910709,20810709,21011619,21310019,11611619,11011419,31210909,11211209,10100019,20702009,-2090020,0,10501909,21511909,21511409,10001819,31900319,30211919,11112009,20700919,12011619,31711809,20401809,0,31810219,11411619,10011719,30800709,31811309,11611419,11011019,11301309,41110209
11,118,711.338425055146,0,0,2261276.47874798,2261277.52581755,5,0,0,35,19,127124165,114713765,84110737,128938835,0,20300619,0,22001609,12010709,0,0,40810009,32001219,20500119,30600619,21701809,30800009,0,0,0,11111209,0,31900109,0,0,0,0,31800419,20410209,0,0,21502009,10101219,20212019,0,0,20400619,20601509,-4120041,32001419
11,119,496.201066765934,1,0,2261279.32584149,2261280.37289873,5,0,1,15,19,187435894,114435105,105933346,114224556,41411219,11910809,41201109,30000819,0,21011119,0,41900819,0,21201009,10910719,0,30411719,0,-1001120,20510019,0,30400519,20710709,21211509,0,42010209,0,0,22000919,0,0,0,31900919,30610409,0,10901219,0,0,40812009,0
11,120,506.825604476035,0,0,2261281.94940048,2261282.99646812,5,1,0,3,19,154205507,82631737,136135885,195327723,0,0,-1091161,41211419,0,0,41100509,30500409,40302009,0,0,0,0,41010109,0,31510809,0,10110819,41510319,0,11102019,0,42001319,0,10910909,30611319,0,11800719,0,11511709,40401919,0,40400319,11001319,40011319,40200419
11,121,504.453475121409,1,0,2261284.54941719,2261285.59648752,5,1,1,13,31,236450902,231505025,225488041,246858722,21510819,30400419,30111809,0,40311219,21201309,32001909,20401409,40512009,0,31210019,40900809,-4081031,0,40800509,31300819,41700019,41511819,10401009,31010519,20711519,10610619,20011319,41210419,30911719,20610809,40010109,20111009,40510119,41011709,31901719,30901019,40200909,0,31810319,10411919
11,122,453.718314878643,1,0,2261287.20830482,2261288.25534628,5,1,1,9,3,3161160,30111809,41201909,21010219,0,0,0,0,0,0,0,0,-3161160,0,0,0,0,30111809,0,0,0,0,0,0,0,41201909,0,0,0,0,0,0,21010219,0,0,0,0,0,0,0
11,123,713.884171564132,0,0,2261289.77306026,2261290.82008786,5,1,0,12,19,21403528,185914285,152647174,116446484,0,0,10401809,0,11001719,0,0,0,0,30310209,0,-2181030,40601919,0,32000009,0,40310309,40510809,11011009,10011109,0,0,30601609,40101009,40210419,20712019,0,0,41510209,11711619,0,10011109,10401019,0,31111609,11700919
11,124,455.534946173429,1,0,2261292.54953845,2261293.59661302,5,1,1,2,9,74332847,22412018,21020518,23522028,0,-1030000,0,0,41401919,11200719,20700209,0,0,0,0,10400009,0,0,12012009,0,0,0,0,0,0,10210209,0,0,0,0,10810309,0,0,0,0,0,0,0,12011709,11510319
11,125,539.174643810838,0,0,2261295.18485955,2261296.23196337,5,0,0,16,9,126321956,4110021,92114047,71702138,32000119,0,0,21610309,0,31610519,41101009,0,0,0,0,0,0,0,0,-4110021,0,0,0,0,0,10301319,0,0,40801309,41011419,0,0,0,0,30800519,0,40901619,0,0,0
11,126,944.722932297736,1,0,2261297.97316605,2261299.02021174,5,1,1,21,19,173816285,117424675,157536285,81734437,0,0,41000019,31101009,0,20611819,0,40901719,40201719,0,11801719,41800519,0,11810509,11110809,40901119,0,0,30610019,20812019,-2181191,21211409,31300609,0,10810619,40610419,0,20811619,0,0,0,30011109,0,30911709,0,0
11,127,546.239832416177,1,0,2261301.05549342,2261302.10256683,5,1,1,28,31,138847402,206047413,168747502,240905883,12011419,11300409,42001209,10800109,10300809,21111819,0,10910419,20411209,40600119,11301819,20211909,40411009,0,0,31700019,41311419,20511119,0,10001609,21610219,31300909,40911609,11600919,20400909,11010619,21910709,-2150191,10511009,31100009,41310009,41401609,31211609,31910519,20300019,31010909
11,128,569.78212017566,1,0,2261303.73793758,2261304.78500214,5,0,1,20,19,86046594,81813747,127966056,155026365,11610919,11610719,11701809,0,10410419,0,0,20211209,20501519,0,0,0,0,0,30400709,0,40701419,10711619,20100619,-3041181,31111919,0,21311609,41400209,11000519,0,0,41511219,0,40901019,0,20911709,0,41101609,10600809,0
11,129,449.398668017238,1,0,2261306.45557911,2261307.5026479,5,1,1,27,3,52720528,0,45881879,0,0,10910019,0,0,41810509,0,0,0,0,0,0,0,0,0,0,0,0,0,0,0,0,0,41701709,0,0,0,-4180170,0,0,0,0,0,0,0,0,0
11,130,668.689369689673,1,0,2261309.07914888,2261310.12620805,5,0,1,1,31,221437034,124348203,240138522,266272401,-3200151,31400919,32001409,41501509,31910409,0,10910119,40010509,30502009,10610619,20400509,0,20102009,10210319,10011319,0,21301619,31711809,20911319,32011719,41701009,40500519,11011919,30401309,0,31700119,31900609,20111709,40311209,31311909,31702009,31111319,20200709,40910709,10311019,40301809
11,131,578.562695067376,0,0,2261336.90299729,2261337.95006531,6,0,0,16,3,0,14820130,11801909,21200609,0,0,0,0,0,0,0,0,0,11710109,0,0,0,0,0,-3110021,0,0,0,0,0,11801909,0,0,0,0,0,0,0,0,0,21200609,0,0,0,0
11,132,498.022317420691,1,0,2261339.67949743,2261340.7265743,6,1,1,27,3,52720528,0,45881879,0,0,10910019,0,0,41810509,0,0,0,0,0,0,0,0,0,0,0,0,0,0,0,0,0,41701709,0,0,0,-4180170,0,0,0,0,0,0,0,0,0
11,133,656.117314938456,0,0,2261342.24423516,2261343.29130048,6,1,0,13,31,236450902,231505025,225488041,246858722,21510819,30400419,30111809,0,40311219,21201309,32001909,20401409,40512009,0,31210019,40900809,-4081031,0,40800509,31300819,41700019,41511819,10401009,31010519,20711519,10610619,20011319,41210419,30911719,20610809,40010109,20111009,40510119,41011709,31901719,30901019,40200909,0,31810319,10411919
11,134,412.278422620147,1,0,2261345.0560416,2261346.10311001,6,0,1,24,19,114426175,155649493,88035487,103801657,0,30511619,22000909,31001519,0,10200319,20711809,0,0,10401109,30211809,0,41101719,30711919,20701619,0,11611009,10910309,0,30701809,20601109,0,21600009,-3131141,0,0,12001419,0,41400519,0,41800719,20600419,0,0,0,0
11,135,460.511721204966,0,0,2261347.62077779,2261348.66783965,6,0,0,14,31,177946173,227359192,259650202,246539632,31400609,0,30611309,10511009,41911109,30610509,21801219,11100409,0,40001119,20100709,20012019,30610519,-2121160,41200119,21810419,20501319,31001809,41911209,20201919,20600719,0,32011119,21511109,41101209,41411009,40901909,20401219,40701519,0,31000509,11711619,30801319,40011519,41701619,30210309
11,136,420.642854180187,1,0,2261350.23258893,2261351.27964425,6,0,1,27,0,0,0,0,0,0,0,0,0,0,0,0,0,0,0,0,0,0,0,0,0,0,0,0,0,0,0,0,0,0,0,-20910601,0,0,0,0,0,0,0,0,0
11,137,495.379175525159,1,0,2261352.76201419,2261353.80908183,6,0,1,1,3,31900879,0,0,62211628,-1090170,0,0,0,0,0,30810709,0,0,0,0,0,0,0,0,0,0,0,0,0,0,0,0,0,0,0,0,41801619,0,0,0,0,20410009,0,0,0
11,138,458.012169692665,0,0,2261355.39733836,2261356.44440023,6,1,0,2,9,74332847,22412018,21020518,23522028,0,-1030000,0,0,41401919,11200719,20700209,0,0,0,0,10400009,0,0,12012009,0,0,0,0,0,0,10210209,0,0,0,0,10810309,0,0,0,0,0,0,0,12011709,11510319
11,139,464.348626788706,1,0,2261357.9738509,2261359.02091045,6,1,1,28,31,138847402,206047413,168747502,240905883,12011419,11300409,42001209,10800109,10300809,21111819,0,10910419,20411209,40600119,11301819,20211909,40411009,0,0,31700019,41311419,20511119,0,10001609,21610219,31300909,40911609,11600919,20400909,11010619,21910709,-2150191,10511009,31100009,41310009,41401609,31211609,31910519,20300019,31010909
11,140,504.221343435347,0,0,2261360.65621614,2261361.71506589,6,0,0,10,9,52613538,46182068,94535356,31400009,0,0,0,31102019,0,0,0,21511519,0,-4071050,0,21010409,0,0,21100609,0,0,0,0,11601509,0,0,0,0,31311509,41210319,10412019,0,31400009,0,0,0,0,0,0,0
11,141,551.316312979907,1,0,2261363.31513457,2261364.36215678,6,0,1,31,9,134825756,30311119,94321957,14131870,41812009,0,0,10701519,0,40502009,41810219,0,0,0,0,0,30311119,0,0,0,0,0,0,0,0,0,0,21510119,31311419,0,41500419,11001719,0,0,-3130151,0,0,0,0,0
11,142,484.127536416054,0,0,2261366.06811744,2261367.1151281,6,1,0,21,19,173816285,117424675,157536285,81734437,0,0,41000019,31101009,0,20611819,0,40901719,40201719,0,11801719,41800519,0,11810509,11110809,40901119,0,0,30610019,20812019,-2181191,21211409,31300609,0,10810619,40610419,0,20811619,0,0,0,30011109,0,30911709,0,0
11,143,469.518268015236,0,0,2261368.78580709,2261369.83281313,6,0,0,20,31,236846452,229649812,120308613,199867022,20600219,11610319,40111219,0,41301319,10110119,41700619,31010619,40402019,30511919,41310109,21401319,11600919,31011409,21900809,30301919,41611409,0,21311219,-1151020,31110009,11801909,21111619,11710709,10611009,0,11501119,11910919,11210119,41600709,10910609,10910219,31810909,41501919,0,40011619
11,144,604.291945695877,1,0,2261371.42105773,2261372.46811998,6,0,1,35,31,187231112,178028203,201758511,129735004,30811319,31211609,40301319,11201019,0,10601709,31700909,21401319,10001909,0,20801709,31401119,31311109,31101019,30512019,11100509,21800719,0,21901809,30112019,11600709,11310219,41711309,31010209,10501119,11910209,31700909,20401709,12010309,20001809,20900909,10010009,0,21510119,-3190121,21710019
11,145,531.597842462361,0,0,2261374.15055876,2261375.19759329,6,1,0,3,19,154205507,82631737,136135885,195327723,0,0,-1091161,41211419,0,0,41100509,30500409,40302009,0,0,0,0,41010109,0,31510809,0,10110819,41510319,0,11102019,0,42001319,0,10910909,30611319,0,11800719,0,11511709,40401919,0,40400319,11001319,40011319,40200419
11,146,399.908856954426,1,0,2261376.86839238,2261377.91530873,6,1,1,4,9,72584668,21010519,85033137,52911928,0,0,20001109,-1061031,0,0,0,30410919,21111609,21010519,0,0,0,0,0,0,0,0,31911309,0,11910819,0,41211009,0,0,0,0,0,22011709,0,0,30900219,0,0,0,0
11,147,766.431342810392,1,0,2261379.35064375,2261380.39763055,6,1,1,9,3,3161160,30111809,41201909,21010219,0,0,0,0,0,0,0,0,-3161160,0,0,0,0,30111809,0,0,0,0,0,0,0,41201909,0,0,0,0,0,0,21010219,0,0,0,0,0,0,0
11,148,540.509688667953,0,0,2261382.35064183,2261383.39767867,6,0,0,15,19,73423757,121103175,86622985,146325074,31201819,0,0,0,31611019,0,0,10610919,0,20700409,0,41710909,31710509,0,-4170120,11400509,0,11410719,0,10310319,0,11701719,0,11700809,0,41600019,11310119,10810809,30000419,21001409,0,31200619,0,12001109,0,41310709
11,149,378.109916578978,1,1,2261385.1271104,2261386.17396375,6,1,0,18,3,0,25881810,0,41011838,0,0,0,0,0,0,0,0,0,0,0,0,0,0,0,21810619,0,-4071191,0,0,0,0,0,0,0,0,0,0,0,0,30001719,11010119,0,0,0,0
11,150,631.896341219544,1,0,2261387.5742541,2261388.62126053,6,0,1,33,9,63311128,51421928,52312718,84663568,0,0,41710309,0,0,0,0,0,21600819,0,31211219,0,0,0,0,0,0,20210709,0,0,31500809,20811909,0,0,0,0,0,20501419,0,0,0,31311819,-2140121,0,30710209,0
11,151,600.485066417605,1,0,2261390.31539249,2261391.36247399,6,1,1,5,0,0,0,0,0,0,0,0,0,-10510401,0,0,0,0,0,0,0,0,0,0,0,0,0,0,0,0,0,0,0,0,0,0,0,0,0,0,0,0,0,0,0
11,152,540.985500440001,0,0,2261392.98609727,2261394.03314528,6,0,0,11,3,20510309,2011100,10611119,11700719,0,0,0,0,20510309,0,0,0,0,0,-2011100,0,0,0,0,0,0,0,0,0,10611119,0,0,0,0,0,0,0,0,11700719,0,0,0,0,0,0
11,153,514.497491531074,1,0,2261395.668486,2261396.71546818,6,1,1,12,19,21403528,185914285,152647174,116446484,0,0,10401809,0,11001719,0,0,0,0,30310209,0,-2181030,40601919,0,32000009,0,40310309,40510809,11011009,10011109,0,0,30601609,40101009,40210419,20712019,0,0,41510209,11711619,0,10011109,10401019,0,31111609,11700919
11,154,696.080111898482,1,0,2261398.30376975,2261399.35080467,6,1,1,29,9,31011019,61913238,71511818,63966376,0,0,31011019,0,0,0,0,0,0,31601319,0,0,0,30311919,0,0,0,0,0,0,0,0,40700609,0,0,0,30811209,20011109,-1020130,10911609,0,0,10412009,0,21611519,0
11,155,607.850139494985,0,0,2261401.24506898,2261402.29205,6,0,0,36,19,113022037,228735284,187429393,65264468,0,31010809,40010019,42001209,0,0,0,0,0,30810719,41800109,40901319,41801409,0,0,41710809,0,31710919,20800319,0,21600919,41002009,0,40901209,10611609,21501409,31011919,0,21911919,0,0,0,11800909,30500619,0,-1051021
11,156,507.130878511816,0,0,2261404.00973773,2261405.05673992,6,1,0,22,31,149158341,236728622,231667242,108127884,31510219,10100309,20611219,21110219,11610919,20801409,11701419,10902019,10810609,40411509,30011409,20000319,31802019,0,10901219,40800709,31000619,31800819,11511009,30510319,30000919,-3110040,31411609,30711019,41901009,40810109,11701209,0,0,21701119,21602009,0,11001619,11902019,20010709,21910409
11,157,542.989606969059,1,0,2261427.17469157,2261428.22171725,7,0,1,1,19,64883677,176835874,75126556,154615804,-2161030,0,0,11700109,0,0,0,30411619,20610919,30610709,31500909,0,0,42010709,21501119,0,40311009,10901419,0,0,0,11910909,0,0,11701609,20812019,30702019,0,20700019,0,21301219,30600509,20301919,0,30110119,31602019
11,158,456.031930632889,1,0,2261429.92766289,2261430.97476364,7,0,1,14,9,132125836,54061368,21900019,51712938,0,30700809,0,0,40211609,30101609,0,0,31111809,0,0,10310619,0,-2050030,41700719,0,0,0,0,0,0,21900019,0,0,0,0,0,0,0,0,0,0,0,0,20611319,31101619
11,159,494.289735797793,0,0,2261432.59834496,2261433.64532021,7,1,0,4,9,72584668,21010519,85033137,52911928,0,0,20001109,-1061031,0,0,0,30410919,21111609,21010519,0,0,0,0,0,0,0,0,31911309,0,11910819,0,41211009,0,0,0,0,0,22011709,0,0,30900219,0,0,0,0
11,160,600.773787125945,0,0,2261435.1748036,2261436.22184275,7,0,0,33,31,185846594,209738921,205940102,281339203,0,40500219,32011309,20510319,21611919,0,40511909,30700919,0,31601309,11100219,11310009,31600719,12000509,30611709,30302019,10901609,40310819,40902009,20301919,40610509,30201619,10910409,31001209,11310819,20701609,0,31801209,21001309,30211619,40700519,41101519,-4111101,40600609,30201109,41610209
11,161,492.673284839839,1,0,2261437.91596085,2261438.96304851,7,1,1,28,31,138847402,206047413,168747502,240905883,12011419,11300409,42001209,10800109,10300809,21111819,0,10910419,20411209,40600119,11301819,20211909,40411009,0,0,31700019,41311419,20511119,0,10001609,21610219,31300909,40911609,11600919,20400909,11010619,21910709,-2150191,10511009,31100009,41310009,41401609,31211609,31910519,20300019,31010909
11,162,412.823912221938,1,0,2261440.58658402,2261441.63368091,7,0,1,20,3,31211919,0,1030031,53320918,0,0,0,0,0,0,0,31211919,0,0,0,0,0,0,0,0,0,0,0,-1030031,0,0,0,0,0,0,0,0,0,0,11310709,42010209,0,0,0,0
11,163,439.896676689386,0,0,2261443.08082808,2261444.12779909,7,1,0,5,0,0,0,0,0,0,0,0,0,-10510401,0,0,0,0,0,0,0,0,0,0,0,0,0,0,0,0,0,0,0,0,0,0,0,0,0,0,0,0,0,0,0
11,164,433.294596150517,0,0,2261445.7631198,2261446.81018243,7,1,0,9,3,3161160,30111809,41201909,21010219,0,0,0,0,0,0,0,0,-3161160,0,0,0,0,30111809,0,0,0,0,0,0,0,41201909,0,0,0,0,0,0,21010219,0,0,0,0,0,0,0
11,165,440.471808426082,1,0,2261448.31587477,2261449.3631496,7,0,1,11,3,0,25953489,0,30111309,0,0,0,0,0,0,0,0,0,0,-2141151,0,0,0,0,12011419,11800919,0,0,0,0,0,0,0,0,0,0,0,0,0,30111309,0,0,0,0,0
11,166,456.990868318826,1,0,2261450.85730781,2261451.90437622,7,0,1,35,9,52302718,34623447,81812628,54823358,0,0,0,0,0,0,21501509,0,30801209,0,11800419,0,0,0,0,11111719,0,11711309,0,0,40711619,0,0,0,0,41101009,0,0,0,0,0,0,10212009,0,-4100040,40511309
11,167,352.475892286748,0,0,2261453.48084718,2261454.52791751,7,1,0,27,3,52720528,0,45881879,0,0,10910019,0,0,41810509,0,0,0,0,0,0,0,0,0,0,0,0,0,0,0,0,0,41701709,0,0,0,-4180170,0,0,0,0,0,0,0,0,0
11,168,547.113693784922,0,0,2261455.91617758,2261456.96324445,7,1,0,3,19,154205507,82631737,136135885,195327723,0,0,-1091161,41211419,0,0,41100509,30500409,40302009,0,0,0,0,41010109,0,31510809,0,10110819,41510319,0,11102019,0,42001319,0,10910909,30611319,0,11800719,0,11511709,40401919,0,40400319,11001319,40011319,40200419
11,169,509.619266260415,1,0,2261458.64560854,2261459.69268388,7,1,1,22,31,149158341,236728622,231667242,108127884,31510219,10100309,20611219,21110219,11610919,20801409,11701419,10902019,10810609,40411509,30011409,20000319,31802019,0,10901219,40800709,31000619,31800819,11511009,30510319,30000919,-3110040,31411609,30711019,41901009,40810109,11701209,0,0,21701119,21602009,0,11001619,11902019,20010709,21910409
11,170,433.537891600281,0,0,2261461.38690785,2261462.43392043,7,1,0,13,31,236450902,231505025,225488041,246858722,21510819,30400419,30111809,0,40311219,21201309,32001909,20401409,40512009,0,31210019,40900809,-4081031,0,40800509,31300819,41700019,41511819,10401009,31010519,20711519,10610619,20011319,41210419,30911719,20610809,40010109,20111009,40510119,41011709,31901719,30901019,40200909,0,31810319,10411919
11,171,468.395722098649,0,0,2261463.93981727,2261464.98711242,7,0,0,16,31,158030612,230940023,176143674,197328821,21101619,0,11201409,40301919,10700009,22011419,10311809,10601109,31801319,41110119,31111519,12011209,20811409,30700709,41711419,-1181101,21100619,31201919,41301009,40310609,11000009,31310719,0,31211319,0,21010009,0,10301619,11900309,40001019,10401519,31410509,30000109,21302009,10010019,32001709
11,172,513.964705634862,1,0,2261466.62225027,2261467.66925631,7,1,1,2,9,74332847,22412018,21020518,23522028,0,-1030000,0,0,41401919,11200719,20700209,0,0,0,0,10400009,0,0,12012009,0,0,0,0,0,0,10210209,0,0,0,0,10810309,0,0,0,0,0,0,0,12011709,11510319
11,173,422.213494777679,1,0,2261469.33986908,2261470.38696636,7,0,1,36,3,31501519,0,52412718,4051091,0,0,0,0,0,0,31501519,0,0,0,0,0,0,0,0,0,0,0,0,0,41900709,0,0,0,10512009,0,0,0,0,0,0,0,0,0,0,-4051091
11,174,589.831656776369,0,0,2261471.96354395,2261473.01049186,7,1,0,18,3,0,25881810,0,41011838,0,0,0,0,0,0,0,0,0,0,0,0,0,0,0,21810619,0,-4071191,0,0,0,0,0,0,0,0,0,0,0,0,30001719,11010119,0,0,0,0
11,175,477.373781148344,1,0,2261474.72816034,2261475.79876141,7,1,1,12,19,21403528,185914285,152647174,116446484,0,0,10401809,0,11001719,0,0,0,0,30310209,0,-2181030,40601919,0,32000009,0,40310309,40510809,11011009,10011109,0,0,30601609,40101009,40210419,20712019,0,0,41510209,11711619,0,10011109,10401019,0,31111609,11700919
11,176,396.777199115604,0,0,2261477.32818667,2261478.37525469,7,0,0,15,9,42202828,135833116,0,114332427,0,11600909,0,0,0,0,0,30601919,0,30310419,42000219,0,41311119,0,-1101150,0,0,21110209,0,0,0,0,0,0,0,0,0,41010709,0,0,41510609,31811109,0,0,0,0
11,177,959.762971848249,0,0,2261479.92828307,2261480.97528564,7,0,0,31,31,235059551,242239431,208570041,115596357,31110619,30601709,20900319,20100719,30010519,40610719,10002019,40111309,11611619,10100219,32000619,40500219,41211619,21701109,11701719,41811409,11411309,31801209,10711109,42011319,10211609,10810819,20400519,30011519,40700819,21911909,21800419,31111709,0,41611519,-1071201,21000719,0,0,20801209,0
11,178,483.761438634247,1,0,2261483.03413771,2261484.08124538,7,0,1,24,19,134159074,146836654,138535216,72412927,0,0,20311919,21401009,0,22011409,10011409,20311609,40111719,0,0,11400809,31710709,31411609,21201109,0,20211609,30900809,0,21510709,41410609,41211519,0,-4001160,30401219,0,0,0,30710509,0,20500509,21201909,0,0,0,0
11,179,445.579855237156,0,0,2261485.77536502,2261486.82241495,7,0,0,10,19,126136584,114675656,172616395,123336036,31010209,0,31111519,11611319,0,20801419,0,10001909,21600209,-1070200,0,0,0,30601019,0,11002019,30601809,41400609,0,30601919,40402019,41010019,0,30301819,0,0,30300619,0,0,0,0,31412009,20012009,0,30211009,41701009
11,180,373.140981886536,0,0,2261488.30479991,2261489.35186832,7,1,0,21,19,173816285,117424675,157536285,81734437,0,0,41000019,31101009,0,20611819,0,40901719,40201719,0,11801719,41800519,0,11810509,11110809,40901119,0,0,30610019,20812019,-2181191,21211409,31300609,0,10810619,40610419,0,20811619,0,0,0,30011109,0,30911709,0,0
11,181,374.195774551481,1,0,2261490.7636549,2261491.81070482,7,0,1,24,0,0,0,0,0,0,0,0,0,0,0,0,0,0,0,0,0,0,0,0,0,0,0,0,0,0,0,0,-10700891,0,0,0,0,0,0,0,0,0,0,0,0
11,182,501.635945867747,1,0,2261493.37548683,2261494.42251558,7,1,1,29,9,31011019,61913238,71511818,63966376,0,0,31011019,0,0,0,0,0,0,31601319,0,0,0,30311919,0,0,0,0,0,0,0,0,40700609,0,0,0,30811209,20011109,-1020130,10911609,0,0,10412009,0,21611519,0
11,183,622.152979485691,0,0,2261509.51681061,2261510.56388056,8,1,0,27,3,52720528,0,45881879,0,0,10910019,0,0,41810509,0,0,0,0,0,0,0,0,0,0,0,0,0,0,0,0,0,41701709,0,0,0,-4180170,0,0,0,0,0,0,0,0,0
11,184,441.433056257665,1,0,2261512.29330882,2261513.340378,8,0,1,14,3,0,4070000,40001409,42713618,0,0,0,0,0,0,0,0,0,0,0,0,0,-4070000,0,0,0,0,0,0,0,0,40001409,0,0,0,0,0,0,0,0,11801909,0,0,30911709,0
11,185,442.311151884496,1,0,2261514.9874585,2261516.03452228,8,0,1,33,3,50811938,41910019,0,1080160,20710019,30101919,0,0,0,0,0,0,0,0,0,0,41910019,0,0,0,0,0,0,0,0,0,0,0,0,0,0,0,0,0,0,0,-1080160,0,0,0
11,186,612.958571407944,0,0,2261517.57571734,2261518.62278613,8,0,0,24,31,135664893,307053701,173444864,259438001,20010019,30911509,10411119,0,0,20910119,20910109,21600909,10911109,20301709,40411919,41011109,31000919,41412009,40201509,30811709,30401909,31500909,10700709,30201919,40300309,40310119,10610309,-1110080,0,40211419,0,31100419,21501509,40410909,11600119,41110209,41701909,40400209,10100809,21511909
11,187,542.226614430547,0,0,2261520.4346407,2261521.48164943,8,1,0,13,31,236450902,231505025,225488041,246858722,21510819,30400419,30111809,0,40311219,21201309,32001909,20401409,40512009,0,31210019,40900809,-4081031,0,40800509,31300819,41700019,41511819,10401009,31010519,20711519,10610619,20011319,41210419,30911719,20610809,40010109,20111009,40510119,41011709,31901719,30901019,40200909,0,31810319,10411919
11,188,488.35787223652,1,0,2261523.04637869,2261524.09344903,8,1,1,22,31,149158341,236728622,231667242,108127884,31510219,10100309,20611219,21110219,11610919,20801409,11701419,10902019,10810609,40411509,30011409,20000319,31802019,0,10901219,40800709,31000619,31800819,11511009,30510319,30000919,-3110040,31411609,30711019,41901009,40810109,11701209,0,0,21701119,21602009,0,11001619,11902019,20010709,21910409
11,189,455.530710984021,0,0,2261525.70524092,2261526.75228854,8,1,0,2,9,74332847,22412018,21020518,23522028,0,-1030000,0,0,41401919,11200719,20700209,0,0,0,0,10400009,0,0,12012009,0,0,0,0,0,0,10210209,0,0,0,0,10810309,0,0,0,0,0,0,0,12011709,11510319
11,190,568.216483574361,1,0,2261528.39938674,2261529.44646015,8,1,1,29,9,31011019,61913238,71511818,63966376,0,0,31011019,0,0,0,0,0,0,31601319,0,0,0,30311919,0,0,0,0,0,0,0,0,40700609,0,0,0,30811209,20011109,-1020130,10911609,0,0,10412009,0,21611519,0
11,191,384.93811013177,1,0,2261531.14059135,2261532.18765667,8,1,1,9,3,3161160,30111809,41201909,21010219,0,0,0,0,0,0,0,0,-3161160,0,0,0,0,30111809,0,0,0,0,0,0,0,41201909,0,0,0,0,0,0,21010219,0,0,0,0,0,0,0
11,192,317.692359443754,1,0,2261533.57591521,2261534.62298824,8,0,1,10,0,0,0,0,0,0,0,0,0,0,0,0,0,0,-30700101,0,0,0,0,0,0,0,0,0,0,0,0,0,0,0,0,0,0,0,0,0,0,0,0,0,0
11,193,474.715240765363,1,1,2261536.12889007,2261537.17595425,8,0,0,35,19,246938613,40812728,133126314,98595866,31011419,41610719,21711809,40400809,0,0,30201219,40402019,41600619,0,0,0,0,10301119,30511609,0,0,0,10600219,0,11101019,0,10201119,0,40210919,30001319,31011719,21410809,0,0,0,21111409,0,11511519,-3050120,41512009
11,194,479.039122350514,1,0,2261538.75245061,2261539.79951439,8,0,1,16,3,0,12802740,10611719,30301709,0,0,0,0,0,0,0,0,0,0,0,0,0,0,0,-1201021,11601719,0,0,0,0,10611719,0,0,0,0,0,0,0,0,0,0,0,0,0,30301709
11,195,515.610413625836,1,0,2261541.34077066,2261542.38780519,8,1,1,18,3,0,25881810,0,41011838,0,0,0,0,0,0,0,0,0,0,0,0,0,0,0,21810619,0,-4071191,0,0,0,0,0,0,0,0,0,0,0,0,30001719,11010119,0,0,0,0
11,196,499.305392149836,1,0,2261544.02310203,2261545.07016428,8,0,1,20,19,64644865,142653784,55704868,155713765,11011309,0,11111419,0,0,20411109,0,10900919,11210109,10511419,30700309,10310309,0,0,0,40510519,40510909,10110319,30102019,-4180121,0,10011519,0,11411209,0,0,0,30401119,0,0,21511109,22000209,41501319,40300009,0,0
11,197,462.677896488458,0,0,2261546.64667142,2261547.6937252,8,1,0,21,19,173816285,117424675,157536285,81734437,0,0,41000019,31101009,0,20611819,0,40901719,40201719,0,11801719,41800519,0,11810509,11110809,40901119,0,0,30610019,20812019,-2181191,21211409,31300609,0,10810619,40610419,0,20811619,0,0,0,30011109,0,30911709,0,0
11,198,463.187585119158,0,0,2261549.27021694,2261550.31729805,8,0,0,10,31,156936092,203649923,177529093,197247722,10211109,10301109,11600019,11700909,0,20501819,41710709,30500309,20410109,-4190121,20812009,31801709,11910819,20010819,31111609,20811409,32000419,31001009,0,11201309,0,32002009,20910809,21801709,41610619,40000719,10001919,20801709,10710309,30901319,21500819,0,41010909,11000819,40910419,20411419
11,199,463.339259382337,1,0,2261551.78789242,2261552.83496737,8,1,1,4,9,72584668,21010519,85033137,52911928,0,0,20001109,-1061031,0,0,0,30410919,21111609,21010519,0,0,0,0,0,0,0,0,31911309,0,11910819,0,41211009,0,0,0,0,0,22011709,0,0,30900219,0,0,0,0
11,200,550.644556060433,0,0,2261554.50557861,2261555.55264201,8,1,0,28,31,138847402,206047413,168747502,240905883,12011419,11300409,42001209,10800109,10300809,21111819,0,10910419,20411209,40600119,11301819,20211909,40411009,0,0,31700019,41311419,20511119,0,10001609,21610219,31300909,40911609,11600919,20400909,11010619,21910709,-2150191,10511009,31100009,41310009,41401609,31211609,31910519,20300019,31010909
11,201,568.4520797804,0,0,2261557.18795733,2261558.23502496,8,1,0,12,19,21403528,185914285,152647174,116446484,0,0,10401809,0,11001719,0,0,0,0,30310209,0,-2181030,40601919,0,32000009,0,40310309,40510809,11011009,10011109,0,0,30601609,40101009,40210419,20712019,0,0,41510209,11711619,0,10011109,10401019,0,31111609,11700919
11,202,430.437031202018,1,0,2261559.99975376,2261561.04683064,8,1,1,3,19,154205507,82631737,136135885,195327723,0,0,-1091161,41211419,0,0,41100509,30500409,40302009,0,0,0,0,41010109,0,31510809,0,10110819,41510319,0,11102019,0,42001319,0,10910909,30611319,0,11800719,0,11511709,40401919,0,40400319,11001319,40011319,40200419
11,203,435.060027521104,0,0,2261562.62332046,2261563.67036615,8,1,0,5,0,0,0,0,0,0,0,0,0,-10510401,0,0,0,0,0,0,0,0,0,0,0,0,0,0,0,0,0,0,0,0,0,0,0,0,0,0,0,0,0,0,0
11,204,452.251998707652,0,0,2261565.24688831,2261566.29394593,8,0,0,15,19,108034874,56911178,105134256,235956613,21401009,11701409,31500419,0,0,10310909,0,21210219,11910909,0,0,0,0,0,-4201150,31700019,21010009,0,0,10610509,0,0,0,41511719,0,41002009,12010019,30111209,41110919,30900719,31200719,0,42010519,20011409,0,40611119
11,205,672.846948262304,1,0,2261567.91752418,2261568.96456756,8,0,1,31,31,179337312,177356712,238958012,130247874,31812009,21300319,0,21001019,11210719,30300209,11801219,40500609,11411209,10111209,10810719,21110109,32001609,31800609,0,40411319,20010419,11100719,30710719,20900119,11510409,0,42010709,40202019,30700909,31611319,31311809,10601119,21302019,41001309,-4010061,20411219,11911019,11001109,10010019,0
11,206,453.804931603372,1,0,2261570.71753003,2261571.76459459,8,0,1,1,9,74952659,10100519,33403228,73735346,-4150021,0,0,40601519,30201119,0,0,0,0,0,0,10100519,0,0,0,0,0,0,0,21701509,0,0,0,0,0,0,11701719,0,11400609,0,10311219,0,20011509,32012009,0,0
11,207,823.693768586963,0,0,2261573.36465094,2261574.4114835,8,0,0,36,9,43422128,23712028,113641446,42251220,0,0,0,32010619,11411509,0,0,0,0,0,0,0,11910309,0,0,0,0,11801719,0,0,0,0,0,11410419,40810109,20210109,41210809,0,0,0,40201019,0,0,0,0,-2050201
11,208,530.049914028496,0,0,2261576.31758639,2261577.38820286,8,0,0,11,9,23010918,72752118,62821247,32112518,0,0,0,0,11010809,0,12000109,0,0,40012019,-2130090,0,0,0,30610009,0,0,0,0,0,10810419,0,0,0,11810009,0,40200819,0,0,11001109,0,0,0,0,0,21111409
11,209,423.552773892879,1,0,2261597.54136843,2261598.58843337,9,0,1,6,0,0,0,0,0,0,0,0,0,0,-31800291,0,0,0,0,0,0,0,0,0,0,0,0,0,0,0,0,0,0,0,0,0,0,0,0,0,0,0,0,0,0
11,210,577.264606021345,1,0,2261600.08257311,2261601.12964113,9,1,1,28,31,138847402,206047413,168747502,240905883,12011419,11300409,42001209,10800109,10300809,21111819,0,10910419,20411209,40600119,11301819,20211909,40411009,0,0,31700019,41311419,20511119,0,10001609,21610219,31300909,40911609,11600919,20400909,11010619,21910709,-2150191,10511009,31100009,41310009,41401609,31211609,31910519,20300019,31010909
11,211,539.337482769042,0,0,2261602.83554328,2261603.88261284,9,1,0,22,31,149158341,236728622,231667242,108127884,31510219,10100309,20611219,21110219,11610919,20801409,11701419,10902019,10810609,40411509,30011409,20000319,31802019,0,10901219,40800709,31000619,31800819,11511009,30510319,30000919,-3110040,31411609,30711019,41901009,40810109,11701209,0,0,21701119,21602009,0,11001619,11902019,20010709,21910409
11,212,490.81353796646,1,0,2261605.55322792,2261606.60030172,9,1,1,13,31,236450902,231505025,225488041,246858722,21510819,30400419,30111809,0,40311219,21201309,32001909,20401409,40512009,0,31210019,40900809,-4081031,0,40800509,31300819,41700019,41511819,10401009,31010519,20711519,10610619,20011319,41210419,30911719,20610809,40010109,20111009,40510119,41011709,31901719,30901019,40200909,0,31810319,10411919
11,213,579.634041059762,1,0,2261608.25914662,2261609.30621426,9,1,1,29,9,31011019,61913238,71511818,63966376,0,0,31011019,0,0,0,0,0,0,31601319,0,0,0,30311919,0,0,0,0,0,0,0,0,40700609,0,0,0,30811209,20011109,-1020130,10911609,0,0,10412009,0,21611519,0
11,214,602.335573639721,0,0,2261611.04742271,2261612.09447418,9,0,0,35,9,92932047,62222437,33421628,34441140,30910219,0,0,32010419,0,30011409,0,0,0,0,0,21200719,0,0,0,30110809,0,10910909,12010609,0,0,0,21411019,0,0,0,0,30310019,0,0,0,0,0,0,-4131121,0
11,215,474.086984526366,0,0,2261613.83568417,2261614.88273987,9,1,0,12,19,21403528,185914285,152647174,116446484,0,0,10401809,0,11001719,0,0,0,0,30310209,0,-2181030,40601919,0,32000009,0,40310309,40510809,11011009,10011109,0,0,30601609,40101009,40210419,20712019,0,0,41510209,11711619,0,10011109,10401019,0,31111609,11700919
11,216,467.661601025611,0,0,2261616.42400615,2261617.47104607,9,0,0,16,3,21800419,35171270,0,10301809,0,0,0,0,21800419,0,0,0,0,0,0,0,0,0,0,-3161051,32010219,0,0,0,0,0,0,0,0,0,0,0,0,0,0,0,0,0,0,10301809
11,217,547.034007031471,1,0,2261618.98871231,2261620.03574492,9,0,1,24,19,114534865,82932137,136512936,156944254,0,11600719,40201419,10110309,12010709,40611709,0,0,0,0,0,0,41210919,10110409,31610809,0,0,0,10710609,0,0,30310519,0,-2080061,41601419,30810309,21000019,0,21010409,31700809,31911409,20210609,0,20500009,31611009,0
11,218,565.546009689569,0,0,2261621.67118227,2261622.71812749,9,1,0,27,3,52720528,0,45881879,0,0,10910019,0,0,41810509,0,0,0,0,0,0,0,0,0,0,0,0,0,0,0,0,0,41701709,0,0,0,-4180170,0,0,0,0,0,0,0,0,0
11,219,997.466048691422,0,0,2261624.41230988,2261625.45933671,9,1,0,3,19,154205507,82631737,136135885,195327723,0,0,-1091161,41211419,0,0,41100509,30500409,40302009,0,0,0,0,41010109,0,31510809,0,10110819,41510319,0,11102019,0,42001319,0,10910909,30611319,0,11800719,0,11511709,40401919,0,40400319,11001319,40011319,40200419
11,220,434.842524118721,0,0,2261627.49467112,2261628.54173607,9,1,0,2,9,74332847,22412018,21020518,23522028,0,-1030000,0,0,41401919,11200719,20700209,0,0,0,0,10400009,0,0,12012009,0,0,0,0,0,0,10210209,0,0,0,0,10810309,0,0,0,0,0,0,0,12011709,11510319
11,221,439.500936772674,1,0,2261630.11826207,2261631.16530122,9,1,1,4,9,72584668,21010519,85033137,52911928,0,0,20001109,-1061031,0,0,0,30410919,21111609,21010519,0,0,0,0,0,0,0,0,31911309,0,11910819,0,41211009,0,0,0,0,0,22011709,0,0,30900219,0,0,0,0
11,222,462.959303054959,0,0,2261632.74179181,2261633.78885906,9,1,0,5,0,0,0,0,0,0,0,0,0,-10510401,0,0,0,0,0,0,0,0,0,0,0,0,0,0,0,0,0,0,0,0,0,0,0,0,0,0,0,0,0,0,0
11,223,571.417049504817,1,0,2261635.28299379,2261636.33006451,9,0,1,33,31,236446432,259836711,205847673,169036424,30010319,31411519,30410809,21001519,21900019,41001809,30700119,30010319,0,30600709,11600809,11511419,41200519,11711309,30500809,41200109,41210709,40300319,0,30501109,20410009,31210809,41711709,30100709,21911819,0,30001509,20410009,10700309,10110019,31811809,41300209,-3191041,10602009,40911019,0
11,224,395.384025759995,1,0,2261637.9300893,2261638.97715348,9,1,1,9,3,3161160,30111809,41201909,21010219,0,0,0,0,0,0,0,0,-3161160,0,0,0,0,30111809,0,0,0,0,0,0,0,41201909,0,0,0,0,0,0,21010219,0,0,0,0,0,0,0
11,225,528.134348802269,1,0,2261640.45961157,2261641.50659644,9,1,1,21,19,173816285,117424675,157536285,81734437,0,0,41000019,31101009,0,20611819,0,40901719,40201719,0,11801719,41800519,0,11810509,11110809,40901119,0,0,30610019,20812019,-2181191,21211409,31300609,0,10810619,40610419,0,20811619,0,0,0,30011109,0,30911709,0,0
11,226,443.582677748054,0,0,2261643.23603818,2261644.28309619,9,0,0,15,9,61301028,4040030,105025366,72622147,0,30700219,0,0,30600809,0,0,0,0,0,0,0,0,0,-4040030,0,0,0,0,20512009,41701519,0,0,31411319,0,11400519,0,0,0,0,21201719,0,0,10210219,41210209,0
11,227,630.77687472105,0,0,2261645.90665827,2261646.95372244,9,0,0,31,19,124556665,156749364,83832375,97621838,0,31612009,10911619,40810819,30311009,0,0,0,10911209,31011409,0,31502009,41811809,0,0,20301809,20910819,11211509,0,10710519,0,21100719,0,10010309,0,30800619,11210209,0,0,20411409,-4200101,32010209,0,41000119,0,0
11,228,477.198624052107,1,0,2261648.68315301,2261649.73022373,9,0,1,20,31,219545984,201456702,241030842,210717601,31600709,41611919,0,41810519,0,41911409,41400209,21211219,0,0,31111619,21410309,21700109,42011509,11401709,21701219,11110019,41010209,41100509,-2190020,10311819,11401319,40800819,41801709,30701909,31311419,31411319,41000919,21501309,10401609,21700409,10700719,21300509,31210809,31400709,21500609
11,229,432.257126551121,1,0,2261651.38906863,2261652.43612241,9,0,1,14,3,0,22591949,32001109,30202009,0,0,0,0,0,0,0,0,0,0,0,0,0,-1191040,0,0,0,21400909,0,0,0,0,0,32001109,0,0,0,30202009,0,0,0,0,0,0,0,0
11,230,444.487336091697,1,0,2261654.04792123,2261655.09499157,9,0,1,11,19,104436775,126558614,136827583,40600809,10110809,21101419,0,0,11911519,0,0,31102019,30211009,10411609,-1130150,20502009,21401709,0,11301019,0,31700609,30111509,21400509,0,0,40511919,30601809,10501309,10500409,11311319,12000309,0,0,0,40600809,0,0,0,0,0
11,231,404.381718486547,0,0,2261656.54207522,2261657.58913977,9,0,0,10,9,32501428,86310967,61600928,60111538,0,20500619,0,0,0,0,0,12000809,0,-3000020,30800409,0,31000219,21510319,0,0,0,0,30200909,0,0,0,31400019,0,0,0,0,0,0,0,0,0,40111419,0,0,20000119
11,232,557.191586587578,0,0,2261659.14210078,2261660.18917688,9,1,0,18,3,0,25881810,0,41011838,0,0,0,0,0,0,0,0,0,0,0,0,0,0,0,21810619,0,-4071191,0,0,0,0,0,0,0,0,0,0,0,0,30001719,11010119,0,0,0,0
11,233,529.079042840749,0,0,2261661.89507325,2261662.94214243,9,0,0,1,3,31670979,0,0,52312128,-1060170,0,30610809,0,0,0,0,0,0,0,0,0,0,0,0,0,0,0,0,0,0,0,0,0,0,0,0,0,0,0,0,0,40512019,0,0,11800109
11,234,625.950234010816,1,0,2261664.68334319,2261665.73045047,9,0,1,36,31,212167002,217539182,215366792,178688994,21710709,12010309,31010019,11910209,0,41701719,31011919,41810409,21001709,0,41411009,10701909,40411209,40500619,21311109,11600809,40800709,10801809,30810309,11611009,30110719,41400509,10412019,40500909,0,10210809,40310509,41200719,11011719,0,31400809,30102019,31810909,10100819,20901919,-2160081
11,235,398.200400173664,1,0,2261673.60108704,2261674.64816815,10,0,1,16,3,30401619,34121130,0,21200409,0,0,0,0,0,30401619,0,0,0,0,0,0,30011109,0,0,-4110021,0,0,0,0,0,0,0,0,0,0,0,0,0,0,0,0,0,0,0,21200409
11,236,349.589069839567,1,0,2261676.23647627,2261677.28348424,10,1,1,9,3,3161160,30111809,41201909,21010219,0,0,0,0,0,0,0,0,-3161160,0,0,0,0,30111809,0,0,0,0,0,0,0,41201909,0,0,0,0,0,0,21010219,0,0,0,0,0,0,0
11,237,412.838925607502,0,0,2261678.64821511,2261679.69532625,10,1,0,21,19,173816285,117424675,157536285,81734437,0,0,41000019,31101009,0,20611819,0,40901719,40201719,0,11801719,41800519,0,11810509,11110809,40901119,0,0,30610019,20812019,-2181191,21211409,31300609,0,10810619,40610419,0,20811619,0,0,0,30011109,0,30911709,0,0
11,238,435.143563896418,0,0,2261681.30706617,2261682.35413266,10,0,0,15,3,21201009,23812869,11700109,0,0,0,0,0,21201009,0,0,0,0,0,0,21811819,0,0,-2001050,0,0,0,0,0,0,0,11700109,0,0,0,0,0,0,0,0,0,0,0,0,0
11,239,420.883839949965,1,0,2261683.90709558,2261684.95416168,10,1,1,5,0,0,0,0,0,0,0,0,0,-10510401,0,0,0,0,0,0,0,0,0,0,0,0,0,0,0,0,0,0,0,0,0,0,0,0,0,0,0,0,0,0,0
11,240,512.434870470315,1,0,2261686.48360542,2261687.5306642,10,1,1,2,9,74332847,22412018,21020518,23522028,0,-1030000,0,0,41401919,11200719,20700209,0,0,0,0,10400009,0,0,12012009,0,0,0,0,0,0,10210209,0,0,0,0,10810309,0,0,0,0,0,0,0,12011709,11510319
11,241,551.87951028347,0,0,2261689.21304215,2261690.26010363,10,1,0,18,3,0,25881810,0,41011838,0,0,0,0,0,0,0,0,0,0,0,0,0,0,0,21810619,0,-4071191,0,0,0,0,0,0,0,0,0,0,0,0,30001719,11010119,0,0,0,0
11,242,418.036668561399,1,0,2261692.01307341,2261693.06017916,10,0,1,20,3,40100319,0,34561259,10400119,40100319,0,0,0,0,0,0,0,0,0,0,0,0,0,0,0,0,0,0,-4051140,0,0,0,0,30510119,0,0,10400119,0,0,0,0,0,0,0,0
11,243,558.308358769864,0,0,2261694.63663972,2261695.68370659,10,0,0,36,9,64513947,61520638,51913818,57422189,0,0,0,21611419,0,11401119,0,0,31501409,0,0,0,0,30910419,0,30610219,0,0,0,0,0,11701809,0,0,40212009,0,0,0,11500309,0,0,0,41811809,0,0,-4110071
11,244,490.036302246153,0,0,2261697.42491658,2261698.47197306,10,0,0,14,31,147026903,190329012,248047992,195329992,11301909,0,20910619,0,21500619,10010209,21802009,41000819,20500719,10400019,31800309,10510919,21901719,-3181170,31110519,10401219,30111619,40911519,10000719,41301109,40411009,31211009,30611609,40901609,0,41600719,12010209,30310309,31001409,20902009,40000719,0,10601809,31311809,21200509,10001419
11,245,535.103681497276,1,0,2261700.03669462,2261701.0837611,10,0,1,33,31,165826903,189656241,231347911,155016965,0,10800119,10601509,31101309,31111609,0,10200019,41310919,30701419,21700419,20311009,11400519,11510709,21111619,30010019,11100619,31200319,31311009,11510119,41901609,41900319,30011919,22000009,20500609,31710409,21311609,10501309,20710509,30710119,40211509,0,0,-1171201,10800709,20401309,31011609
11,246,411.496566608548,1,0,2261702.64849767,2261703.69555761,10,0,1,8,0,0,0,0,0,0,0,0,0,0,0,0,-22001301,0,0,0,0,0,0,0,0,0,0,0,0,0,0,0,0,0,0,0,0,0,0,0,0,0,0,0,0
11,247,536.438341252506,0,0,2261705.30735028,2261706.35440944,10,0,0,24,9,72523927,63323137,57493598,21601209,0,0,0,0,20711909,0,21201109,30610909,0,21100009,0,10411409,0,31811719,0,0,0,0,0,0,0,0,0,-4071070,21812009,0,31610519,0,21601209,0,0,0,0,0,0,0
11,248,760.833240579814,0,0,2261708.02503877,2261709.07214721,10,0,0,31,9,71824466,81524647,41210009,22842809,0,0,0,30511319,10101619,10300909,0,20910619,0,11210919,0,0,0,40302019,0,0,30011709,0,0,41210009,0,0,0,0,0,0,0,0,0,0,-2041200,0,0,0,0,20801609
11,249,600.289506372064,0,0,2261710.84859923,2261711.89566263,10,0,0,1,31,171538373,208829432,167216532,230649802,-4191170,31501119,11510609,31310219,0,10211709,41010619,11601419,30201509,30300219,21411319,0,11401719,40001309,21401419,11911909,41400119,31001419,30501219,10200819,0,42011609,11300909,20100719,21500119,21601019,10000119,11400309,41411609,0,41611709,10001919,11701809,31610819,41410219,41501409
11,250,438.498113770038,1,0,2261713.63685607,2261714.6841901,10,1,1,22,31,149158341,236728622,231667242,108127884,31510219,10100309,20611219,21110219,11610919,20801409,11701419,10902019,10810609,40411509,30011409,20000319,31802019,0,10901219,40800709,31000619,31800819,11511009,30510319,30000919,-3110040,31411609,30711019,41901009,40810109,11701209,0,0,21701119,21602009,0,11001619,11902019,20010709,21910409
11,251,529.567558318377,0,0,2261716.2721814,2261717.31925173,10,0,0,35,19,94735266,166624404,73123166,167755265,21010819,0,0,0,30411419,11512019,0,0,31801009,10710019,0,41702009,0,11310419,21800519,0,40501219,40600219,10100919,10911319,0,41510819,0,0,0,10600109,0,32001419,20210609,0,41411709,0,30200309,40810209,-3121010,0
11,252,448.743079788983,1,0,2261718.9310594,2261719.97811395,10,0,1,10,19,62131557,94853057,154544384,176905784,0,40610019,0,10011219,0,0,0,0,11510319,-2140021,30110009,0,0,0,10900809,41401609,10300609,0,0,40511109,20800309,20410119,20511209,0,21800019,0,30511619,0,0,41300809,31900419,0,30100909,30001219,11601419,32001009
11,253,408.398400992155,0,0,2261721.51937907,2261722.56636856,10,1,0,3,19,154205507,82631737,136135885,195327723,0,0,-1091161,41211419,0,0,41100509,30500409,40302009,0,0,0,0,41010109,0,31510809,0,10110819,41510319,0,11102019,0,42001319,0,10910909,30611319,0,11800719,0,11511709,40401919,0,40400319,11001319,40011319,40200419
11,254,386.495276819915,1,0,2261724.1310932,2261725.17816739,10,1,1,4,9,72584668,21010519,85033137,52911928,0,0,20001109,-1061031,0,0,0,30410919,21111609,21010519,0,0,0,0,0,0,0,0,31911309,0,11910819,0,41211009,0,0,0,0,0,22011709,0,0,30900219,0,0,0,0
11,255,479.111109860241,0,0,2261726.70759919,2261727.75466182,10,1,0,29,9,31011019,61913238,71511818,63966376,0,0,31011019,0,0,0,0,0,0,31601319,0,0,0,30311919,0,0,0,0,0,0,0,0,40700609,0,0,0,30811209,20011109,-1020130,10911609,0,0,10412009,0,21611519,0
11,256,445.046684704721,0,0,2261729.26056674,2261730.30763207,10,1,0,13,31,236450902,231505025,225488041,246858722,21510819,30400419,30111809,0,40311219,21201309,32001909,20401409,40512009,0,31210019,40900809,-4081031,0,40800509,31300819,41700019,41511819,10401009,31010519,20711519,10610619,20011319,41210419,30911719,20610809,40010109,20111009,40510119,41011709,31901719,30901019,40200909,0,31810319,10411919
11,257,472.370058298111,1,0,2261731.87236056,2261732.91943166,10,1,1,27,3,52720528,0,45881879,0,0,10910019,0,0,41810509,0,0,0,0,0,0,0,0,0,0,0,0,0,0,0,0,0,41701709,0,0,0,-4180170,0,0,0,0,0,0,0,0,0
11,258,600.627887062728,1,0,2261734.44890273,2261735.49593611,10,1,1,12,19,21403528,185914285,152647174,116446484,0,0,10401809,0,11001719,0,0,0,0,30310209,0,-2181030,40601919,0,32000009,0,40310309,40510809,11011009,10011109,0,0,30601609,40101009,40210419,20712019,0,0,41510209,11711619,0,10011109,10401019,0,31111609,11700919
11,259,494.382896460593,0,0,2261737.19007577,2261738.23713994,10,1,0,28,31,138847402,206047413,168747502,240905883,12011419,11300409,42001209,10800109,10300809,21111819,0,10910419,20411209,40600119,11301819,20211909,40411009,0,0,31700019,41311419,20511119,0,10001609,21610219,31300909,40911609,11600919,20400909,11010619,21910709,-2150191,10511009,31100009,41310009,41401609,31211609,31910519,20300019,31010909
11,260,366.305999457836,1,0,2261739.77833615,2261740.82540764,10,0,1,11,19,63612347,118364697,128045574,173226074,40111119,12000209,0,11501019,0,0,0,0,0,0,-3151041,41711409,0,11600519,31801109,0,0,30100619,20611009,21000209,42000719,10811809,0,0,22011609,0,11610219,0,10210509,20210019,40701709,40600919,21002009,0,0,40500909
11,261,434.162682853639,1,0,2261745.43722609,2261746.48429989,11,0,1,20,0,0,0,0,0,0,0,0,0,0,0,0,0,0,0,0,0,0,0,0,0,0,0,0,-11200491,0,0,0,0,0,0,0,0,0,0,0,0,0,0,0,0
11,262,435.235569253564,0,0,2261747.99020288,2261749.0372736,11,1,0,21,19,173816285,117424675,157536285,81734437,0,0,41000019,31101009,0,20611819,0,40901719,40201719,0,11801719,41800519,0,11810509,11110809,40901119,0,0,30610019,20812019,-2181191,21211409,31300609,0,10810619,40610419,0,20811619,0,0,0,30011109,0,30911709,0,0
11,263,611.83179076761,1,0,2261750.57846596,2261751.62553706,11,0,1,11,19,82313347,148616095,193906184,174244875,40710009,11101319,0,0,0,0,0,30502019,0,31400709,-2190020,10901519,41201819,0,0,0,21711109,41210919,40001309,20201619,0,40100509,32000719,30500209,31101819,0,0,40301019,41710819,0,30710709,40310809,0,0,21211519,0
11,264,503.400606568903,0,0,2261753.26085623,2261754.30792117,11,1,0,28,31,138847402,206047413,168747502,240905883,12011419,11300409,42001209,10800109,10300809,21111819,0,10910419,20411209,40600119,11301819,20211909,40411009,0,0,31700019,41311419,20511119,0,10001609,21610219,31300909,40911609,11600919,20400909,11010619,21910709,-2150191,10511009,31100009,41310009,41401609,31211609,31910519,20300019,31010909
11,265,445.304993074387,1,0,2261755.90794173,2261756.95501091,11,1,1,2,9,74332847,22412018,21020518,23522028,0,-1030000,0,0,41401919,11200719,20700209,0,0,0,0,10400009,0,0,12012009,0,0,0,0,0,0,10210209,0,0,0,0,10810309,0,0,0,0,0,0,0,12011709,11510319
11,266,456.991252955049,0,0,2261758.48443925,2261759.53152536,11,0,0,16,3,41701719,31332679,10800809,0,0,0,0,0,41701719,0,0,0,0,0,0,0,0,0,0,-1121060,0,30211619,10800809,0,0,0,0,0,0,0,0,0,0,0,0,0,0,0,0,0
11,267,525.92736762017,0,0,2261761.08451793,2261762.13154091,11,1,0,27,3,52720528,0,45881879,0,0,10910019,0,0,41810509,0,0,0,0,0,0,0,0,0,0,0,0,0,0,0,0,0,41701709,0,0,0,-4180170,0,0,0,0,0,0,0,0,0
11,268,530.242779757828,1,0,2261763.81392002,2261764.86119361,11,1,1,13,31,236450902,231505025,225488041,246858722,21510819,30400419,30111809,0,40311219,21201309,32001909,20401409,40512009,0,31210019,40900809,-4081031,0,40800509,31300819,41700019,41511819,10401009,31010519,20711519,10610619,20011319,41210419,30911719,20610809,40010109,20111009,40510119,41011709,31901719,30901019,40200909,0,31810319,10411919
11,269,428.553801961243,1,0,2261766.51982216,2261767.56689596,11,1,1,9,3,3161160,30111809,41201909,21010219,0,0,0,0,0,0,0,0,-3161160,0,0,0,0,30111809,0,0,0,0,0,0,0,41201909,0,0,0,0,0,0,21010219,0,0,0,0,0,0,0
11,270,356.224641669542,1,0,2261769.16692422,2261770.2139907,11,0,1,10,3,10711519,42320180,10810009,0,0,0,0,0,0,10711519,0,0,0,-2120061,40200119,0,0,0,0,0,0,0,0,0,10810009,0,0,0,0,0,0,0,0,0,0,0,0,0,0,0
11,271,928.658896125853,1,0,2261771.59053179,2261772.63756709,11,0,1,24,19,102135966,93433056,89495075,146734674,30810719,0,0,30102019,0,20711409,0,0,20511819,40100019,0,0,0,12011609,21111119,0,0,20210309,11801609,10810019,10700419,0,41811419,-3161200,11210409,0,0,11100319,11110709,11910309,31501609,40801209,40310519,0,0,0
11,272,531.855766195804,1,0,2261774.75522541,2261775.80229227,11,1,1,29,9,31011019,61913238,71511818,63966376,0,0,31011019,0,0,0,0,0,0,31601319,0,0,0,30311919,0,0,0,0,0,0,0,0,40700609,0,0,0,30811209,20011109,-1020130,10911609,0,0,10412009,0,21611519,0
11,273,675.233706366271,0,0,2261777.37878864,2261778.42584511,11,1,0,4,9,72584668,21010519,85033137,52911928,0,0,20001109,-1061031,0,0,0,30410919,21111609,21010519,0,0,0,0,0,0,0,0,31911309,0,11910819,0,41211009,0,0,0,0,0,22011709,0,0,30900219,0,0,0,0
11,274,574.670739006251,0,0,2261780.14352321,2261781.19059162,11,0,0,31,9,40211419,83003147,61212028,92023538,0,0,0,0,0,40211419,0,0,0,42002009,0,0,0,20400419,20600719,0,0,0,30611509,0,0,0,0,0,30600519,0,0,0,40611019,40100309,-1101201,0,0,0,0,10211009
11,275,622.516767121851,1,0,2261782.83767673,2261783.88476977,11,0,1,20,31,176559093,172258422,211225253,239247802,20700519,40410919,21101709,20711109,41411609,11511509,0,0,20711719,21311619,10710009,31911219,22011809,11810619,0,11601909,41000719,21900519,30201309,-3090151,31000019,31910709,10110309,40110309,31601319,21401119,11800009,40401209,20901509,31411009,41712009,12010419,21000619,40910909,30900119,0
11,276,688.538726884872,0,0,2261785.60240976,2261786.64947855,11,0,0,35,31,247750351,235546583,146568802,159615333,42000719,30511819,30610619,20001019,10211809,41500819,31301319,11000619,30611609,40700609,0,30501209,40210719,0,40901809,20712019,40610109,21910109,12000609,41111009,20710619,20610719,21211009,10101319,10611809,0,10211709,20311519,30510919,0,10200109,10411619,21110109,21410009,-4050140,41610909
11,277,514.765424188226,0,0,2261788.35538378,2261789.40245296,11,0,0,15,19,135524946,128243515,167815484,93243856,41411509,0,0,0,40901109,31511309,21701019,0,0,41100209,0,11410019,41501109,10400019,-2130140,21702019,0,0,10600319,0,0,0,30902019,31401109,31010709,42000719,21900609,0,10810419,20111109,0,0,0,20411409,41910919,0
11,278,366.930021438748,1,0,2261790.96722572,2261792.01425216,11,1,1,18,3,0,25881810,0,41011838,0,0,0,0,0,0,0,0,0,0,0,0,0,0,0,21810619,0,-4071191,0,0,0,0,0,0,0,0,0,0,0,0,30001719,11010119,0,0,0,0
11,279,739.5518287085,0,0,2261793.46132427,2261794.50840538,11,0,0,1,31,209637614,228747612,199146303,310746461,-1071041,30111709,21210309,0,22010109,32010709,40411819,21101709,41710209,21811419,30110719,0,30110809,31501919,31810209,11700309,30900809,40801419,0,30910619,0,40301409,31811019,21801419,20810709,31910809,21600319,41511119,31900509,21500719,41101019,40910019,10100019,41711519,40710419,41301119
11,280,487.79775435105,0,0,2261796.41429782,2261797.46137162,11,1,0,3,19,154205507,82631737,136135885,195327723,0,0,-1091161,41211419,0,0,41100509,30500409,40302009,0,0,0,0,41010109,0,31510809,0,10110819,41510319,0,11102019,0,42001319,0,10910909,30611319,0,11800719,0,11511709,40401919,0,40400319,11001319,40011319,40200419
11,281,418.234538752586,0,0,2261799.14374687,2261800.19081104,11,0,0,14,9,62122347,41811950,31213418,73913447,0,0,0,41210019,10010919,10901409,0,0,0,0,40801809,0,0,-1010141,0,0,0,0,0,11001909,0,20211509,0,0,0,0,0,41911219,0,21901809,0,0,0,0,0,10100419
11,282,510.702161118388,0,0,2261801.77911839,2261802.82614214,11,1,0,22,31,149158341,236728622,231667242,108127884,31510219,10100309,20611219,21110219,11610919,20801409,11701419,10902019,10810609,40411509,30011409,20000319,31802019,0,10901219,40800709,31000619,31800819,11511009,30510319,30000919,-3110040,31411609,30711019,41901009,40810109,11701209,0,0,21701119,21602009,0,11001619,11902019,20010709,21910409
11,283,514.208385720849,1,0,2261804.50852086,2261805.55558735,11,0,1,33,3,0,10400719,11200909,43212090,0,0,0,0,0,0,0,0,0,0,0,0,0,0,0,10400719,0,0,0,0,0,0,0,0,11200909,0,0,0,0,0,0,0,-3200081,40012009,0,0
11,284,633.827690035105,1,1,2261807.08506227,2261808.1320864,11,0,0,36,9,33012638,73912418,21600409,135674557,0,0,0,0,22011919,0,0,11000719,0,32011909,0,41900509,0,0,0,0,0,0,0,0,21600409,0,0,0,0,0,0,0,40010819,40701709,0,0,0,31910819,20911009,-2140201
11,285,690.221776254475,1,0,2261809.95563685,2261811.00270372,11,1,1,12,19,21403528,185914285,152647174,116446484,0,0,10401809,0,11001719,0,0,0,0,30310209,0,-2181030,40601919,0,32000009,0,40310309,40510809,11011009,10011109,0,0,30601609,40101009,40210419,20712019,0,0,41510209,11711619,0,10011109,10401019,0,31111609,11700919
11,286,405.241336207837,1,0,2261812.76747371,2261813.81450131,11,1,1,5,0,0,0,0,0,0,0,0,0,-10510401,0,0,0,0,0,0,0,0,0,0,0,0,0,0,0,0,0,0,0,0,0,0,0,0,0,0,0,0,0,0,0
11,287,559.479025192559,1,0,2261839.80305142,2261840.85011944,12,1,1,29,9,31011019,61913238,71511818,63966376,0,0,31011019,0,0,0,0,0,0,31601319,0,0,0,30311919,0,0,0,0,0,0,0,0,40700609,0,0,0,30811209,20011109,-1020130,10911609,0,0,10412009,0,21611519,0
11,288,485.785948112607,0,0,2261842.4266158,2261843.47370653,12,1,0,3,19,154205507,82631737,136135885,195327723,0,0,-1091161,41211419,0,0,41100509,30500409,40302009,0,0,0,0,41010109,0,31510809,0,10110819,41510319,0,11102019,0,42001319,0,10910909,30611319,0,11800719,0,11511709,40401919,0,40400319,11001319,40011319,40200419
11,289,433.29844577238,0,0,2261845.00315297,2261846.05018904,12,0,0,16,19,32012528,126826986,154337293,157214755,0,21500719,0,0,0,0,0,10511809,0,0,10511119,21601219,40010109,21301919,31211519,-2191101,0,0,20100809,10001419,0,30510119,21510209,11002019,0,21211609,40001109,30100909,32000509,0,31710409,0,31601109,0,31801819,0
11,290,323.261204641312,1,0,2261847.55608703,2261848.60314927,12,0,1,10,31,248637232,198356632,219160121,189043474,41701319,40511619,41500619,40400009,21610319,0,11201119,21511209,30201019,-2010140,20710809,41000419,10600909,30700409,30910419,11201409,40411609,10810509,21301419,21811909,10500619,40211419,10012009,11900219,41710309,30200509,31511709,21510009,21310309,31911109,0,0,41600709,40911119,31800219,0
11,291,481.294608674943,1,0,2261849.95611074,2261851.003183,12,1,1,28,31,138847402,206047413,168747502,240905883,12011419,11300409,42001209,10800109,10300809,21111819,0,10910419,20411209,40600119,11301819,20211909,40411009,0,0,31700019,41311419,20511119,0,10001609,21610219,31300909,40911609,11600919,20400909,11010619,21910709,-2150191,10511009,31100009,41310009,41401609,31211609,31910519,20300019,31010909
11,292,446.007546968758,1,0,2261852.6856287,2261853.73262743,12,1,1,12,19,21403528,185914285,152647174,116446484,0,0,10401809,0,11001719,0,0,0,0,30310209,0,-2181030,40601919,0,32000009,0,40310309,40510809,11011009,10011109,0,0,30601609,40101009,40210419,20712019,0,0,41510209,11711619,0,10011109,10401019,0,31111609,11700919
11,293,730.185728520155,0,0,2261855.26205654,2261856.30912302,12,0,0,35,31,246858632,206526793,225755682,189947723,20411519,40510609,40301919,31510119,30801219,20900709,42011819,0,20410719,0,30910719,30011309,20801109,0,32000109,11400319,41401919,40001309,0,20800309,40210419,40501709,41501409,40610309,11710509,20010309,10410709,30000819,31401519,20710619,11701919,31400119,30911119,21301419,-2110081,10410109
11,294,409.990984480828,1,0,2261858.15621191,2261859.20327454,12,0,1,24,9,63125157,0,57072888,42412447,41811319,11111919,0,10201919,0,0,0,0,0,0,0,0,0,0,0,0,0,0,10601009,0,0,0,11100519,-4170041,0,31201319,0,10901119,21411109,0,0,10100219,0,0,0,0
11,295,650.708612985909,0,0,2261860.74452773,2261861.79153492,12,0,0,33,19,184424174,164644374,63001757,95804407,21200309,0,31411409,0,40800009,0,30311809,30300119,30400519,30001109,0,20911319,0,20901009,30210419,40810309,0,21810209,31000119,20401019,11600619,0,0,0,0,0,0,0,40411709,10510209,0,10901709,-3170061,0,30810719,0
11,296,523.730010259897,1,0,2261863.63865384,2261864.68569607,12,1,1,18,3,0,25881810,0,41011838,0,0,0,0,0,0,0,0,0,0,0,0,0,0,0,21810619,0,-4071191,0,0,0,0,0,0,0,0,0,0,0,0,30001719,11010119,0,0,0,0
11,297,462.719472125173,1,0,2261866.34454405,2261867.39160668,12,1,1,4,9,72584668,21010519,85033137,52911928,0,0,20001109,-1061031,0,0,0,30410919,21111609,21010519,0,0,0,0,0,0,0,0,31911309,0,11910819,0,41211009,0,0,0,0,0,22011709,0,0,30900219,0,0,0,0
11,298,817.002894356847,0,0,2261868.95634326,2261870.00344708,12,0,0,31,31,147745932,204938412,229039802,208150763,10200319,41710019,21301419,10611309,21900519,10501009,21310719,10210619,0,41200219,30810319,0,10611609,41501709,30010319,10201209,30602009,10001019,10111519,41401809,41711719,0,11900809,20311719,30800609,30800809,42000809,30601209,0,40510709,-2001190,30711509,30101609,12011809,20511419,41701309
11,299,442.363891750574,0,0,2261871.83872844,2261872.88577645,12,1,0,21,19,173816285,117424675,157536285,81734437,0,0,41000019,31101009,0,20611819,0,40901719,40201719,0,11801719,41800519,0,11810509,11110809,40901119,0,0,30610019,20812019,-2181191,21211409,31300609,0,10810619,40610419,0,20811619,0,0,0,30011109,0,30911709,0,0
11,300,359.533766284585,0,0,2261874.34464414,2261875.39169946,12,0,0,32,0,0,0,0,0,0,0,0,0,0,0,0,0,0,0,0,0,0,0,0,0,0,0,0,0,0,0,0,0,0,0,0,0,0,0,0,-30801501,0,0,0,0
11,301,394.311524461955,1,1,2261876.83878734,2261877.8858519,12,1,0,5,0,0,0,0,0,0,0,0,0,-10510401,0,0,0,0,0,0,0,0,0,0,0,0,0,0,0,0,0,0,0,0,0,0,0,0,0,0,0,0,0,0,0
11,302,625.804333947599,0,0,2261879.36821761,2261880.41534568,12,1,0,2,9,74332847,22412018,21020518,23522028,0,-1030000,0,0,41401919,11200719,20700209,0,0,0,0,10400009,0,0,12012009,0,0,0,0,0,0,10210209,0,0,0,0,10810309,0,0,0,0,0,0,0,12011709,11510319
11,303,379.578683525324,1,0,2261882.21531419,2261883.26249385,12,0,1,15,3,0,4080150,30311928,11610619,0,0,0,0,0,0,0,0,0,0,0,0,0,0,-4080150,0,0,0,10200419,0,0,20111509,0,0,0,0,0,0,0,0,11610619,0,0,0,0,0
11,304,570.316831115633,0,0,2261884.79182018,2261885.83888859,12,0,0,36,9,41122538,104213247,0,137486327,0,0,0,0,0,0,21110519,0,20012019,0,0,0,31811309,0,0,40600819,0,31801119,0,0,0,0,0,0,0,0,0,0,41900609,0,0,40201719,11811419,40401409,0,-3171171
11,305,500.981512013823,1,0,2261887.47418812,2261888.52128194,12,0,1,20,19,187047983,155223046,149445616,83232247,12000709,30811719,0,40310809,30402019,11900809,40911009,0,20710909,41710219,41210009,41602009,30700809,0,0,0,0,0,0,-4020031,0,30902019,41601419,20911719,0,20500019,31510409,0,11010319,0,31511819,0,0,0,0,40710109
11,306,462.023847736418,1,0,2261890.19195168,2261891.23894849,12,1,1,22,31,149158341,236728622,231667242,108127884,31510219,10100309,20611219,21110219,11610919,20801409,11701419,10902019,10810609,40411509,30011409,20000319,31802019,0,10901219,40800709,31000619,31800819,11511009,30510319,30000919,-3110040,31411609,30711019,41901009,40810109,11701209,0,0,21701119,21602009,0,11001619,11902019,20010709,21910409
11,307,412.039746530354,1,0,2261892.88604284,2261893.93309585,12,1,1,27,3,52720528,0,45881879,0,0,10910019,0,0,41810509,0,0,0,0,0,0,0,0,0,0,0,0,0,0,0,0,0,41701709,0,0,0,-4180170,0,0,0,0,0,0,0,0,0
11,308,360.359507612884,1,0,2261895.4507925,2261896.49782665,12,0,1,11,3,0,64062799,0,21011909,0,0,0,0,0,0,0,0,0,21110709,-2050081,0,0,0,40902009,0,0,0,0,0,0,0,0,0,0,0,0,0,0,0,0,21011909,0,0,0,0
11,309,429.312944877893,0,0,2261898.01550521,2261899.06262443,12,1,0,9,3,3161160,30111809,41201909,21010219,0,0,0,0,0,0,0,0,-3161160,0,0,0,0,30111809,0,0,0,0,0,0,0,41201909,0,0,0,0,0,0,21010219,0,0,0,0,0,0,0
11,310,461.369029246271,0,0,2261900.56847661,2261901.61554463,12,1,0,13,31,236450902,231505025,225488041,246858722,21510819,30400419,30111809,0,40311219,21201309,32001909,20401409,40512009,0,31210019,40900809,-4081031,0,40800509,31300819,41700019,41511819,10401009,31010519,20711519,10610619,20011319,41210419,30911719,20610809,40010109,20111009,40510119,41011709,31901719,30901019,40200909,0,31810319,10411919
11,311,394.497845787555,0,0,2261903.22732844,2261904.27439454,12,0,0,14,3,21001119,23132789,21400709,0,0,0,0,0,0,0,21001119,0,0,0,0,0,0,-1131080,0,0,22001709,0,0,0,0,0,0,21400709,0,0,0,0,0,0,0,0,0,0,0,0
11,312,668.998493347317,1,0,2261905.85089051,2261906.8979493,12,0,1,1,9,107694458,82503537,0,82522147,-4171121,0,0,21211909,41110619,41200809,0,0,0,40601619,11901009,0,0,30000909,0,0,0,0,0,0,0,0,0,0,0,0,0,0,40511609,0,30310419,0,0,0,0,11700119
11,313,475.103666540235,1,0,2261921.27459703,2261922.3216612,13,0,1,20,19,114623646,155948445,150655264,94822266,0,0,0,0,41700409,20610909,0,32001319,20311009,20312009,21711109,31411309,40912009,0,0,41602009,0,0,11800909,-4140000,41600209,11401809,40501419,30100409,0,11110509,0,0,20910219,0,0,0,32000009,0,21110319,20801719
11,314,452.750523108989,0,0,2261923.86292786,2261924.90993852,13,0,0,10,19,104425266,148057754,145023156,146814265,30901419,0,0,31710209,0,0,30911919,10901719,0,-2110060,0,20611309,40301219,11210909,0,41311619,11712019,20800619,31002019,41100819,41610309,31310009,0,0,0,0,0,30500519,31501209,0,21500909,0,0,31411409,31900219,0
11,315,479.208505246788,0,0,2261926.42764211,2261927.47469242,13,1,0,4,9,72584668,21010519,85033137,52911928,0,0,20001109,-1061031,0,0,0,30410919,21111609,21010519,0,0,0,0,0,0,0,0,31911309,0,11910819,0,41211009,0,0,0,0,0,22011709,0,0,30900219,0,0,0,0
11,316,468.903485219926,0,0,2261929.1217502,2261930.16884479,13,1,0,27,3,52720528,0,45881879,0,0,10910019,0,0,41810509,0,0,0,0,0,0,0,0,0,0,0,0,0,0,0,0,0,41701709,0,0,0,-4180170,0,0,0,0,0,0,0,0,0
11,317,572.706668637693,1,0,2261931.76883801,2261932.81591797,13,0,1,33,31,208876101,198258293,216150222,237380403,40410209,20901809,11410809,30910509,10310509,11910009,11811219,40110109,31100919,30711209,31710619,20512009,41711719,0,0,11510609,20900309,41201819,10711819,30111819,30211409,21801719,40911319,0,10800509,31600919,40000709,0,40501319,30901309,41601719,20711019,-1131190,20511309,41910619,40111919
11,318,409.967502113432,0,0,2261934.4748337,2261935.52182665,13,1,0,21,19,173816285,117424675,157536285,81734437,0,0,41000019,31101009,0,20611819,0,40901719,40201719,0,11801719,41800519,0,11810509,11110809,40901119,0,0,30610019,20812019,-2181191,21211409,31300609,0,10810619,40610419,0,20811619,0,0,0,30011109,0,30911709,0,0
11,319,531.305272132158,1,0,2261936.94538419,2261937.99245721,13,0,1,14,9,93421927,76052548,41510209,83111938,0,40410909,0,0,0,0,0,41510509,11500509,0,21000519,21610509,0,-3031111,30410409,0,0,0,41510209,0,0,0,0,0,0,0,0,0,0,0,0,42001119,0,0,0,41110819
11,320,408.731007482857,0,0,2261939.68661959,2261940.73373996,13,1,0,3,19,154205507,82631737,136135885,195327723,0,0,-1091161,41211419,0,0,41100509,30500409,40302009,0,0,0,0,41010109,0,31510809,0,10110819,41510319,0,11102019,0,42001319,0,10910909,30611319,0,11800719,0,11511709,40401919,0,40400319,11001319,40011319,40200419
11,321,554.238551761955,1,0,2261942.31013393,2261943.35720464,13,0,1,35,3,31901319,10911019,40601509,4021170,0,0,0,0,0,31901319,0,0,0,0,0,10911019,0,0,0,0,0,0,0,0,0,40601509,0,0,0,0,0,0,0,0,0,0,0,0,-4021170,0
11,322,425.71510002017,1,0,2261945.03958567,2261946.08669258,13,1,1,12,19,21403528,185914285,152647174,116446484,0,0,10401809,0,11001719,0,0,0,0,30310209,0,-2181030,40601919,0,32000009,0,40310309,40510809,11011009,10011109,0,0,30601609,40101009,40210419,20712019,0,0,41510209,11711619,0,10011109,10401019,0,31111609,11700919
11,323,395.139960572124,1,0,2261947.71029777,2261948.75726724,13,1,1,9,3,3161160,30111809,41201909,21010219,0,0,0,0,0,0,0,0,-3161160,0,0,0,0,30111809,0,0,0,0,0,0,0,41201909,0,0,0,0,0,0,21010219,0,0,0,0,0,0,0
11,324,422.868698369712,0,0,2261950.29854352,2261951.34555111,13,1,0,5,0,0,0,0,0,0,0,0,0,-10510401,0,0,0,0,0,0,0,0,0,0,0,0,0,0,0,0,0,0,0,0,0,0,0,0,0,0,0,0,0,0,0
11,325,464.593077544123,0,0,2261952.88672499,2261953.93379609,13,0,0,1,9,117435886,11801019,52500528,62002328,-4110130,0,0,11401419,0,0,41711709,40201719,20010909,0,0,0,0,0,0,0,0,11801019,0,21500019,0,0,31000509,0,0,0,0,41701319,0,0,0,0,0,0,20301009,0
11,326,469.372511841357,1,0,2261955.55744517,2261956.60422548,13,0,1,15,3,30410609,45090809,41401119,0,0,0,0,30410609,0,0,0,0,0,0,0,41010709,0,0,-4080100,0,0,0,0,0,0,0,0,41401119,0,0,0,0,0,0,0,0,0,0,0,0
11,327,570.10279269889,0,0,2261958.21620807,2261959.26326455,13,0,0,31,31,206857022,127436703,217572121,180909464,10710019,0,21110419,20910819,30802009,40800219,20712009,31801409,30010119,0,31511009,10001819,31000209,21400819,11910809,10510419,11101619,0,40700309,10511519,11811409,30112009,40000609,10501719,21811609,21310919,30812019,0,10411619,10811909,-4151061,10210909,31710519,42001709,30610719,41001019
11,328,480.394954793155,0,0,2261961.02804108,2261962.07506984,13,0,0,16,31,168434993,169997494,176337202,301056911,20800909,11910119,0,41311019,31810919,10200609,10400809,42000609,0,0,20110519,31401409,11001419,41011019,11701509,-3060091,41511409,10200119,11210109,31100509,0,20211219,10810319,40301719,31801409,10100609,20801309,11611009,20810419,40901119,40500709,41300009,21611109,41900819,40510809,41910909
11,329,574.217255227268,0,0,2261963.56920342,2261964.61627028,13,1,0,29,9,31011019,61913238,71511818,63966376,0,0,31011019,0,0,0,0,0,0,31601319,0,0,0,30311919,0,0,0,0,0,0,0,0,40700609,0,0,0,30811209,20011109,-1020130,10911609,0,0,10412009,0,21611519,0
11,330,384.963132906705,1,0,2261966.32220245,2261967.36925469,13,0,1,30,0,0,0,0,0,0,0,0,0,0,0,0,0,0,0,0,0,0,0,0,0,0,0,0,0,0,0,0,0,0,0,0,0,0,-11300601,0,0,0,0,0,0
11,331,461.511849891394,1,0,2261968.85162964,2261969.89869959,13,0,1,11,19,84634466,89214897,177546394,143935675,0,10511809,11010619,31211219,0,0,0,0,31900819,21801519,-4111131,0,21301509,0,22000719,20000019,0,0,32011419,0,0,31300419,21811809,31100719,30212009,31110019,0,30010319,0,0,0,30911409,10301319,0,31710619,41002009
11,332,454.918238800019,0,0,2261971.41640433,2261972.46343462,13,1,0,28,31,138847402,206047413,168747502,240905883,12011419,11300409,42001209,10800109,10300809,21111819,0,10910419,20411209,40600119,11301819,20211909,40411009,0,0,31700019,41311419,20511119,0,10001609,21610219,31300909,40911609,11600919,20400909,11010619,21910709,-2150191,10511009,31100009,41310009,41401609,31211609,31910519,20300019,31010909
11,333,488.38712926954,1,0,2261973.9458061,2261974.99287682,13,1,1,13,31,236450902,231505025,225488041,246858722,21510819,30400419,30111809,0,40311219,21201309,32001909,20401409,40512009,0,31210019,40900809,-4081031,0,40800509,31300819,41700019,41511819,10401009,31010519,20711519,10610619,20011319,41210419,30911719,20610809,40010109,20111009,40510119,41011709,31901719,30901019,40200909,0,31810319,10411919
11,334,670.649976003915,1,0,2261976.56936702,2261977.61646276,13,1,1,2,9,74332847,22412018,21020518,23522028,0,-1030000,0,0,41401919,11200719,20700209,0,0,0,0,10400009,0,0,12012009,0,0,0,0,0,0,10210209,0,0,0,0,10810309,0,0,0,0,0,0,0,12011709,11510319
11,335,731.213189195842,0,0,2261979.34594069,2261980.39294904,13,0,0,24,9,93223066,61402638,62811309,30311109,40600619,0,21400319,0,20111209,0,0,11110919,0,0,0,20402019,0,0,0,0,41000619,0,0,0,41510509,0,0,-1200181,20100619,0,0,0,0,0,0,0,30311109,0,0,0
11,336,1162.02377062291,1,0,2261982.1812028,2261983.22829739,13,1,1,18,3,0,25881810,0,41011838,0,0,0,0,0,0,0,0,0,0,0,0,0,0,0,21810619,0,-4071191,0,0,0,0,0,0,0,0,0,0,0,0,30001719,11010119,0,0,0,0
11,337,517.147947568446,0,0,2261985.54601799,2261986.59300363,13,0,0,36,3,0,61711718,41001019,3191091,0,0,0,0,0,0,0,0,0,0,31400609,0,0,0,0,30311109,0,0,0,0,0,0,41001019,0,0,0,0,0,0,0,0,0,0,0,0,-3191091
11,338,388.906673062593,1,0,2261988.18127287,2261989.24016227,13,1,1,22,31,149158341,236728622,231667242,108127884,31510219,10100309,20611219,21110219,11610919,20801409,11701419,10902019,10810609,40411509,30011409,20000319,31802019,0,10901219,40800709,31000619,31800819,11511009,30510319,30000919,-3110040,31411609,30711019,41901009,40810109,11701209,0,0,21701119,21602009,0,11001619,11902019,20010709,21910409
11,339,442.507097031921,0,0,2261993.87545141,2261994.92255793,14,1,0,5,0,0,0,0,0,0,0,0,0,-10510401,0,0,0,0,0,0,0,0,0,0,0,0,0,0,0,0,0,0,0,0,0,0,0,0,0,0,0,0,0,0,0
11,340,497.32707766816,1,0,2261996.4637603,2261997.51077481,14,1,1,28,31,138847402,206047413,168747502,240905883,12011419,11300409,42001209,10800109,10300809,21111819,0,10910419,20411209,40600119,11301819,20211909,40411009,0,0,31700019,41311419,20511119,0,10001609,21610219,31300909,40911609,11600919,20400909,11010619,21910709,-2150191,10511009,31100009,41310009,41401609,31211609,31910519,20300019,31010909
11,341,415.249166544527,0,0,2261999.12256478,2262000.16964666,14,1,0,3,19,154205507,82631737,136135885,195327723,0,0,-1091161,41211419,0,0,41100509,30500409,40302009,0,0,0,0,41010109,0,31510809,0,10110819,41510319,0,11102019,0,42001319,0,10910909,30611319,0,11800719,0,11511709,40401919,0,40400319,11001319,40011319,40200419
11,342,342.123136855662,1,0,2262001.71090447,2262002.75792822,14,1,1,12,19,21403528,185914285,152647174,116446484,0,0,10401809,0,11001719,0,0,0,0,30310209,0,-2181030,40601919,0,32000009,0,40310309,40510809,11011009,10011109,0,0,30601609,40101009,40210419,20712019,0,0,41510209,11711619,0,10011109,10401019,0,31111609,11700919
11,343,434.971871320158,0,0,2262004.31087267,2262005.35794877,14,1,0,13,31,236450902,231505025,225488041,246858722,21510819,30400419,30111809,0,40311219,21201309,32001909,20401409,40512009,0,31210019,40900809,-4081031,0,40800509,31300819,41700019,41511819,10401009,31010519,20711519,10610619,20011319,41210419,30911719,20610809,40010109,20111009,40510119,41011709,31901719,30901019,40200909,0,31810319,10411919
11,344,481.084804516286,1,0,2262006.81678413,2262007.86386485,14,0,1,1,19,85784156,122813856,147239264,123729365,-1070000,0,31800419,21811909,0,20900209,0,0,10201619,0,0,40701109,0,0,30500319,41300519,10311909,0,0,0,11211709,41911909,10100609,40901909,21712019,0,21401109,30312009,0,0,0,10902009,20902019,30511509,31101819,0
11,345,424.925545230508,0,0,2262009.46387232,2262010.51093418,14,1,0,27,3,52720528,0,45881879,0,0,10910019,0,0,41810509,0,0,0,0,0,0,0,0,0,0,0,0,0,0,0,0,0,41701709,0,0,0,-4180170,0,0,0,0,0,0,0,0,0
11,346,403.619495686144,1,0,2262011.99330913,2262013.04037561,14,0,1,14,19,80923937,147706456,149845913,105325466,20701419,0,0,20011209,0,0,40211309,0,0,0,31911219,0,11311109,-1061001,41800309,0,31412009,30210809,20700819,10910719,31911019,11300919,0,41201609,21910409,11910419,0,20812019,20700919,0,0,32001319,0,0,31811209,0
11,347,438.804927282035,0,0,2262014.55806688,2262015.60512913,14,0,0,15,9,53403128,11832859,116213646,53211328,0,0,0,0,31701219,0,21701909,0,0,0,0,0,0,0,-1031050,10801809,0,0,11811509,0,0,30800409,41600509,32001219,0,0,0,0,11700109,0,0,0,0,0,41511219,0
11,348,343.831208534539,1,0,2262017.21693064,2262018.26398712,14,0,1,10,3,41511738,44311299,0,0,31201419,0,0,0,0,0,0,10310319,0,-3110090,0,0,41201209,0,0,0,0,0,0,0,0,0,0,0,0,0,0,0,0,0,0,0,0,0,0,0
11,349,477.636709343642,0,0,2262019.7110596,2262020.75811954,14,1,0,2,9,74332847,22412018,21020518,23522028,0,-1030000,0,0,41401919,11200719,20700209,0,0,0,0,10400009,0,0,12012009,0,0,0,0,0,0,10210209,0,0,0,0,10810309,0,0,0,0,0,0,0,12011709,11510319
