sub_id,Trial,RT,Resp,Error,Fix_onset,Disp_onset,block,repeat,tid,tloc,d_setsize,quad1,quad2,quad3,quad4,loc1,loc2,loc3,loc4,loc5,loc6,loc7,loc8,loc9,loc10,loc11,loc12,loc13,loc14,loc15,loc16,loc17,loc18,loc19,loc20,loc21,loc22,loc23,loc24,loc25,loc26,loc27,loc28,loc29,loc30,loc31,loc32,loc33,loc34,loc35,loc36
17,1,626.28519104328,1,0,638967.634970875,638968.682001941,1,0,1,4,3,13990509,0,11011519,21911609,10800419,0,0,-3190090,0,0,0,0,0,0,0,0,0,0,0,0,0,0,0,0,0,0,0,0,0,11011519,0,0,0,0,0,0,0,0,0,21911609
17,2,603.429288952611,1,0,638970.399608823,638971.446637964,1,0,1,34,31,228746822,176277892,221067682,167888584,41311619,41400919,0,20500819,20510309,11700419,31711809,20610119,41000809,0,21311419,31211809,10311109,11010409,42001109,40110319,10210009,10111709,10900709,40811509,41610709,10910809,31311009,42001619,31511209,12010109,0,21811219,20111119,21011619,30300019,31701809,20911119,-2030171,0,20011509
17,3,662.959755398333,1,0,638973.105429741,638974.152232806,1,0,1,31,3,0,61712038,11712009,1180181,0,0,0,0,0,0,0,0,0,0,0,41411519,0,0,0,0,20300519,0,0,0,0,0,0,11712009,0,0,0,0,0,0,-1180181,0,0,0,0,0
17,4,419.873743201606,1,0,638975.964166776,638977.011246347,1,1,1,3,9,14250319,92312066,60821618,42811628,0,0,-4150200,10100119,0,0,0,0,0,0,20000319,0,10410219,0,31001319,30900209,0,0,0,0,0,0,30710909,30110709,0,0,0,0,0,0,31410319,0,0,11401309,0,0
17,5,823.459500563331,0,0,638978.634686774,638979.681702056,1,1,0,5,19,107114207,154743565,115434565,155125075,30810509,0,30910819,0,-4181151,0,30301009,0,10910719,0,30600019,40711319,0,30811609,41810309,10810309,0,0,0,21611119,0,10911109,0,21500209,30811219,0,30600909,41401319,30011419,0,0,0,20110009,0,42001109,21601219
17,6,672.173692495562,0,0,638981.564024495,638982.611040547,1,0,0,28,31,268977821,237327113,134317173,176978953,10910409,40611609,41411409,41310919,20610919,31011619,10910109,40700109,31500719,31301309,0,40701119,40210919,0,40400119,32011509,41301519,11400619,30401209,20600709,20000909,10801809,0,30500509,10900109,0,11111919,-1110141,10010709,31500809,11101509,40211319,20411719,10610209,21710619,30311919
17,7,524.451468023472,0,0,638984.340413376,638985.387452526,1,0,0,13,9,72311528,117453748,70402538,71613428,0,31300319,0,41011209,0,0,0,0,0,0,41111509,0,-4131111,31010019,0,0,0,41201109,30000919,0,0,0,40401619,0,0,0,0,0,0,0,0,30911609,0,0,40701819,0
17,8,637.918326421641,0,0,638987.105052864,638988.152138594,1,0,0,18,3,30800828,4130061,40801719,0,10300719,0,0,0,0,0,20500109,0,0,0,0,0,0,0,0,0,0,-4130061,0,0,0,0,0,0,0,0,40801719,0,0,0,0,0,0,0,0,0
17,9,884.269858826883,1,0,638989.869679648,638990.916709174,1,1,1,33,19,52401138,185546022,162443865,88644466,0,0,0,0,30901119,21500019,0,0,0,0,20000819,21500219,20311919,10710519,20010909,40710609,41100719,11200309,0,40510609,40012009,0,30100209,41010019,0,10811019,0,0,0,31700509,0,31300519,-2021010,0,12011309,11611119
17,10,430.926742381416,1,0,638992.892925546,638993.940180244,1,1,1,2,3,32692370,0,12010819,41401219,0,-1081061,0,0,0,0,0,0,31611309,0,0,0,0,0,0,0,0,0,0,0,0,0,12010819,0,0,0,0,0,0,0,0,0,41401219,0,0,0
17,11,682.200385723263,0,0,638995.457767185,638996.504789782,1,1,0,36,3,21100119,0,41501919,31731719,21100119,0,0,0,0,0,0,0,0,0,0,0,0,0,0,0,0,0,0,0,0,0,41501919,0,0,0,0,30611619,0,0,0,0,0,0,0,-1120100
17,12,650.851859711111,1,0,638998.387155721,638999.434162919,1,1,1,19,9,85721837,72313557,24721959,43321418,0,0,0,0,22010109,0,21700319,0,42011409,0,0,30510819,0,0,21100919,20701819,0,0,-3021150,0,0,0,0,0,0,21700809,0,11510909,31810509,0,0,0,0,0,0,0
17,13,539.533373434097,0,0,639001.163503411,639002.210329388,1,0,0,32,0,0,0,0,0,0,0,0,0,0,0,0,0,0,0,0,0,0,0,0,0,0,0,0,0,0,0,0,0,0,0,0,0,0,0,0,-41610501,0,0,0,0
17,14,628.931797575206,0,0,639003.787020061,639004.833987608,1,1,0,10,31,199847932,197499332,225357712,180357293,21412019,10601519,41010509,12000619,31400219,41011119,0,31500809,10911119,-1130100,30710119,32012019,21511219,10411709,10400519,20212009,30500919,40610719,40310509,20310419,31910109,20111109,31110719,40801519,20001309,20802019,0,41211419,11800609,12010709,11811109,30011619,0,31901419,0,41610409
17,15,488.149264361709,0,0,639006.504528393,639007.551561384,1,0,0,15,31,178634903,147735674,206947921,227466712,41610619,20700409,0,30710419,11701319,41410209,0,11001419,21500509,30000209,20000609,31100819,11500609,30901409,-2030101,10801109,0,11400809,10001419,41500119,30112009,11100919,22010209,11311109,30210419,40701009,10000709,0,31511809,40110419,40901219,31711519,20500519,21510109,30810309,10410809
17,16,601.171492831782,1,0,639009.045646843,639010.092672904,1,1,1,12,19,143115656,140216085,146634355,94802956,31301019,0,41101809,30011919,0,0,0,40700909,0,10701209,10111019,-4191011,0,12001509,41400109,41200109,20611119,0,20711809,0,0,22001109,30710819,32010409,0,41200209,0,31400819,0,0,0,31801009,21500909,10100219,0,0
17,17,728.093506768346,0,0,639011.739689495,639012.786717096,1,0,0,35,19,165324865,124148675,86434756,192626366,41101819,0,0,31100409,20610209,0,41910509,0,30601919,10001619,0,30712009,20611409,0,41311619,0,21512019,0,0,0,0,0,11102019,12011409,21910709,41410619,0,41801519,0,0,21411309,0,41311409,42010319,-4181001,41910809
17,18,470.711302827112,0,0,639014.669023752,639015.716055202,1,1,0,14,31,248960801,176307415,268758111,186948302,31201509,31510109,30211909,41000109,21300309,30212019,21611809,10501519,31411509,0,30411719,0,31011609,-2061140,40900709,31510619,40411619,0,31110519,31711319,10610609,41200809,10400409,41301309,30401019,40111109,31911009,11101809,20411719,0,30300619,20610409,11311009,31201609,21010619,41000509
17,19,543.749175965786,1,0,639017.363071408,639018.410100549,1,0,1,17,19,157436474,117693566,136839274,60912947,41711909,0,12001219,0,20901009,21811409,40310519,20700409,0,40810709,0,30810409,0,11710719,0,31310709,-3051020,0,0,30211009,0,11911409,41501919,11311509,0,20401809,21501619,0,0,0,40201419,0,10611209,10100319,0,0
17,20,505.067143822089,0,1,639020.139459905,639021.18649559,1,1,1,32,9,53513338,10200509,82823337,87083187,0,42001619,0,0,0,0,0,0,11511719,0,0,0,0,10200509,0,0,0,0,0,0,0,0,0,20401009,0,40411509,22010819,0,10510819,30501109,41910219,-4161040,0,0,0,0
17,21,575.800640741363,1,0,639023.468827883,639024.51584817,1,1,1,27,3,0,0,44450850,62212628,0,0,0,0,0,0,0,0,0,0,0,0,0,0,0,0,0,0,0,0,0,0,0,0,0,41300709,-3150141,0,0,0,0,0,0,0,40511009,21701619
17,22,589.547596639022,1,0,639026.198149128,639027.245199442,1,1,1,8,31,209437293,145453072,268379411,145346583,20301309,11300609,31611509,40711009,21111319,40800309,40600109,-3001120,0,11611809,10501409,10411309,0,10901709,40001409,42012009,10001409,10012009,30311519,41100109,32011019,10611109,20311209,42001019,10410709,40311709,41311009,30401409,10100019,0,0,42011309,31511009,10411419,10601409,10310009
17,23,556.516406242736,0,0,639028.903950413,639029.950969545,1,0,0,22,19,165527574,164434665,105605448,134722475,0,31501609,41111509,0,30010109,11601719,20000719,31301909,0,40710719,40711519,31311709,0,41100309,0,0,10600409,0,30311619,0,31601819,-3081001,0,0,0,0,40611009,0,40800009,30300409,21200419,0,0,30710919,11710719,0
17,24,643.733161734417,0,0,639031.656839737,639032.70384578,1,0,0,30,9,11810509,113725556,91211247,12932709,11810509,0,0,0,0,0,0,0,0,31001909,10311619,0,40800109,0,0,31611919,0,0,0,30701019,0,0,30000009,0,0,30510219,0,11901519,0,-1031190,0,0,0,0,0,0
17,25,589.797051274218,1,0,639034.550889242,639035.597877962,1,1,1,11,0,0,0,0,0,0,0,0,0,0,0,0,0,0,0,-10301701,0,0,0,0,0,0,0,0,0,0,0,0,0,0,0,0,0,0,0,0,0,0,0,0,0
17,26,606.086674379185,0,0,639037.362544397,639038.409571228,1,0,0,20,9,53934947,32011009,31242750,104125136,0,30311919,0,0,0,0,0,11712009,11911019,0,0,0,0,0,0,0,32011009,0,0,-1031141,0,0,0,0,0,0,30211609,30701909,0,30201009,21711909,21510309,0,0,0,0
17,27,483.622508472763,0,0,639061.46778233,639062.51481147,2,1,0,10,31,199847932,197499332,225357712,180357293,21412019,10601519,41010509,12000619,31400219,41011119,0,31500809,10911119,-1130100,30710119,32012019,21511219,10411709,10400519,20212009,30500919,40610719,40310509,20310419,31910109,20111109,31110719,40801519,20001309,20802019,0,41211419,11800609,12010709,11811109,30011619,0,31901419,0,41610409
17,28,663.829663651995,1,0,639064.032437293,639065.079502235,2,0,1,31,3,0,30701109,21811809,34660579,0,0,0,0,0,0,0,0,0,0,0,0,0,0,0,0,0,30701109,0,0,0,21811809,0,0,0,0,0,0,0,0,-3050060,0,0,31610519,0,0
17,29,634.240794344805,0,0,639066.797060997,639067.844077819,2,1,0,36,3,21100119,0,41501919,31731719,21100119,0,0,0,0,0,0,0,0,0,0,0,0,0,0,0,0,0,0,0,0,0,41501919,0,0,0,0,30611619,0,0,0,0,0,0,0,-1120100
17,30,578.393352800049,1,0,639069.561690861,639070.608719232,2,1,1,14,31,248960801,176307415,268758111,186948302,31201509,31510109,30211909,41000109,21300309,30212019,21611809,10501519,31411509,0,30411719,0,31011609,-2061140,40900709,31510619,40411619,0,31110519,31711319,10610609,41200809,10400409,41301309,30401019,40111109,31911009,11101809,20411719,0,30300619,20610409,11311009,31201609,21010619,41000509
17,31,625.357435201295,0,0,639072.349643594,639073.396882529,2,1,0,19,9,85721837,72313557,24721959,43321418,0,0,0,0,22010109,0,21700319,0,42011409,0,0,30510819,0,0,21100919,20701819,0,0,-3021150,0,0,0,0,0,0,21700809,0,11510909,31810509,0,0,0,0,0,0,0
17,32,677.1088920068,1,0,639075.185073929,639076.232092676,2,0,1,35,19,83523366,134613656,145945314,146136055,0,0,0,0,10510709,20901519,11710719,40400419,0,0,31400709,40701209,40700319,0,0,21811419,0,0,31200319,0,40610819,20210319,0,0,21802019,11610419,20511419,0,42000609,40700809,0,30000009,21611909,10801709,-1021010,0
17,33,575.800640624948,1,0,639078.067380584,639079.114373539,2,0,1,17,31,200448723,235069152,256857611,165733893,32001809,0,41201019,31600419,31111619,0,31711319,21311519,11511019,42011319,41900819,41902019,21900119,20811719,21601519,10311309,-3020120,31610209,11610909,40701609,20311309,21200209,11910509,30501519,40110719,40010119,40500709,0,10410919,31700109,30900109,40400919,10610109,30010009,0,11701719
17,34,741.289198515005,0,0,639080.796689125,639081.843709412,2,0,0,30,19,105814355,104922666,116846584,106330987,31701109,11601109,0,20900909,31600909,0,10010319,0,0,0,0,0,0,12001319,21500309,30710919,40710119,0,40600709,0,11611319,10311809,11610919,21711419,0,21000409,0,11700009,0,-2110121,10500319,0,41510119,0,40510419,0
17,35,537.239101249725,1,0,639083.737788943,639084.784809615,2,0,1,20,9,30611919,65133646,128143288,40501009,30611919,0,0,0,0,0,0,0,0,0,20701419,11210909,0,21910709,0,11310609,0,0,0,-4121141,0,0,41510319,0,41910409,40601419,0,0,0,0,40501009,0,0,0,0,0
17,36,922.999626258388,1,0,639086.467171396,639087.514152032,2,0,1,28,31,248869712,175456994,228560041,240105023,10401709,21910809,41212019,30710719,0,20710809,41800419,42011819,40111409,21500409,20511509,30512019,0,0,31511819,40910119,30511119,0,42010009,20600019,10411519,10801919,41301709,11101219,31311319,30911919,30110409,-2051101,41000719,30910309,20710509,40610119,22000519,40900819,31210809,10710119
17,37,641.891893348657,0,0,639089.514137789,639090.561128048,2,0,0,34,31,227058182,204447603,229161451,219515833,11011509,40110309,30801409,0,40500609,20800919,40911509,31310609,11611309,10200609,0,30210419,40901919,40001509,40912019,0,30711109,11510019,31402009,11801519,31311719,21100419,40501209,30011819,11211119,41711019,10110619,0,31310319,31310109,30000109,11410119,30611219,-3050030,40412019,41411909
17,38,650.339476647787,1,0,639092.231679228,639093.278694125,2,1,1,11,0,0,0,0,0,0,0,0,0,0,0,0,0,0,0,-10301701,0,0,0,0,0,0,0,0,0,0,0,0,0,0,0,0,0,0,0,0,0,0,0,0,0
17,39,552.073571947403,0,0,639095.019837521,639096.066860502,2,1,0,3,9,14250319,92312066,60821618,42811628,0,0,-4150200,10100119,0,0,0,0,0,0,20000319,0,10410219,0,31001319,30900209,0,0,0,0,0,0,30710909,30110709,0,0,0,0,0,0,31410319,0,0,11401309,0,0
17,40,696.411604527384,0,0,639097.831531172,639098.878563007,2,1,0,33,19,52401138,185546022,162443865,88644466,0,0,0,0,30901119,21500019,0,0,0,0,20000819,21500219,20311919,10710519,20010909,40710609,41100719,11200309,0,40510609,40012009,0,30100209,41010019,0,10811019,0,0,0,31700509,0,31300519,-2021010,0,12011309,11611119
17,41,546.224859892391,0,0,639100.61968985,639101.666717451,2,1,0,5,19,107114207,154743565,115434565,155125075,30810509,0,30910819,0,-4181151,0,30301009,0,10910719,0,30600019,40711319,0,30811609,41810309,10810309,0,0,0,21611119,0,10911109,0,21500209,30811219,0,30600909,41401319,30011419,0,0,0,20110009,0,42001109,21601219
17,42,451.731957495213,0,0,639103.24314452,639104.290174431,2,0,0,22,19,138634185,146522346,138405646,115325275,0,0,11901519,0,41910519,42010909,0,21400819,21410419,0,30900509,0,0,42010119,0,0,31911609,41700109,30100709,0,0,-4181171,22000819,0,41010519,10411209,30701219,11110109,0,20201209,32001419,40501719,0,11510819,0,0
17,43,560.996197047643,0,0,639105.807788705,639106.854810916,2,1,0,2,3,32692370,0,12010819,41401219,0,-1081061,0,0,0,0,0,0,31611309,0,0,0,0,0,0,0,0,0,0,0,0,0,12010819,0,0,0,0,0,0,0,0,0,41401219,0,0,0
17,44,576.357679208741,0,0,639108.478306007,639109.525333993,2,0,0,4,9,149754676,10210009,43322728,63013228,0,0,41910309,-4021140,0,0,21200209,41311209,41311809,10210009,0,0,0,0,0,0,0,0,11810919,0,0,0,0,0,0,31511809,0,0,0,0,31801809,31211419,0,0,0,0
17,45,458.588112262078,0,0,639111.184108832,639112.231143362,2,0,0,15,9,51012118,77122088,32812828,52001128,0,21011009,0,30001109,0,0,0,0,0,20510209,11710009,41801819,0,0,-3100051,0,0,0,0,21211409,0,0,0,11601419,0,0,0,0,22000219,0,0,30000909,0,0,0,0
17,46,647.110039251857,1,0,639113.74876418,639114.795772533,2,1,1,8,31,209437293,145453072,268379411,145346583,20301309,11300609,31611509,40711009,21111319,40800309,40600109,-3001120,0,11611809,10501409,10411309,0,10901709,40001409,42012009,10001409,10012009,30311519,41100109,32011019,10611109,20311209,42001019,10410709,40311709,41311009,30401409,10100019,0,0,42011309,31511009,10411419,10601409,10310009
17,47,723.207967123017,1,0,639116.513388655,639117.560410096,2,1,1,32,9,53513338,10200509,82823337,87083187,0,42001619,0,0,0,0,0,0,11511719,0,0,0,0,10200509,0,0,0,0,0,0,0,0,0,20401009,0,40411509,22010819,0,10510819,30501109,41910219,-4161040,0,0,0,0
17,48,720.415460295044,0,0,639119.360364748,639120.407395043,2,0,0,36,0,0,0,0,0,0,0,0,0,0,0,0,0,0,0,0,0,0,0,0,0,0,0,0,0,0,0,0,0,0,0,0,0,0,0,0,0,0,0,0,-41510501
17,49,577.405598363839,1,0,639122.254406553,639123.301228529,2,0,1,13,3,0,4150090,52221528,30000219,0,0,0,0,0,0,0,0,0,0,0,0,-4150090,0,0,0,0,0,0,0,0,21711509,0,30510019,0,0,0,30000219,0,0,0,0,0,0,0,0
17,50,560.520385275595,1,0,639124.960214382,639126.007248912,2,1,1,27,3,0,0,44450850,62212628,0,0,0,0,0,0,0,0,0,0,0,0,0,0,0,0,0,0,0,0,0,0,0,0,0,41300709,-3150141,0,0,0,0,0,0,0,40511009,21701619
17,51,501.331097679213,1,0,639127.654267428,639128.701291564,2,1,1,12,19,143115656,140216085,146634355,94802956,31301019,0,41101809,30011919,0,0,0,40700909,0,10701209,10111019,-4191011,0,12001509,41400109,41200109,20611119,0,20711809,0,0,22001109,30710819,32010409,0,41200209,0,31400819,0,0,0,31801009,21500909,10100219,0,0
17,52,463.613392552361,1,0,639130.218906608,639131.265935749,2,0,1,18,3,0,14671069,31101509,20100019,0,0,0,0,0,0,0,0,0,10510919,0,0,0,0,0,0,0,-4160150,0,0,0,31101509,0,0,0,0,0,0,0,0,0,0,0,0,0,20100019
17,53,588.600207702257,1,0,639142.747980785,639143.795019934,3,0,1,13,9,51302428,22190649,93134046,31611028,0,0,30500409,0,0,0,0,0,20802019,0,0,0,-2190130,0,0,0,20000519,0,30011119,0,0,0,0,11911209,20301309,30910409,0,0,0,0,10900209,0,20710819,0,0,0
17,54,523.5144731123,1,0,639145.406742535,639146.453787844,3,1,1,11,0,0,0,0,0,0,0,0,0,0,0,0,0,0,0,-10301701,0,0,0,0,0,0,0,0,0,0,0,0,0,0,0,0,0,0,0,0,0,0,0,0,0
17,55,526.815898134373,1,0,639148.0537214,639149.100747461,3,1,1,3,9,14250319,92312066,60821618,42811628,0,0,-4150200,10100119,0,0,0,0,0,0,20000319,0,10410219,0,31001319,30900209,0,0,0,0,0,0,30710909,30110709,0,0,0,0,0,0,31410319,0,0,11401309,0,0
17,56,562.695414642803,0,0,639150.759540392,639151.806559909,3,1,0,14,31,248960801,176307415,268758111,186948302,31201509,31510109,30211909,41000109,21300309,30212019,21611809,10501519,31411509,0,30411719,0,31011609,-2061140,40900709,31510619,40411619,0,31110519,31711319,10610609,41200809,10400409,41301309,30401019,40111109,31911009,11101809,20411719,0,30300619,20610409,11311009,31201609,21010619,41000509
17,57,648.258762666956,0,0,639153.535925809,639154.58295264,3,1,0,2,3,32692370,0,12010819,41401219,0,-1081061,0,0,0,0,0,0,31611309,0,0,0,0,0,0,0,0,0,0,0,0,0,12010819,0,0,0,0,0,0,0,0,0,41401219,0,0,0
17,58,631.517580361106,0,0,639156.38292115,639157.429934893,3,1,0,32,9,53513338,10200509,82823337,87083187,0,42001619,0,0,0,0,0,0,11511719,0,0,0,0,10200509,0,0,0,0,0,0,0,0,0,20401009,0,40411509,22010819,0,10510819,30501109,41910219,-4161040,0,0,0,0
17,59,578.585833194666,0,0,639159.147580656,639160.19457592,3,0,0,34,9,42801728,62000738,32702018,75693008,0,0,0,11300209,0,0,0,0,31501519,0,0,21800219,40200519,0,0,0,0,0,0,0,0,0,21200809,0,11501209,0,0,0,0,10501919,40210609,0,21800309,-3180171,0,0
17,60,579.188297153451,0,0,639161.865122865,639162.912138917,3,1,0,12,19,143115656,140216085,146634355,94802956,31301019,0,41101809,30011919,0,0,0,40700909,0,10701209,10111019,-4191011,0,12001509,41400109,41200109,20611119,0,20711809,0,0,22001109,30710819,32010409,0,41200209,0,31400819,0,0,0,31801009,21500909,10100219,0,0
17,61,655.397478840314,1,0,639164.523873451,639165.570903362,3,0,1,30,3,0,82512418,0,31541360,0,0,0,0,0,0,0,0,0,0,0,0,41001309,0,41511109,0,0,0,0,0,0,0,0,0,0,0,0,0,0,-1030051,0,0,0,0,30511309,0
17,62,637.176121585071,0,0,639167.40614777,639168.453173061,3,1,0,36,3,21100119,0,41501919,31731719,21100119,0,0,0,0,0,0,0,0,0,0,0,0,0,0,0,0,0,0,0,0,0,41501919,0,0,0,0,30611619,0,0,0,0,0,0,0,-1120100
17,63,546.378459432162,0,0,639170.264893275,639171.311922415,3,1,0,8,31,209437293,145453072,268379411,145346583,20301309,11300609,31611509,40711009,21111319,40800309,40600109,-3001120,0,11611809,10501409,10411309,0,10901709,40001409,42012009,10001409,10012009,30311519,41100109,32011019,10611109,20311209,42001019,10410709,40311709,41311009,30401409,10100019,0,0,42011309,31511009,10411419,10601409,10310009
17,64,503.432599478401,1,0,639172.970708418,639174.017743718,3,1,1,5,19,107114207,154743565,115434565,155125075,30810509,0,30910819,0,-4181151,0,30301009,0,10910719,0,30600019,40711319,0,30811609,41810309,10810309,0,0,0,21611119,0,10911109,0,21500209,30811219,0,30600909,41401319,30011419,0,0,0,20110009,0,42001109,21601219
17,65,547.767013544217,0,0,639175.629463239,639176.676480061,3,0,0,20,19,185634185,104034466,108825667,155756074,0,41011209,0,41700819,21601619,0,40910319,0,40410219,22011709,21611819,0,30200019,0,0,0,30210919,0,21001709,-4001121,0,0,0,30201019,31711809,0,21910009,20011609,20901119,11811109,21011309,0,40310419,0,0,41710509
17,66,605.161613202654,1,0,639178.358799497,639179.405821708,3,1,1,33,19,52401138,185546022,162443865,88644466,0,0,0,0,30901119,21500019,0,0,0,0,20000819,21500219,20311919,10710519,20010909,40710609,41100719,11200309,0,40510609,40012009,0,30100209,41010019,0,10811019,0,0,0,31700509,0,31300519,-2021010,0,12011309,11611119
17,67,2039.15120230522,1,0,639181.205786754,639182.25280396,3,0,1,34,0,0,0,0,0,0,0,0,0,0,0,0,0,0,0,0,0,0,0,0,0,0,0,0,0,0,0,0,0,0,0,0,0,0,0,0,0,0,-40001591,0,0
17,68,628.009431180544,1,0,639185.393904857,639186.440924373,3,0,1,31,31,247826832,238558631,108052903,188059354,40200309,20601609,41811519,0,30601419,11400919,31300319,31210319,40700419,21010319,10811209,32000219,11911819,30410709,11611219,40001909,40701009,40100219,0,10610219,31310519,0,10410809,10811009,11400109,11800119,21710119,30900509,40700819,30710719,-2031171,10211609,11501909,0,20302009,41700609
17,69,461.935347761028,1,0,639188.252655366,639189.334971953,3,1,1,27,3,0,0,44450850,62212628,0,0,0,0,0,0,0,0,0,0,0,0,0,0,0,0,0,0,0,0,0,0,0,0,0,41300709,-3150141,0,0,0,0,0,0,0,40511009,21701619
17,70,522.822698228993,1,0,639190.829056258,639191.876135443,3,0,1,35,31,231570031,196938473,268136902,218316954,31110519,21711109,30902019,21310809,42000219,20110009,21701819,31811509,10912019,20211509,40610809,30401409,0,31101809,0,41201509,11400809,22010619,31101109,31310419,21500019,41610109,41601109,40501009,0,20111319,40401809,30910309,40600919,0,31100119,11300909,40211209,41200919,-2081151,20911419
17,71,467.681275098585,0,0,639193.417217707,639194.464242614,3,0,0,15,19,107115675,128806255,113123146,125935885,21801519,31500619,0,0,0,0,11801209,21800509,20211819,21400609,0,31712019,0,11300419,-2081190,41801109,20510909,0,0,40800309,0,30311409,0,0,31201119,10810309,0,41500319,0,20811519,0,30101219,21611809,0,11911019,0
17,72,858.221860369667,0,0,639196.134797258,639197.181822934,3,0,0,28,31,178448612,250876222,181720212,186459513,10211719,41910909,20600419,30500519,0,30901309,21310209,11711619,11301909,30311219,42010619,0,10910709,21900119,30310609,41810519,41810409,31812019,11300109,0,11300919,11201919,41411409,11201809,21501719,41900419,31901909,-2031120,0,40100509,20701919,11001419,41110709,30200109,31312019,10001709
17,73,922.70744079724,0,0,639199.158241765,639200.205271291,3,0,0,18,9,31001209,53823899,107434975,31011219,0,0,0,0,31001209,0,0,0,0,0,0,20601319,30101519,0,0,0,0,-3121061,22001419,41910819,0,11610909,0,0,11600819,20311009,0,0,0,31011219,0,0,0,0,0,0
17,74,526.879031793214,1,0,639202.169928025,639203.216951391,3,0,1,4,3,1160061,0,22002019,42620918,0,0,0,-1160061,0,0,0,0,0,0,0,0,0,0,0,0,0,0,0,0,0,0,0,0,0,22002019,0,0,0,22010609,0,0,0,20610309,0,0
17,75,549.326875363477,1,0,639204.887506805,639205.934525937,3,0,1,22,19,65623865,141735255,98013736,94834465,0,0,10410519,11901609,20911009,0,0,11300709,11100019,10210509,10410209,41011309,40101619,40001609,0,0,0,0,31801109,0,0,-3190180,20911209,0,30900219,11211019,0,11410519,20000509,31410419,0,0,20611909,0,0,11401109
17,76,599.406061810441,1,0,639207.593310785,639208.640333766,3,1,1,19,9,85721837,72313557,24721959,43321418,0,0,0,0,22010109,0,21700319,0,42011409,0,0,30510819,0,0,21100919,20701819,0,0,-3021150,0,0,0,0,0,0,21700809,0,11510909,31810509,0,0,0,0,0,0,0
17,77,623.443409218453,0,0,639210.393243879,639211.4402684,3,1,0,10,31,199847932,197499332,225357712,180357293,21412019,10601519,41010509,12000619,31400219,41011119,0,31500809,10911119,-1130100,30710119,32012019,21511219,10411709,10400519,20212009,30500919,40610719,40310509,20310419,31910109,20111109,31110719,40801519,20001309,20802019,0,41211419,11800609,12010709,11811109,30011619,0,31901419,0,41610409
17,78,574.937173165381,0,0,639213.20493445,639214.251955122,3,0,0,17,3,0,1090160,21700919,71412228,0,0,0,0,0,0,0,0,0,0,0,0,0,0,0,0,-1090160,0,21700919,0,0,0,0,0,0,0,0,0,0,40111309,0,0,31300919,0,0,0
17,79,627.331899944693,1,0,639228.169228936,639229.216263851,4,1,1,2,3,32692370,0,12010819,41401219,0,-1081061,0,0,0,0,0,0,31611309,0,0,0,0,0,0,0,0,0,0,0,0,0,12010819,0,0,0,0,0,0,0,0,0,41401219,0,0,0
17,80,519.705669255927,1,0,639231.039751166,639232.086776072,4,0,1,22,9,104923175,62503618,43250369,30201809,10410919,31600519,31301509,11000009,0,20610219,0,0,0,0,0,0,0,21601609,0,0,40902009,0,0,0,0,-3040150,0,0,0,40210219,0,0,0,30201809,0,0,0,0,0,0
17,81,553.491383092478,1,0,639233.663203142,639234.710228818,4,1,1,19,9,85721837,72313557,24721959,43321418,0,0,0,0,22010109,0,21700319,0,42011409,0,0,30510819,0,0,21100919,20701819,0,0,-3021150,0,0,0,0,0,0,21700809,0,11510909,31810509,0,0,0,0,0,0,0
17,82,676.322416751646,0,0,639236.357242714,639237.4042707,4,1,0,32,9,53513338,10200509,82823337,87083187,0,42001619,0,0,0,0,0,0,11511719,0,0,0,0,10200509,0,0,0,0,0,0,0,0,0,20401009,0,40411509,22010819,0,10510819,30501109,41910219,-4161040,0,0,0,0
17,83,499.22921077814,1,0,639239.145414866,639240.192433613,4,1,1,5,19,107114207,154743565,115434565,155125075,30810509,0,30910819,0,-4181151,0,30301009,0,10910719,0,30600019,40711319,0,30811609,41810309,10810309,0,0,0,21611119,0,10911109,0,21500209,30811219,0,30600909,41401319,30011419,0,0,0,20110009,0,42001109,21601219
17,84,885.796613991261,0,0,639241.827753935,639242.874749199,4,0,0,17,19,144748674,104934706,165623375,124024846,0,30111419,10201809,20010909,22001619,40611209,0,21811709,0,0,31110019,0,11401419,0,40001619,20300509,-2121140,0,32000619,40910609,0,20310109,41200419,0,0,0,31201619,0,40200109,0,0,41711509,30501509,0,11611719,0
17,85,799.362484249286,0,0,639244.804072291,639245.851109516,4,0,0,10,0,0,0,0,0,0,0,0,0,0,0,0,0,0,-31411601,0,0,0,0,0,0,0,0,0,0,0,0,0,0,0,0,0,0,0,0,0,0,0,0,0,0
17,86,788.846890674904,1,0,639247.7805685,639248.827489467,4,0,1,13,9,52611728,91826008,82822528,62403818,0,0,41411519,0,0,0,0,0,11200209,0,0,0,-1001071,10012019,40101809,40711109,0,0,41510819,0,0,41311709,0,0,0,0,0,31002009,0,31401809,0,0,0,0,0,0
17,87,581.143513903953,1,0,639250.780390263,639251.82740516,4,1,1,36,3,21100119,0,41501919,31731719,21100119,0,0,0,0,0,0,0,0,0,0,0,0,0,0,0,0,0,0,0,0,0,41501919,0,0,0,0,30611619,0,0,0,0,0,0,0,-1120100
17,88,672.252609510906,1,0,639253.545020512,639254.592045803,4,0,1,31,19,75123536,189144203,82414447,159637315,21710809,21101909,20600109,11710709,0,0,0,0,0,40500909,11710019,0,11800709,31811319,41910619,0,40200609,11210019,0,0,0,22010419,0,30102019,0,0,30302009,30301909,0,21301919,-4011060,0,0,40311609,31910809,31800009
17,89,720.216820482165,0,0,639256.380247981,639257.427275582,4,1,0,8,31,209437293,145453072,268379411,145346583,20301309,11300609,31611509,40711009,21111319,40800309,40600109,-3001120,0,11611809,10501409,10411309,0,10901709,40001409,42012009,10001409,10012009,30311519,41100109,32011019,10611109,20311209,42001019,10410709,40311709,41311009,30401409,10100019,0,0,42011309,31511009,10411419,10601409,10310009
17,90,491.742105106823,1,0,639259.215452738,639260.262494583,4,0,1,28,9,41211219,93724447,40210209,115825157,0,0,41211219,0,0,0,0,0,0,40611919,0,31801919,0,0,0,21310609,0,0,0,0,0,0,40210209,0,0,0,0,-2110021,30700509,22001409,0,0,0,20511509,40501709,0
17,91,679.257359122857,0,0,639261.885963497,639262.932999182,4,0,0,18,31,248060312,280020022,148955632,178736383,20510819,41111309,31111309,0,30201809,30500819,41811819,31310919,21501509,20511219,41010319,40810819,32001819,41001609,31201419,40501219,30800519,-2181080,0,21200319,21600119,22011219,21011209,10410319,21301109,20110719,11310619,11101509,40611409,21811819,0,41901009,11500019,10710509,41100109,0
17,92,570.651244022883,0,0,639264.685893896,639265.732736105,4,1,0,27,3,0,0,44450850,62212628,0,0,0,0,0,0,0,0,0,0,0,0,0,0,0,0,0,0,0,0,0,0,0,0,0,41300709,-3150141,0,0,0,0,0,0,0,40511009,21701619
17,93,460.439004469663,1,0,639267.391716353,639268.438733945,4,1,1,10,31,199847932,197499332,225357712,180357293,21412019,10601519,41010509,12000619,31400219,41011119,0,31500809,10911119,-1130100,30710119,32012019,21511219,10411709,10400519,20212009,30500919,40610719,40310509,20310419,31910109,20111109,31110719,40801519,20001309,20802019,0,41211419,11800609,12010709,11811109,30011619,0,31901419,0,41610409
17,94,591.001979075372,0,0,639269.932807856,639270.979853165,4,1,0,11,0,0,0,0,0,0,0,0,0,0,0,0,0,0,0,-10301701,0,0,0,0,0,0,0,0,0,0,0,0,0,0,0,0,0,0,0,0,0,0,0,0,0
17,95,605.967721436173,1,0,639272.603427174,639273.650378553,4,1,1,33,19,52401138,185546022,162443865,88644466,0,0,0,0,30901119,21500019,0,0,0,0,20000819,21500219,20311919,10710519,20010909,40710609,41100719,11200309,0,40510609,40012009,0,30100209,41010019,0,10811019,0,0,0,31700509,0,31300519,-2021010,0,12011309,11611119
17,96,439.723870251328,0,0,639275.39150116,639276.438531841,4,1,0,14,31,248960801,176307415,268758111,186948302,31201509,31510109,30211909,41000109,21300309,30212019,21611809,10501519,31411509,0,30411719,0,31011609,-2061140,40900709,31510619,40411619,0,31110519,31711319,10610609,41200809,10400409,41301309,30401019,40111109,31911009,11101809,20411719,0,30300619,20610409,11311009,31201609,21010619,41000509
17,97,638.326384942047,0,0,639277.967893968,639279.014915795,4,0,0,30,3,0,0,33723137,4161191,0,0,0,0,0,0,0,0,0,0,0,0,0,0,0,0,0,0,0,0,11811409,11011719,0,0,0,0,10900009,0,0,-4161191,0,0,0,0,0,0
17,98,704.643994686194,1,0,639280.838430827,639281.8854438,4,0,1,35,31,217338502,162839712,203357712,131867244,12002019,40000009,10311319,30910309,40001309,0,10400809,31701009,42011719,31410519,30111909,10010719,0,30401819,10200119,20002009,20001509,10701109,0,22001309,22000509,41911509,12001019,11511019,31110219,41711819,21110309,0,20810019,11101719,30610619,31500309,10501409,11301809,-4041051,12000309
17,99,493.539487826638,0,0,639283.673624805,639284.720650096,4,0,0,15,31,186827693,150449583,259159521,176029513,11700919,40101109,10312009,21500319,30911809,31300809,41000719,0,0,20500519,40100919,11501519,21500819,11101209,-3141041,21200919,10001619,11401019,41010709,10011319,20710519,40900009,21902009,21400409,40401319,31111519,31711709,30101319,41001919,0,0,31801309,40001109,11910919,10111419,11101519
17,100,621.408505598083,0,0,639286.414523995,639287.461756921,4,1,0,12,19,143115656,140216085,146634355,94802956,31301019,0,41101809,30011919,0,0,0,40700909,0,10701209,10111019,-4191011,0,12001509,41400109,41200109,20611119,0,20711809,0,0,22001109,30710819,32010409,0,41200209,0,31400819,0,0,0,31801009,21500909,10100219,0,0
17,101,549.680654541589,1,0,639289.226419506,639290.273480984,4,1,1,3,9,14250319,92312066,60821618,42811628,0,0,-4150200,10100119,0,0,0,0,0,0,20000319,0,10410219,0,31001319,30900209,0,0,0,0,0,0,30710909,30110709,0,0,0,0,0,0,31410319,0,0,11401309,0,0
17,102,562.383211334236,0,0,639291.861648978,639292.908670034,4,0,0,34,19,94114946,134816075,185724594,117352577,0,0,20900009,10502019,0,21910909,0,40802009,0,21510409,0,31101119,30201209,20402019,0,0,0,31601319,41700919,30510519,0,41411619,0,41200109,0,20800219,10101209,41310409,0,32000209,0,30910009,10010909,-3121041,0,0
17,103,456.88504492864,1,0,639294.638116391,639295.685100106,4,0,1,4,3,44852870,0,31323328,0,40811819,0,0,-4041051,0,0,0,0,0,0,0,0,0,0,0,0,0,0,0,21311819,0,10011509,0,0,0,0,0,0,0,0,0,0,0,0,0,0
17,104,387.096242164262,0,0,639297.190913017,639298.237932919,4,0,0,20,3,0,20000109,4160161,51922518,0,0,0,0,0,0,0,0,0,0,0,0,20000109,0,0,0,0,0,0,-4160161,0,0,0,0,0,0,0,21911309,0,0,0,30011209,0,0,0,0
17,105,612.919731414877,0,0,639312.967108648,639314.013986114,5,0,0,34,19,156725055,135236865,123634985,104833857,0,0,41800409,0,21501009,0,40911609,41701019,10811009,20300009,0,0,0,0,41611919,20011509,11711809,41601619,11511519,0,30200519,0,10311809,30910519,40700619,0,0,0,10310919,40310219,0,0,10100019,-3001191,0,41111509
17,106,681.39889696613,0,0,639315.649231369,639316.69630093,5,0,0,18,9,20611719,57416077,30411309,93422637,20611719,0,0,0,0,0,0,0,0,21501519,0,0,11900019,0,0,10712009,11211409,-2091121,0,30411309,0,0,0,0,0,0,0,30811219,32001409,0,0,0,30610009,0,0,0
17,107,471.574770286679,1,0,639318.449174087,639319.496205537,5,1,1,5,19,107114207,154743565,115434565,155125075,30810509,0,30910819,0,-4181151,0,30301009,0,10910719,0,30600019,40711319,0,30811609,41810309,10810309,0,0,0,21611119,0,10911109,0,21500209,30811219,0,30600909,41401319,30011419,0,0,0,20110009,0,42001109,21601219
17,108,528.818850056268,0,0,639321.013856767,639322.060852416,5,1,0,10,31,199847932,197499332,225357712,180357293,21412019,10601519,41010509,12000619,31400219,41011119,0,31500809,10911119,-1130100,30710119,32012019,21511219,10411709,10400519,20212009,30500919,40610719,40310509,20310419,31910109,20111109,31110719,40801519,20001309,20802019,0,41211419,11800609,12010709,11811109,30011619,0,31901419,0,41610409
17,109,575.651660794392,1,0,639323.801971174,639324.848996851,5,0,1,4,3,4150021,51512638,0,30100119,0,0,0,-4150021,0,0,0,0,0,0,0,0,0,0,0,21101319,0,30411319,0,0,0,0,0,0,0,0,0,0,0,0,0,0,0,0,30100119,0
17,110,760.022168746218,1,0,639326.613650582,639327.660682803,5,0,1,20,31,160160932,184239312,200697414,201548331,20001119,11801209,11912019,31011419,0,32012019,31710609,11501819,10210719,40901719,10110319,40412019,10500309,0,10000109,11001309,30802019,30511509,20801819,-4071020,41610609,30200509,41501019,0,0,20511719,42000719,31401119,31001009,11410009,10101619,41201509,31910319,12011009,21310119,11201619
17,111,710.163949872367,0,0,639329.625382267,639330.672360208,5,1,0,19,9,85721837,72313557,24721959,43321418,0,0,0,0,22010109,0,21700319,0,42011409,0,0,30510819,0,0,21100919,20701819,0,0,-3021150,0,0,0,0,0,0,21700809,0,11510909,31810509,0,0,0,0,0,0,0
17,112,806.002675904892,1,0,639332.448789126,639333.507577669,5,1,1,12,19,143115656,140216085,146634355,94802956,31301019,0,41101809,30011919,0,0,0,40700909,0,10701209,10111019,-4191011,0,12001509,41400109,41200109,20611119,0,20711809,0,0,22001109,30710819,32010409,0,41200209,0,31400819,0,0,0,31801009,21500909,10100219,0,0
17,113,707.473457790911,0,0,639335.378120687,639336.437053206,5,1,0,14,31,248960801,176307415,268758111,186948302,31201509,31510109,30211909,41000109,21300309,30212019,21611809,10501519,31411509,0,30411719,0,31011609,-2061140,40900709,31510619,40411619,0,31110519,31711319,10610609,41200809,10400409,41301309,30401019,40111109,31911009,11101809,20411719,0,30300619,20610409,11311009,31201609,21010619,41000509
17,114,863.073721993715,1,0,639338.29570709,639339.342527768,5,1,1,32,9,53513338,10200509,82823337,87083187,0,42001619,0,0,0,0,0,0,11511719,0,0,0,0,10200509,0,0,0,0,0,0,0,0,0,20401009,0,40411509,22010819,0,10510819,30501109,41910219,-4161040,0,0,0,0
17,115,517.668455955572,0,0,639341.342676562,639342.389754592,5,0,0,15,9,0,218689514,51524028,0,0,0,0,0,0,0,0,0,0,41410409,40311919,10410509,30511319,11101319,-2131111,41901919,40911009,0,40212009,0,11312019,0,0,0,0,0,0,0,0,0,0,0,0,0,0,0
17,116,546.454296680167,0,0,639343.977919122,639345.024914001,5,1,0,11,0,0,0,0,0,0,0,0,0,0,0,0,0,0,0,-10301701,0,0,0,0,0,0,0,0,0,0,0,0,0,0,0,0,0,0,0,0,0,0,0,0,0
17,117,532.209971221164,0,0,639346.660218155,639347.707193401,5,1,0,33,19,52401138,185546022,162443865,88644466,0,0,0,0,30901119,21500019,0,0,0,0,20000819,21500219,20311919,10710519,20010909,40710609,41100719,11200309,0,40510609,40012009,0,30100209,41010019,0,10811019,0,0,0,31700509,0,31300519,-2021010,0,12011309,11611119
17,118,522.045846912079,1,0,639349.295401431,639350.342429417,5,0,1,22,9,187237684,31600609,3011011,81222118,41901509,31611719,0,41510319,31212009,10200609,30801519,0,0,0,0,0,0,0,0,0,0,31600609,0,0,0,-3011011,0,0,0,0,0,40311309,0,0,0,0,0,0,0,40910809
17,119,604.83516624663,0,0,639352.036528658,639353.083533161,5,0,0,28,31,105845484,250449821,266556911,208770393,0,20610509,21810319,0,10401809,10501119,31110519,11411209,0,31100909,11901419,31400909,20710009,21111309,40011509,42001319,41810619,10401819,31700419,40110409,10601609,20210209,31210219,30901009,30501509,41211309,30110219,-4110080,20201819,30311509,31011719,21711209,0,40110919,31011619,30301519
17,120,565.211904468015,1,0,639354.754069327,639355.801097698,5,0,1,35,3,11700809,10310719,41311909,4030171,0,11700809,0,0,0,0,0,0,0,0,0,0,10310719,0,0,0,0,0,0,0,41311909,0,0,0,0,0,0,0,0,0,0,0,0,0,-4030171,0
17,121,592.111051664688,1,0,639357.436358351,639358.483386722,5,1,1,2,3,32692370,0,12010819,41401219,0,-1081061,0,0,0,0,0,0,31611309,0,0,0,0,0,0,0,0,0,0,0,0,0,12010819,0,0,0,0,0,0,0,0,0,41401219,0,0,0
17,122,479.924958432093,1,0,639360.083349535,639361.130441424,5,0,1,13,3,22001009,1150100,21411619,10801209,0,0,0,0,0,0,22001009,0,0,0,0,0,-1150100,0,0,0,0,0,0,0,0,0,21411619,0,0,0,0,0,0,0,10801209,0,0,0,0,0
17,123,626.355253974907,0,0,639362.683272312,639363.742078178,5,1,0,8,31,209437293,145453072,268379411,145346583,20301309,11300609,31611509,40711009,21111319,40800309,40600109,-3001120,0,11611809,10501409,10411309,0,10901709,40001409,42012009,10001409,10012009,30311519,41100109,32011019,10611109,20311209,42001019,10410709,40311709,41311009,30401409,10100019,0,0,42011309,31511009,10411419,10601409,10310009
17,124,946.109987678938,0,0,639365.389127876,639366.436138539,5,1,0,36,3,21100119,0,41501919,31731719,21100119,0,0,0,0,0,0,0,0,0,0,0,0,0,0,0,0,0,0,0,0,0,41501919,0,0,0,0,30611619,0,0,0,0,0,0,0,-1120100
17,125,760.967632872052,1,0,639368.424366047,639369.47132705,5,0,1,17,19,51512438,77721608,138834694,188557812,0,0,0,0,0,0,20711619,0,30800819,0,0,31110319,0,0,0,11200419,-4100051,31310819,10910309,41311019,0,0,42001309,11700319,11701119,21210619,0,30311209,21700019,41111909,31800109,10501019,10811209,11810519,0,30511819
17,126,480.9354810277,0,0,639371.424224382,639372.471333209,5,1,0,27,3,0,0,44450850,62212628,0,0,0,0,0,0,0,0,0,0,0,0,0,0,0,0,0,0,0,0,0,0,0,0,0,41300709,-3150141,0,0,0,0,0,0,0,40511009,21701619
17,127,587.801798596047,1,0,639374.071196702,639375.11831092,5,0,1,31,19,154848094,123812955,145247784,54180919,20400819,31010419,0,41711119,20111809,30102019,11511909,0,0,30600209,0,30300409,20900719,20410309,0,0,0,21601309,20811909,40010919,0,22001209,0,31112009,10910819,20400919,0,0,12000509,40100409,-2080001,0,0,0,0,0
17,128,651.565192500129,1,0,639376.847397538,639377.906463823,5,0,1,30,31,240039741,135826284,237078211,181278124,22001619,41401609,20200909,40611519,42000119,31601019,10200119,21811419,10211409,0,0,20612009,40500109,11900509,30801619,0,10311719,21700319,40300019,30500009,40811309,20210309,11511109,20911709,11810309,40811719,20211719,40201519,0,-4030021,10611419,41810519,22010209,10201909,31701009,20711519
17,129,452.246434870176,1,0,639379.671077518,639380.717885907,5,1,1,3,9,14250319,92312066,60821618,42811628,0,0,-4150200,10100119,0,0,0,0,0,0,20000319,0,10410219,0,31001319,30900209,0,0,0,0,0,0,30710909,30110709,0,0,0,0,0,0,31410319,0,0,11401309,0,0
17,130,704.683645628393,0,0,639382.282551763,639383.34155363,5,0,0,30,0,0,0,0,0,0,0,0,0,0,0,0,0,0,0,0,0,0,0,0,0,0,0,0,0,0,0,0,0,0,0,0,0,0,-41201801,0,0,0,0,0,0
17,131,590.153910219669,1,0,639389.51764333,639390.564876413,6,0,1,18,31,215736313,170269973,232980611,178127012,41000019,20311119,40201309,20301419,20611519,32000809,0,0,41310119,31312009,40602019,10401309,11610909,0,10200709,22001119,40001719,-4140180,31701009,11610819,11511919,11311909,41012009,31900409,31010409,21110119,41812009,11101809,20311509,31610119,30001609,31800009,11100119,0,31101819,11100019
17,132,672.595496755093,0,0,639392.270719274,639393.329306595,6,0,0,31,31,275360911,199255132,187548302,137316855,40711019,31411709,31702009,40511709,20200509,30101809,20510309,30101719,30110119,20802019,0,10810009,21910119,40700519,32010709,30210119,21300319,21511319,10010709,41710009,10701909,10402019,0,30811209,21300419,31711919,30900109,0,20700819,40511019,-1080151,21101509,11401519,11310919,31210919,0
17,133,575.689083547331,1,0,639395.02358704,639396.070405526,6,1,1,36,3,21100119,0,41501919,31731719,21100119,0,0,0,0,0,0,0,0,0,0,0,0,0,0,0,0,0,0,0,0,0,41501919,0,0,0,0,30611619,0,0,0,0,0,0,0,-1120100
17,134,389.843708602712,1,1,639397.847120936,639398.894075779,6,0,0,17,9,72623947,55952338,22511138,81011918,31111619,0,30701619,0,0,0,10810709,0,0,0,0,0,0,0,41401409,10410919,-4140010,0,0,11810119,0,0,0,0,10701019,0,0,0,0,0,0,40300409,0,40711509,0,0
17,135,504.862344590947,0,0,639400.399934885,639401.446936694,6,0,0,15,19,32222357,105625066,135434755,190637203,0,10310519,0,0,0,0,11111219,0,10800619,0,32000319,22010109,10311709,40201809,-1101120,0,0,0,0,20611109,10910709,0,0,31901709,41900409,0,30110819,0,41500609,22011419,11800609,31811319,21002019,0,40610209,21901019
17,136,517.145678866655,1,0,639403.105714612,639404.152737978,6,0,1,35,9,101213047,82824347,30612019,23193529,0,0,0,0,20000709,0,0,40701219,40511119,0,0,0,31210619,41511709,0,10102019,0,0,0,0,0,30612019,0,0,0,0,0,0,11001419,0,0,10001019,0,0,-2191091,0
17,137,5000,-1,-1,639405.881913021,639406.929144953,6,1,0,33,19,52401138,185546022,162443865,88644466,0,0,0,0,30901119,21500019,0,0,0,0,20000819,21500219,20311919,10710519,20010909,40710609,41100719,11200309,0,40510609,40012009,0,30100209,41010019,0,10811019,0,0,0,31700509,0,31300519,-2021010,0,12011309,11611119
17,138,1325.53405524231,0,0,639414.069921925,639415.117155652,6,0,0,4,3,33692859,30300419,20600209,0,0,0,30511819,-3181040,0,0,0,0,0,0,0,0,0,0,0,0,0,30300419,0,0,0,0,20600209,0,0,0,0,0,0,0,0,0,0,0,0,0
17,139,951.587597141042,1,0,639417.48193157,639418.529048482,6,0,1,13,3,52310538,33001519,0,0,0,0,0,0,40310219,0,0,0,12000319,0,0,0,-1200200,0,0,0,0,31801319,0,0,0,0,0,0,0,0,0,0,0,0,0,0,0,0,0,0
17,140,509.032241767272,1,0,639420.528789788,639421.575815079,6,1,1,27,3,0,0,44450850,62212628,0,0,0,0,0,0,0,0,0,0,0,0,0,0,0,0,0,0,0,0,0,0,0,0,0,41300709,-3150141,0,0,0,0,0,0,0,40511009,21701619
17,141,429.357256507501,0,0,639423.199294387,639424.246310439,6,1,0,14,31,248960801,176307415,268758111,186948302,31201509,31510109,30211909,41000109,21300309,30212019,21611809,10501519,31411509,0,30411719,0,31011609,-2061140,40900709,31510619,40411619,0,31110519,31711319,10610609,41200809,10400409,41301309,30401019,40111109,31911009,11101809,20411719,0,30300619,20610409,11311009,31201609,21010619,41000509
17,142,485.434904694557,1,0,639425.705153108,639426.752154146,6,1,1,5,19,107114207,154743565,115434565,155125075,30810509,0,30910819,0,-4181151,0,30301009,0,10910719,0,30600019,40711319,0,30811609,41810309,10810309,0,0,0,21611119,0,10911109,0,21500209,30811219,0,30600909,41401319,30011419,0,0,0,20110009,0,42001109,21601219
17,143,657.529392628931,0,0,639428.352091937,639429.399113378,6,0,0,30,3,31600909,11501409,40401319,1200021,0,0,0,0,0,0,0,0,31600909,0,0,0,0,0,11501409,0,0,0,0,0,0,0,0,0,0,40401319,0,0,0,-1200021,0,0,0,0,0,0
17,144,503.486849600449,0,0,639431.187114937,639432.234132998,6,0,0,19,0,0,0,0,0,0,0,0,0,0,0,0,0,0,0,0,0,0,0,0,0,0,0,-30900391,0,0,0,0,0,0,0,0,0,0,0,0,0,0,0,0,0
17,145,541.882885270752,0,0,639433.857822466,639434.90486354,6,1,0,2,3,32692370,0,12010819,41401219,0,-1081061,0,0,0,0,0,0,31611309,0,0,0,0,0,0,0,0,0,0,0,0,0,12010819,0,0,0,0,0,0,0,0,0,41401219,0,0,0
17,146,647.148920223117,1,0,639436.622476197,639437.669542679,6,0,1,20,19,74423776,132833284,103763207,152613355,0,10910219,0,12011819,0,40001719,11500019,0,0,0,11210209,0,0,10010719,40100109,20801419,40410319,10300509,0,-1140151,40910219,0,0,30400209,20901119,0,10411509,30400409,0,40301609,40600109,10301019,0,31010209,0,0
17,147,585.879303631373,1,0,639439.516531091,639440.563529435,6,1,1,32,9,53513338,10200509,82823337,87083187,0,42001619,0,0,0,0,0,0,11511719,0,0,0,0,10200509,0,0,0,0,0,0,0,0,0,20401009,0,40411509,22010819,0,10510819,30501109,41910219,-4161040,0,0,0,0
17,148,507.535128504969,1,0,639442.339957967,639443.387013285,6,1,1,11,0,0,0,0,0,0,0,0,0,0,0,0,0,0,0,-10301701,0,0,0,0,0,0,0,0,0,0,0,0,0,0,0,0,0,0,0,0,0,0,0,0,0
17,149,454.247677349485,1,0,639445.06929769,639446.116318746,6,1,1,3,9,14250319,92312066,60821618,42811628,0,0,-4150200,10100119,0,0,0,0,0,0,20000319,0,10410219,0,31001319,30900209,0,0,0,0,0,0,30710909,30110709,0,0,0,0,0,0,31410319,0,0,11401309,0,0
17,150,507.127839839086,1,0,639447.669228551,639448.716246913,6,1,1,8,31,209437293,145453072,268379411,145346583,20301309,11300609,31611509,40711009,21111319,40800309,40600109,-3001120,0,11611809,10501409,10411309,0,10901709,40001409,42012009,10001409,10012009,30311519,41100109,32011019,10611109,20311209,42001019,10410709,40311709,41311009,30401409,10100019,0,0,42011309,31511009,10411419,10601409,10310009
17,151,638.798732077703,0,0,639450.292702469,639451.339715827,6,1,0,10,31,199847932,197499332,225357712,180357293,21412019,10601519,41010509,12000619,31400219,41011119,0,31500809,10911119,-1130100,30710119,32012019,21511219,10411709,10400519,20212009,30500919,40610719,40310509,20310419,31910109,20111109,31110719,40801519,20001309,20802019,0,41211419,11800609,12010709,11811109,30011619,0,31901419,0,41610409
17,152,593.942311010323,0,0,639453.033791586,639454.092594372,6,0,0,28,31,211847841,156045283,188538322,178659554,41210709,12000119,21900019,30500909,21011519,12012019,12001309,30210019,31001219,20501109,20401709,10200809,12010119,40610619,30610709,0,21710209,0,41400719,10301419,11010919,41701809,31210009,21601809,21110619,0,10201019,-3031141,20301009,30211819,22001009,21200419,10100619,30511519,0,41302019
17,153,574.934519361705,1,0,639455.845529507,639456.892294909,6,1,1,12,19,143115656,140216085,146634355,94802956,31301019,0,41101809,30011919,0,0,0,40700909,0,10701209,10111019,-4191011,0,12001509,41400109,41200109,20611119,0,20711809,0,0,22001109,30710819,32010409,0,41200209,0,31400819,0,0,0,31801009,21500909,10100219,0,0
17,154,490.007855929434,0,0,639458.551291526,639459.598311043,6,1,0,19,9,85721837,72313557,24721959,43321418,0,0,0,0,22010109,0,21700319,0,42011409,0,0,30510819,0,0,21100919,20701819,0,0,-3021150,0,0,0,0,0,0,21700809,0,11510909,31810509,0,0,0,0,0,0,0
17,155,650.429557543248,0,0,639461.16297794,639462.210006696,6,0,0,22,9,74903147,0,27013569,114722346,21802009,0,0,0,0,0,41600519,11500619,0,0,0,0,0,0,0,0,0,0,11312009,0,0,-4001041,0,0,0,0,11700519,0,11510009,31101309,0,0,0,0,42000509,30110519
17,156,646.483707707375,1,0,639464.021722674,639465.068762594,6,0,1,34,19,186418674,51121428,107014184,74478005,0,0,20701819,0,40101609,11401419,40901909,32001909,41310009,0,0,0,0,41111409,10010019,0,0,0,21800409,0,11300119,20301109,0,0,10700719,11200419,31711409,10311819,10001009,21211419,0,10411019,21411609,-1131130,0,0
17,157,586.46328933537,0,0,639484.703514714,639485.750544625,7,1,0,2,3,32692370,0,12010819,41401219,0,-1081061,0,0,0,0,0,0,31611309,0,0,0,0,0,0,0,0,0,0,0,0,0,12010819,0,0,0,0,0,0,0,0,0,41401219,0,0,0
17,158,603.746111737564,0,0,639487.456377861,639488.503407387,7,1,0,27,3,0,0,44450850,62212628,0,0,0,0,0,0,0,0,0,0,0,0,0,0,0,0,0,0,0,0,0,0,0,0,0,41300709,-3150141,0,0,0,0,0,0,0,40511009,21701619
17,159,577.863646438345,0,0,639490.268073822,639491.315097958,7,0,0,22,31,260049931,194136873,169080103,248954932,40411019,11410709,42001619,21700719,40211909,41511519,30901509,20700019,11200909,0,20510409,0,20201019,41610109,20001509,10201309,40101409,41511109,20910509,41801819,10300709,-2131030,30512009,0,11910809,20301909,31211309,40700019,0,21710619,40411719,41910819,31100719,11010319,21300009,40810709
17,160,656.070005614311,0,0,639492.926825178,639493.973849314,7,0,0,30,31,248639431,197956502,237651011,128945905,20712009,10301209,31000919,20802009,30600519,41200009,22010219,41201419,30811119,10911309,21611919,30811009,20610319,11200109,0,41300519,41111109,20400209,31600709,40900809,11011819,10801819,20410209,41901109,20511809,30210919,30301809,21801209,0,-4031130,20401819,0,0,40701019,31810109,10200619
17,161,759.796581696719,1,0,639495.703264874,639496.750233961,7,0,1,18,19,186136984,99175007,94724356,97244065,0,21200309,0,41511219,21110309,41001219,0,20811919,40502009,31410819,11901709,21110919,0,0,0,0,31711509,-3040051,11711919,30600109,11711619,0,0,0,0,40700709,0,31800319,11611309,31210309,12011409,0,0,10610719,0,0
17,162,650.075393496081,0,0,639498.514892312,639499.561922993,7,1,0,36,3,21100119,0,41501919,31731719,21100119,0,0,0,0,0,0,0,0,0,0,0,0,0,0,0,0,0,0,0,0,0,41501919,0,0,0,0,30611619,0,0,0,0,0,0,0,-1120100
17,163,476.196226547472,0,0,639501.314884305,639502.361856857,7,0,0,17,3,10310319,4140001,0,52112518,0,0,0,0,10310319,0,0,0,0,0,0,0,0,0,0,0,-4140001,0,0,0,0,0,0,0,0,0,0,0,30211909,0,0,21900609,0,0,0,0
17,164,557.700161356479,0,0,639503.950045638,639504.997143687,7,1,0,33,19,52401138,185546022,162443865,88644466,0,0,0,0,30901119,21500019,0,0,0,0,20000819,21500219,20311919,10710519,20010909,40710609,41100719,11200309,0,40510609,40012009,0,30100209,41010019,0,10811019,0,0,0,31700509,0,31300519,-2021010,0,12011309,11611119
17,165,501.245251391083,0,0,639506.561733592,639507.608766197,7,0,0,34,9,72712847,51012438,80922347,42291590,0,40200619,0,0,0,21601519,0,10910709,0,0,30200919,0,0,20811519,0,0,0,0,0,0,30610209,0,0,0,0,10001919,40310219,0,0,0,40101419,0,0,-2190171,0,0
17,166,826.326304930262,1,0,639509.220489567,639510.267520633,7,1,1,12,19,143115656,140216085,146634355,94802956,31301019,0,41101809,30011919,0,0,0,40700909,0,10701209,10111019,-4191011,0,12001509,41400109,41200109,20611119,0,20711809,0,0,22001109,30710819,32010409,0,41200209,0,31400819,0,0,0,31801009,21500909,10100219,0,0
17,167,558.4754726151,1,0,639512.126318877,639513.173330695,7,0,1,15,19,205730093,138225315,113314356,44123937,0,0,20000819,41602009,20611509,41001909,10211019,31602009,40700819,41711719,0,0,0,30011219,-2070040,21710919,11810409,30911009,0,0,10101909,0,41500919,0,41011119,20700409,0,0,0,20611209,0,0,0,0,11700809,11811919
17,168,484.583756071515,0,0,639514.926012866,639515.973243771,7,1,0,3,9,14250319,92312066,60821618,42811628,0,0,-4150200,10100119,0,0,0,0,0,0,20000319,0,10410219,0,31001319,30900209,0,0,0,0,0,0,30710909,30110709,0,0,0,0,0,0,31410319,0,0,11401309,0,0
17,169,750.294590252452,1,0,639517.514384549,639518.56140599,7,0,1,31,31,178249823,206458302,277348412,160897503,0,21501419,21811609,41500719,30211819,0,11301419,20610819,31312019,41210609,11801519,10310109,40911619,0,10500809,40511309,10310809,40901519,30111509,0,41410209,41901519,40210519,40310519,41201909,31501919,10700309,10210509,10200419,41600209,-4071201,30801309,31610319,10500219,11401509,10501809
17,170,637.563007418066,1,0,639520.373347556,639521.420153035,7,0,1,28,9,42001109,52411618,61022118,115565836,0,0,0,0,0,0,0,42001109,0,31701509,0,0,0,0,20710109,0,0,0,0,0,0,0,0,20511809,0,40510309,0,-4031180,10311419,0,40110609,0,30311409,30801219,0,0
17,171,565.974897122942,1,0,639523.13783152,639524.184852191,7,1,1,8,31,209437293,145453072,268379411,145346583,20301309,11300609,31611509,40711009,21111319,40800309,40600109,-3001120,0,11611809,10501409,10411309,0,10901709,40001409,42012009,10001409,10012009,30311519,41100109,32011019,10611109,20311209,42001019,10410709,40311709,41311009,30401409,10100019,0,0,42011309,31511009,10411419,10601409,10310009
17,172,570.441214251332,0,0,639525.914168432,639526.961228754,7,0,0,13,3,30410009,3170090,71212428,0,0,0,0,0,30410009,0,0,0,0,0,0,0,-3170090,0,0,0,0,0,0,0,0,0,40100909,0,0,31111519,0,0,0,0,0,0,0,0,0,0
17,173,627.819943474606,1,0,639528.596434358,639529.678563171,7,1,1,5,19,107114207,154743565,115434565,155125075,30810509,0,30910819,0,-4181151,0,30301009,0,10910719,0,30600019,40711319,0,30811609,41810309,10810309,0,0,0,21611119,0,10911109,0,21500209,30811219,0,30600909,41401319,30011419,0,0,0,20110009,0,42001109,21601219
17,174,542.628169758245,1,0,639531.466744901,639532.513976105,7,1,1,10,31,199847932,197499332,225357712,180357293,21412019,10601519,41010509,12000619,31400219,41011119,0,31500809,10911119,-1130100,30710119,32012019,21511219,10411709,10400519,20212009,30500919,40610719,40310509,20310419,31910109,20111109,31110719,40801519,20001309,20802019,0,41211419,11800609,12010709,11811109,30011619,0,31901419,0,41610409
17,175,615.564028266817,1,0,639534.266869664,639535.313905349,7,1,1,19,9,85721837,72313557,24721959,43321418,0,0,0,0,22010109,0,21700319,0,42011409,0,0,30510819,0,0,21100919,20701819,0,0,-3021150,0,0,0,0,0,0,21700809,0,11510909,31810509,0,0,0,0,0,0,0
17,176,664.817088516429,0,0,639536.972769114,639538.019713563,7,1,0,32,9,53513338,10200509,82823337,87083187,0,42001619,0,0,0,0,0,0,11511719,0,0,0,0,10200509,0,0,0,0,0,0,0,0,0,20401009,0,40411509,22010819,0,10510819,30501109,41910219,-4161040,0,0,0,0
17,177,561.403870698996,1,0,639539.702060716,639540.749074844,7,0,1,35,9,30911009,114344365,0,84183948,0,0,0,0,30911009,0,0,0,0,30910619,0,30811209,20602009,0,0,20310019,0,11710509,0,0,0,0,0,0,0,0,0,0,10011409,0,0,40210809,0,31811619,-2150111,0
17,178,543.995166081004,0,0,639542.419676838,639543.466645155,7,1,0,11,0,0,0,0,0,0,0,0,0,0,0,0,0,0,0,-10301701,0,0,0,0,0,0,0,0,0,0,0,0,0,0,0,0,0,0,0,0,0,0,0,0,0
17,179,789.651074213907,1,0,639545.148920705,639546.195956775,7,0,1,17,0,0,0,0,0,0,0,0,0,0,0,0,0,0,0,0,0,0,0,0,0,-20910101,0,0,0,0,0,0,0,0,0,0,0,0,0,0,0,0,0,0,0
17,180,514.954096172005,1,0,639548.066507878,639549.113528549,7,1,1,14,31,248960801,176307415,268758111,186948302,31201509,31510109,30211909,41000109,21300309,30212019,21611809,10501519,31411509,0,30411719,0,31011609,-2061140,40900709,31510619,40411619,0,31110519,31711319,10610609,41200809,10400409,41301309,30401019,40111109,31911009,11101809,20411719,0,30300619,20610409,11311009,31201609,21010619,41000509
17,181,707.587406155653,0,0,639550.748788818,639551.795810259,7,0,0,20,19,73321737,158436774,149195945,106505056,0,21510809,0,0,0,0,40610709,11200219,0,0,21311509,31901109,0,41710419,40500809,11912019,0,11100909,31411519,-2050151,0,11400509,0,21910819,21011619,31000019,30411309,0,0,0,41901009,30900919,0,0,22001919,11701209
17,182,429.108571843244,1,0,639553.619291415,639554.666317091,7,0,1,4,3,4081121,0,20811219,70520618,0,0,0,-4081121,0,0,0,0,0,0,0,0,0,0,0,0,0,0,0,20811219,0,0,0,0,0,0,0,0,30110309,0,0,0,0,0,40410309,0
17,183,529.303515912034,0,0,639562.677875159,639563.724897371,8,0,0,17,19,176535065,137604256,114436085,135034155,31801719,40510909,0,21300509,0,0,41211419,41710509,0,30111019,0,0,20101719,0,41300919,41910509,-4180090,0,0,41011919,31710719,0,0,21401819,0,10301209,10010419,21910809,0,11700819,0,0,40001509,30111009,31310009,0
17,184,492.466986645013,0,0,639565.324847095,639566.371888939,8,1,0,3,9,14250319,92312066,60821618,42811628,0,0,-4150200,10100119,0,0,0,0,0,0,20000319,0,10410219,0,31001319,30900209,0,0,0,0,0,0,30710909,30110709,0,0,0,0,0,0,31410319,0,0,11401309,0,0
17,185,835.283961496316,1,0,639568.007133424,639569.05415602,8,0,1,31,19,154212265,175635874,106435875,64334387,30100509,40300519,21500909,0,0,0,31900019,30410309,0,11312009,41510009,0,30611819,0,21600119,30100309,0,40501609,0,21800309,0,0,0,11111719,30811909,11301919,31410019,11310009,0,0,-1011050,0,0,0,40211909,11801419
17,186,592.224615043961,0,0,639570.960003038,639572.00702294,8,0,0,2,0,0,0,0,0,0,-21900891,0,0,0,0,0,0,0,0,0,0,0,0,0,0,0,0,0,0,0,0,0,0,0,0,0,0,0,0,0,0,0,0,0,0
17,187,499.192254501395,1,0,639573.712863491,639574.759889552,8,0,1,35,9,33002328,42621128,53713328,84743898,11400609,21601719,0,0,0,0,0,0,0,0,0,0,21410019,0,0,0,21211109,0,0,41712009,12001319,0,0,0,0,0,0,30401209,0,21310819,0,0,0,32000709,-1031161,0
17,188,564.95975505095,0,0,639576.394926485,639577.442162023,8,0,0,13,31,166360213,149964564,268050251,217938451,21101719,21911419,30111809,11501209,20711819,30311119,0,30711119,0,0,11700119,31111819,-3040070,31310809,20300919,11900209,40600619,0,20001119,21401709,41701709,21400119,40110619,40611119,10500919,31611619,40711319,21711919,21800119,40301119,10210219,20001409,11610419,41600119,30501619,20201509
17,189,638.372195302509,0,0,639579.206826148,639580.253853749,8,1,0,14,31,248960801,176307415,268758111,186948302,31201509,31510109,30211909,41000109,21300309,30212019,21611809,10501519,31411509,0,30411719,0,31011609,-2061140,40900709,31510619,40411619,0,31110519,31711319,10610609,41200809,10400409,41301309,30401019,40111109,31911009,11101809,20411719,0,30300619,20610409,11311009,31201609,21010619,41000509
17,190,608.92229678575,0,0,639582.042048613,639583.089071595,8,1,0,5,19,107114207,154743565,115434565,155125075,30810509,0,30910819,0,-4181151,0,30301009,0,10910719,0,30600019,40711319,0,30811609,41810309,10810309,0,0,0,21611119,0,10911109,0,21500209,30811219,0,30600909,41401319,30011419,0,0,0,20110009,0,42001109,21601219
17,191,627.934748772532,0,0,639584.877259914,639585.924349109,8,0,0,18,31,211568912,146257325,259446811,218037712,32011019,11001819,42012019,20611209,22011209,0,21711619,21500009,40710009,30200219,20301819,21100209,21611909,40600519,0,0,10411619,-2031031,41000409,40110709,41201409,31501109,10810519,30810609,20400319,11701419,31910309,30800819,11512009,31200319,11800319,30900209,41810909,30011609,30001519,0
17,192,490.836676908657,0,0,639587.630129221,639588.677233814,8,0,0,34,3,11911409,11301009,10711709,4081021,0,0,0,0,11911409,0,0,0,0,11301009,0,0,0,0,0,0,0,0,0,0,0,0,0,10711709,0,0,0,0,0,0,0,0,0,-4081021,0,0
17,193,587.211771402508,1,0,639590.335935125,639591.382758579,8,1,1,8,31,209437293,145453072,268379411,145346583,20301309,11300609,31611509,40711009,21111319,40800309,40600109,-3001120,0,11611809,10501409,10411309,0,10901709,40001409,42012009,10001409,10012009,30311519,41100109,32011019,10611109,20311209,42001019,10410709,40311709,41311009,30401409,10100019,0,0,42011309,31511009,10411419,10601409,10310009
17,194,724.506055470556,1,0,639593.147629546,639594.194658302,8,1,1,32,9,53513338,10200509,82823337,87083187,0,42001619,0,0,0,0,0,0,11511719,0,0,0,0,10200509,0,0,0,0,0,0,0,0,0,20401009,0,40411509,22010819,0,10510819,30501109,41910219,-4161040,0,0,0,0
17,195,554.607384954579,1,0,639596.06525714,639597.112248169,8,1,1,33,19,52401138,185546022,162443865,88644466,0,0,0,0,30901119,21500019,0,0,0,0,20000819,21500219,20311919,10710519,20010909,40710609,41100719,11200309,0,40510609,40012009,0,30100209,41010019,0,10811019,0,0,0,31700509,0,31300519,-2021010,0,12011309,11611119
17,196,432.734134141356,1,0,639598.86512556,639599.912145462,8,0,1,22,3,51711538,0,2190060,11810309,0,0,21111219,0,30600319,0,0,0,0,0,0,0,0,0,0,0,0,0,0,0,0,-2190060,0,0,0,0,0,0,0,0,0,0,0,0,0,11810309
17,197,487.230362603441,0,0,639601.488591009,639602.535610141,8,0,0,15,9,73604027,63331828,93222637,22000419,31201909,21101309,0,0,0,0,0,21300809,0,0,0,0,0,0,-2030200,20700719,0,40600909,0,0,0,20111209,31301209,0,0,41810219,0,0,0,0,0,0,0,0,22000419,0
17,198,718.145730439574,0,0,639604.182617493,639605.229643939,8,1,0,36,3,21100119,0,41501919,31731719,21100119,0,0,0,0,0,0,0,0,0,0,0,0,0,0,0,0,0,0,0,0,0,41501919,0,0,0,0,30611619,0,0,0,0,0,0,0,-1120100
17,199,483.928552479483,1,0,639606.959014844,639608.00603513,8,1,1,10,31,199847932,197499332,225357712,180357293,21412019,10601519,41010509,12000619,31400219,41011119,0,31500809,10911119,-1130100,30710119,32012019,21511219,10411709,10400519,20212009,30500919,40610719,40310509,20310419,31910109,20111109,31110719,40801519,20001309,20802019,0,41211419,11800609,12010709,11811109,30011619,0,31901419,0,41610409
17,200,596.425694180653,0,0,639609.641295014,639610.688322615,8,1,0,27,3,0,0,44450850,62212628,0,0,0,0,0,0,0,0,0,0,0,0,0,0,0,0,0,0,0,0,0,0,0,0,0,41300709,-3150141,0,0,0,0,0,0,0,40511009,21701619
17,201,593.781782197766,1,0,639612.347158662,639613.394123514,8,0,1,28,9,20010819,54433447,42323847,54721189,0,0,20010819,0,0,0,0,0,0,0,0,11611109,21311119,0,21511219,0,0,0,0,10610119,0,11602009,0,20111719,0,0,0,-3010071,0,0,0,0,0,11410409,0,40300709
17,202,791.332968510687,0,0,639615.017617836,639616.064625034,8,1,0,2,3,32692370,0,12010819,41401219,0,-1081061,0,0,0,0,0,0,31611309,0,0,0,0,0,0,0,0,0,0,0,0,0,12010819,0,0,0,0,0,0,0,0,0,41401219,0,0,0
17,203,555.922796484083,1,0,639618.052905282,639619.099860511,8,1,1,11,0,0,0,0,0,0,0,0,0,0,0,0,0,0,0,-10301701,0,0,0,0,0,0,0,0,0,0,0,0,0,0,0,0,0,0,0,0,0,0,0,0,0
17,204,787.499527214095,1,0,639620.82922718,639621.876249777,8,1,1,12,19,143115656,140216085,146634355,94802956,31301019,0,41101809,30011919,0,0,0,40700909,0,10701209,10111019,-4191011,0,12001509,41400109,41200109,20611119,0,20711809,0,0,22001109,30710819,32010409,0,41200209,0,31400819,0,0,0,31801009,21500909,10100219,0,0
17,205,658.950668410398,1,0,639623.793847343,639624.840877254,8,0,1,30,3,11500509,0,42220728,3040141,0,0,11500509,0,0,0,0,0,0,0,0,0,0,0,0,0,0,0,0,0,31610019,10610709,0,0,0,0,0,0,0,-3040141,0,0,0,0,0,0
17,206,607.223849161528,0,0,639626.652591693,639627.699613904,8,0,0,4,19,45043998,104025994,179239403,61523727,0,0,0,-2111171,0,11310909,0,10910309,20711609,11101419,0,20510019,10401109,21301719,30611319,0,0,10100409,11401319,41201409,0,21611709,0,30311819,12001509,31010519,31701119,0,30300109,0,20911609,0,0,0,0,10312009
17,207,1162.00725850649,1,0,639629.452514778,639630.499541224,8,1,1,19,9,85721837,72313557,24721959,43321418,0,0,0,0,22010109,0,21700319,0,42011409,0,0,30510819,0,0,21100919,20701819,0,0,-3021150,0,0,0,0,0,0,21700809,0,11510909,31810509,0,0,0,0,0,0,0
17,208,624.204477062449,1,0,639632.711248195,639633.75827695,8,0,1,20,31,229570482,257335712,202448853,196357213,11410909,0,41810419,31201609,32011809,40611709,30111709,21311909,21100409,42010509,0,31810409,40001619,20110019,20001809,40600319,41300119,21500909,20400819,-4190131,11211019,40311519,11300709,40610419,21111709,41611919,11700609,11211909,0,20300519,11110019,0,42011719,40411009,30810719,40501319
17,209,652.793217916042,1,0,639639.228716568,639640.275747634,9,1,1,19,9,85721837,72313557,24721959,43321418,0,0,0,0,22010109,0,21700319,0,42011409,0,0,30510819,0,0,21100919,20701819,0,0,-3021150,0,0,0,0,0,0,21700809,0,11510909,31810509,0,0,0,0,0,0,0
17,210,644.361802958883,0,0,639641.958057446,639643.005085047,9,0,0,17,19,183425275,95668666,44203976,134637675,0,0,0,30710609,0,30801219,41001409,40711219,40200819,0,30001109,0,10301219,0,30011709,11101709,-4041201,10211719,10101619,11001319,0,11100219,0,0,0,12000819,0,11201209,0,10212019,0,0,0,41302019,40711019,31211409
17,211,996.598772588186,0,0,639644.66386335,639645.71089634,9,0,0,35,31,268446841,217137013,280538601,135723714,31311519,40610519,40601019,30601609,31310609,31000819,10710519,11400109,40900119,21011409,31211919,42000919,0,0,40700519,41300719,20101319,20810209,41910609,20402009,41101709,40600509,11310709,40200809,41210609,22000719,21800919,0,10100109,11211409,10700409,40610209,20410809,41500709,-1190060,0
17,212,443.197372951545,0,0,639647.840249383,639648.887269669,9,1,0,3,9,14250319,92312066,60821618,42811628,0,0,-4150200,10100119,0,0,0,0,0,0,20000319,0,10410219,0,31001319,30900209,0,0,0,0,0,0,30710909,30110709,0,0,0,0,0,0,31410319,0,0,11401309,0,0
17,213,498.264498542994,0,0,639650.357830165,639651.405156111,9,1,0,10,31,199847932,197499332,225357712,180357293,21412019,10601519,41010509,12000619,31400219,41011119,0,31500809,10911119,-1130100,30710119,32012019,21511219,10411709,10400519,20212009,30500919,40610719,40310509,20310419,31910109,20111109,31110719,40801519,20001309,20802019,0,41211419,11800609,12010709,11811109,30011619,0,31901419,0,41610409
17,214,504.540132242255,0,0,639652.94599046,639653.993015751,9,1,0,11,0,0,0,0,0,0,0,0,0,0,0,0,0,0,0,-10301701,0,0,0,0,0,0,0,0,0,0,0,0,0,0,0,0,0,0,0,0,0,0,0,0,0
17,215,725.54006066639,0,0,639655.592982028,639656.640006549,9,0,0,18,9,32602728,53792388,20011209,83124566,0,11601709,0,0,0,0,0,0,21001019,0,0,30700809,0,0,0,21010509,0,-2081070,0,0,0,20011209,0,0,0,0,0,0,0,30101219,0,30311119,0,10811119,0,11901109
17,216,750.257633975707,1,0,639658.428191789,639659.475216696,9,0,1,13,31,259771012,220497375,207957242,228229621,31011719,41310119,31001709,0,31002009,21511419,40511609,31910409,31512019,21801919,30001219,42010719,-3171181,0,41210509,42000719,40301109,0,41201919,42010419,22000009,20210219,30010719,20311519,20400519,11811919,0,30801609,12001609,20000309,20811209,30500509,22011519,41800919,20001219,30300719
17,217,810.523657477461,1,0,639661.239879281,639662.286905342,9,1,1,5,19,107114207,154743565,115434565,155125075,30810509,0,30910819,0,-4181151,0,30301009,0,10910719,0,30600019,40711319,0,30811609,41810309,10810309,0,0,0,21611119,0,10911109,0,21500209,30811219,0,30600909,41401319,30011419,0,0,0,20110009,0,42001109,21601219
17,218,791.236728313379,1,0,639664.18097679,639665.228017094,9,1,1,32,9,53513338,10200509,82823337,87083187,0,42001619,0,0,0,0,0,0,11511719,0,0,0,0,10200509,0,0,0,0,0,0,0,0,0,20401009,0,40411509,22010819,0,10510819,30501109,41910219,-4161040,0,0,0,0
17,219,751.297028618865,0,0,639667.027955577,639668.074982793,9,1,0,33,19,52401138,185546022,162443865,88644466,0,0,0,0,30901119,21500019,0,0,0,0,20000819,21500219,20311919,10710519,20010909,40710609,41100719,11200309,0,40510609,40012009,0,30100209,41010019,0,10811019,0,0,0,31700509,0,31300519,-2021010,0,12011309,11611119
17,220,478.891723207198,1,0,639669.851409401,639670.898441621,9,0,1,15,3,0,1120011,31001519,73202618,0,0,0,0,0,0,0,0,0,0,0,0,0,0,-1120011,0,0,0,31001519,0,0,0,0,0,0,0,0,41600609,0,0,0,31602009,0,0,0,0
17,221,612.7345651621,1,0,639672.45141148,639673.498362858,9,1,1,8,31,209437293,145453072,268379411,145346583,20301309,11300609,31611509,40711009,21111319,40800309,40600109,-3001120,0,11611809,10501409,10411309,0,10901709,40001409,42012009,10001409,10012009,30311519,41100109,32011019,10611109,20311209,42001019,10410709,40311709,41311009,30401409,10100019,0,0,42011309,31511009,10411419,10601409,10310009
17,222,557.067285524681,1,0,639675.263023904,639676.310051505,9,1,1,2,3,32692370,0,12010819,41401219,0,-1081061,0,0,0,0,0,0,31611309,0,0,0,0,0,0,0,0,0,0,0,0,0,12010819,0,0,0,0,0,0,0,0,0,41401219,0,0,0
17,223,975.775464321487,0,0,639678.03951865,639679.08645001,9,0,0,30,31,168527432,248846712,286049631,207985265,0,10600619,32001919,21110109,32000919,10500019,40710819,10201809,11401219,21100319,10301409,30710619,41800309,0,41911509,31900119,40311709,30810719,40500909,30500809,40901219,21310519,30111509,20110309,40001519,41311919,21300919,40111019,40901319,-2050171,0,10210009,0,31001609,41910719,41800419
17,224,801.063626771793,1,0,639681.10992647,639682.156949451,9,0,1,31,3,21210538,0,0,44382179,0,0,0,0,0,0,11210219,0,10000319,0,0,0,0,0,0,0,0,0,0,0,0,0,0,0,0,0,0,0,0,0,-3071160,0,0,0,41311019,0
17,225,647.121972986497,1,0,639684.051027443,639685.098046959,9,0,1,34,3,31601509,71222618,0,4030200,0,0,0,0,0,0,0,31601509,0,41212009,0,0,0,30010609,0,0,0,0,0,0,0,0,0,0,0,0,0,0,0,0,0,0,0,-4030200,0,0
17,226,756.096721859649,1,0,639686.956822491,639688.003855481,9,1,1,36,3,21100119,0,41501919,31731719,21100119,0,0,0,0,0,0,0,0,0,0,0,0,0,0,0,0,0,0,0,0,0,41501919,0,0,0,0,30611619,0,0,0,0,0,0,0,-1120100
17,227,1128.52874351665,0,0,639689.874420827,639690.921416476,9,0,0,28,19,145134945,74034276,156148284,84974546,30011509,0,41500809,0,21100109,0,20811109,0,31711409,0,0,21210919,0,0,21801419,20610219,10411719,0,30801519,20312009,0,0,21710709,31011519,0,21101219,31211309,-3161110,10000909,11001409,20101109,40710009,0,0,0,0
17,228,627.87200009916,0,0,639693.227248327,639694.274289402,9,1,0,27,3,0,0,44450850,62212628,0,0,0,0,0,0,0,0,0,0,0,0,0,0,0,0,0,0,0,0,0,0,0,0,0,41300709,-3150141,0,0,0,0,0,0,0,40511009,21701619
17,229,895.817147800699,1,0,639696.074271386,639697.121245477,9,1,1,12,19,143115656,140216085,146634355,94802956,31301019,0,41101809,30011919,0,0,0,40700909,0,10701209,10111019,-4191011,0,12001509,41400109,41200109,20611119,0,20711809,0,0,22001109,30710819,32010409,0,41200209,0,31400819,0,0,0,31801009,21500909,10100219,0,0
17,230,822.89938244503,0,0,639699.215324931,639700.262341753,9,0,0,22,9,30611528,125503456,33541619,32011909,0,0,0,0,20600619,0,0,10010909,0,31200709,0,20801919,0,0,0,41500819,0,32000009,0,20111419,10410109,-3020091,0,0,0,0,0,0,0,0,0,0,32011909,0,0,0
17,231,536.195087013766,0,0,639702.29758185,639703.344607911,9,0,0,4,19,55112798,103537175,152945445,228838903,0,0,21501209,-3111170,30500419,0,0,0,0,0,30011819,0,11401719,30111809,0,21610219,0,10401609,0,21411409,40311409,0,0,40611009,30001109,0,20610509,0,0,40910509,11510319,40211809,41601619,21801519,41101819,31701309
17,232,816.921708523296,1,0,639704.979857015,639706.026883076,9,1,1,14,31,248960801,176307415,268758111,186948302,31201509,31510109,30211909,41000109,21300309,30212019,21611809,10501519,31411509,0,30411719,0,31011609,-2061140,40900709,31510619,40411619,0,31110519,31711319,10610609,41200809,10400409,41301309,30401019,40111109,31911009,11101809,20411719,0,30300619,20610409,11311009,31201609,21010619,41000509
17,233,1093.33330276422,0,0,639708.038602058,639709.085625809,9,0,0,33,0,0,0,0,0,0,0,0,0,0,0,0,0,0,0,0,0,0,0,0,0,0,0,0,0,0,0,0,0,0,0,0,0,0,0,0,0,-21000601,0,0,0
17,234,492.843478335999,1,0,639711.262113087,639712.30906562,9,0,1,20,9,41710218,52013128,84711799,102010837,0,0,0,30410209,0,0,11300009,0,0,0,0,0,0,0,0,31011609,0,21001519,41111309,-2100081,0,41500409,0,0,0,0,0,30710209,0,0,30900219,0,0,0,0,40400409
17,235,561.975537682883,0,0,639722.061742446,639723.108768122,10,1,0,19,9,85721837,72313557,24721959,43321418,0,0,0,0,22010109,0,21700319,0,42011409,0,0,30510819,0,0,21100919,20701819,0,0,-3021150,0,0,0,0,0,0,21700809,0,11510909,31810509,0,0,0,0,0,0,0
17,236,485.1396396989,0,0,639724.70873055,639725.755738903,10,1,0,11,0,0,0,0,0,0,0,0,0,0,0,0,0,0,0,-10301701,0,0,0,0,0,0,0,0,0,0,0,0,0,0,0,0,0,0,0,0,0,0,0,0,0
17,237,563.738273922354,1,0,639727.296902778,639728.3439196,10,1,1,3,9,14250319,92312066,60821618,42811628,0,0,-4150200,10100119,0,0,0,0,0,0,20000319,0,10410219,0,31001319,30900209,0,0,0,0,0,0,30710909,30110709,0,0,0,0,0,0,31410319,0,0,11401309,0,0
17,238,675.424302811734,1,0,639729.979176019,639731.026200925,10,0,1,30,19,124123156,146734384,102923146,166818526,0,30401009,0,21900209,41311119,0,30510819,0,0,0,21100919,0,30610709,42011609,0,21100919,20700209,11210019,0,0,0,10310109,0,30000009,20711909,0,41901119,31401719,0,-1101141,0,21501919,40802009,31100419,40911319,0
17,239,440.049547119997,0,0,639732.7555726,639733.802585187,10,0,0,20,3,0,11900019,12820829,22000709,0,0,0,0,0,0,0,0,0,0,0,0,11900019,0,0,0,0,0,0,-2120020,0,0,10700809,0,0,0,0,0,0,0,0,0,0,0,22000709,0
17,240,841.020264662802,0,0,639735.402569558,639736.449574446,10,0,0,18,19,207317013,54132628,176146074,142423336,30611109,40100319,31301709,21801019,30801519,21601019,0,31100319,0,30011409,0,0,0,0,20111119,0,0,-4010100,30211209,0,11011909,0,41010719,20900709,0,41400709,31610819,41111909,0,40210209,40300809,20800409,0,0,0,0
17,241,541.050599655136,1,0,639738.49657587,639739.543606935,10,1,1,12,19,143115656,140216085,146634355,94802956,31301019,0,41101809,30011919,0,0,0,40700909,0,10701209,10111019,-4191011,0,12001509,41400109,41200109,20611119,0,20711809,0,0,22001109,30710819,32010409,0,41200209,0,31400819,0,0,0,31801009,21500909,10100219,0,0
17,242,471.418860950507,0,0,639741.272989004,639742.320009675,10,1,0,2,3,32692370,0,12010819,41401219,0,-1081061,0,0,0,0,0,0,31611309,0,0,0,0,0,0,0,0,0,0,0,0,0,12010819,0,0,0,0,0,0,0,0,0,41401219,0,0,0
17,243,623.078466276638,0,0,639744.002319487,639745.049340544,10,1,0,32,9,53513338,10200509,82823337,87083187,0,42001619,0,0,0,0,0,0,11511719,0,0,0,0,10200509,0,0,0,0,0,0,0,0,0,20401009,0,40411509,22010819,0,10510819,30501109,41910219,-4161040,0,0,0,0
17,244,671.392991673201,0,0,639746.755181864,639747.80221293,10,0,0,35,31,177386702,180438803,189160241,179736863,10410219,41510619,40510009,0,10811809,21110919,21010809,20311709,11710609,21101519,21710319,11910309,0,21201519,21402009,41901719,41211409,0,31910209,21510919,11001719,11711719,30201409,10400319,30600919,21411309,20411719,41300619,41400009,21012009,11010109,0,20001509,10300709,-4101080,30610819
17,245,599.842222640291,1,0,639749.62569986,639750.672718607,10,1,1,33,19,52401138,185546022,162443865,88644466,0,0,0,0,30901119,21500019,0,0,0,0,20000819,21500219,20311919,10710519,20010909,40710609,41100719,11200309,0,40510609,40012009,0,30100209,41010019,0,10811019,0,0,0,31700509,0,31300519,-2021010,0,12011309,11611119
17,246,698.722525150515,0,0,639752.331574287,639753.378588415,10,0,0,31,9,0,136421966,53301918,108253968,0,0,0,0,0,0,0,0,0,0,0,41500409,0,0,41810019,0,41300619,11810919,0,0,0,0,0,42001709,0,11300209,0,0,0,20611419,-4041121,0,41900409,0,41701019,0
17,247,764.325647382066,1,0,639755.143192871,639756.190217392,10,1,1,36,3,21100119,0,41501919,31731719,21100119,0,0,0,0,0,0,0,0,0,0,0,0,0,0,0,0,0,0,0,0,0,41501919,0,0,0,0,30611619,0,0,0,0,0,0,0,-1120100
17,248,749.470773851499,1,0,639758.048992154,639759.09602168,10,0,1,13,31,226628712,230048793,228245523,207456342,20000019,30700919,31201409,41711619,21400809,40201719,0,30601109,10811109,30211119,40610909,11200419,-3190091,40500009,30011209,42001409,21811609,10512019,41311219,41700219,10600219,41001509,41110719,0,41311319,0,11210319,12010719,30010819,20111419,0,40800719,20900819,40511219,11710419,31400209
17,249,613.284674473107,0,0,639760.896008668,639761.942997388,10,0,0,28,31,207851111,155548093,145935482,151276434,20901609,40511819,11201909,10000819,20510019,21611509,41900809,10101509,31111109,30511009,0,31710619,0,10001609,20711209,40800119,10301919,11511609,31610409,10911109,10100519,0,11800409,30700209,20600509,10011909,20200409,-4030121,31810319,40411109,11400319,10810419,0,11711609,10501719,30600819
17,250,514.752761577256,1,0,639763.566493634,639764.613513151,10,0,1,15,3,113033537,3101140,0,0,0,0,0,0,40911809,40610619,0,0,31511109,0,0,0,0,0,-3101140,0,0,0,0,0,0,0,0,0,0,0,0,0,0,0,0,0,0,0,0,0
17,251,753.766553127207,0,0,639766.260577477,639767.307553493,10,1,0,5,19,107114207,154743565,115434565,155125075,30810509,0,30910819,0,-4181151,0,30301009,0,10910719,0,30600019,40711319,0,30811609,41810309,10810309,0,0,0,21611119,0,10911109,0,21500209,30811219,0,30600909,41401319,30011419,0,0,0,20110009,0,42001109,21601219
17,252,516.814997419715,1,0,639769.260456984,639770.307531551,10,0,1,22,9,0,84812337,73061048,92624466,0,0,0,0,0,0,0,0,0,0,32001409,0,12010309,40800619,0,0,0,0,0,31710619,0,-1050010,0,0,0,0,40300419,0,10400219,41210809,10501819,0,30511619,0,0,0
17,253,501.561689306982,0,0,639771.989780924,639773.036814684,10,1,0,8,31,209437293,145453072,268379411,145346583,20301309,11300609,31611509,40711009,21111319,40800309,40600109,-3001120,0,11611809,10501409,10411309,0,10901709,40001409,42012009,10001409,10012009,30311519,41100109,32011019,10611109,20311209,42001019,10410709,40311709,41311009,30401409,10100019,0,0,42011309,31511009,10411419,10601409,10310009
17,254,530.648184590973,1,0,639774.601485046,639775.648504563,10,0,1,4,3,1180190,11000109,32501328,0,0,0,0,-1180190,0,0,0,0,0,0,0,0,0,11000109,0,0,0,0,0,11401209,0,0,0,21100119,0,0,0,0,0,0,0,0,0,0,0,0
17,255,678.148286649957,0,0,639777.366119914,639778.413130192,10,1,0,27,3,0,0,44450850,62212628,0,0,0,0,0,0,0,0,0,0,0,0,0,0,0,0,0,0,0,0,0,0,0,0,0,41300709,-3150141,0,0,0,0,0,0,0,40511009,21701619
17,256,428.419106639922,0,0,639780.28367398,639781.330702736,10,0,0,9,0,0,0,0,0,0,0,0,0,0,0,0,0,-31610591,0,0,0,0,0,0,0,0,0,0,0,0,0,0,0,0,0,0,0,0,0,0,0,0,0,0,0
17,257,553.809745702893,1,0,639782.954190513,639784.001215419,10,0,1,34,19,81323157,177536174,72022466,158473225,0,20802019,0,30110819,0,0,0,0,30410319,10701509,0,20411109,0,0,31512009,41600119,41300919,32010509,10200819,21310009,0,20401319,0,0,0,0,20110319,0,40111609,21000009,30300619,30700509,0,-4150041,21100119,11110319
17,258,458.557315403596,1,0,639785.58941036,639786.636440271,10,0,1,17,9,22102228,44623037,63022847,30112019,11500309,0,0,0,0,0,10601919,0,0,10312019,21510919,0,0,0,11800019,0,-1000080,0,30200319,0,11911309,0,20911219,0,0,0,0,0,0,0,0,0,30112019,0,0,0
17,259,488.996178493835,1,0,639788.295275163,639789.3422481,10,1,1,14,31,248960801,176307415,268758111,186948302,31201509,31510109,30211909,41000109,21300309,30212019,21611809,10501519,31411509,0,30411719,0,31011609,-2061140,40900709,31510619,40411619,0,31110519,31711319,10610609,41200809,10400409,41301309,30401019,40111109,31911009,11101809,20411719,0,30300619,20610409,11311009,31201609,21010619,41000509
17,260,405.230213305913,1,0,639790.918677094,639791.965701231,10,1,1,10,31,199847932,197499332,225357712,180357293,21412019,10601519,41010509,12000619,31400219,41011119,0,31500809,10911119,-1130100,30710119,32012019,21511219,10411709,10400519,20212009,30500919,40610719,40310509,20310419,31910109,20111109,31110719,40801519,20001309,20802019,0,41211419,11800609,12010709,11811109,30011619,0,31901419,0,41610409
17,261,718.029472278431,0,0,639803.49479504,639804.541826876,11,1,0,36,3,21100119,0,41501919,31731719,21100119,0,0,0,0,0,0,0,0,0,0,0,0,0,0,0,0,0,0,0,0,0,41501919,0,0,0,0,30611619,0,0,0,0,0,0,0,-1120100
17,262,461.679344414733,0,0,639806.412371819,639807.45919116,11,0,0,20,31,173636422,206737103,249406592,196647022,10401419,0,40300609,30100619,20410809,10310119,10501119,20501219,31110509,40110309,41011219,0,10301319,22000009,0,30801019,31011609,31501619,30100209,-3081070,41300219,40911209,40900719,20600619,40800819,11601519,20110209,41101009,11711619,40810909,10010409,10200819,0,21800119,30700719,30311419
17,263,443.930723704398,0,0,639809.035828414,639810.082846006,11,0,0,15,3,31811619,36071629,10901809,0,0,31811619,0,0,0,0,0,0,0,0,0,0,0,32010619,-4061010,0,0,0,10901809,0,0,0,0,0,0,0,0,0,0,0,0,0,0,0,0,0
17,264,1046.81539011654,1,0,639811.565169754,639812.612198509,11,1,1,27,3,0,0,44450850,62212628,0,0,0,0,0,0,0,0,0,0,0,0,0,0,0,0,0,0,0,0,0,0,0,0,0,41300709,-3150141,0,0,0,0,0,0,0,40511009,21701619
17,265,609.537849319167,0,0,639814.753322888,639815.80034125,11,0,0,18,9,41212138,35381648,52901928,71622537,0,0,0,10201219,31010919,0,0,0,0,0,0,0,10710409,0,0,0,20501119,-4170120,0,0,0,0,22001109,0,0,30900819,0,0,0,40310619,20710409,0,0,0,10601509,0
17,266,495.582860545255,0,0,639817.553233269,639818.60026087,11,0,0,17,3,0,2171021,30400609,31312838,0,0,0,0,0,0,0,0,0,0,0,0,0,0,0,0,-2171021,0,0,0,0,0,0,0,0,30400609,0,0,0,0,0,0,20501919,10810919,0,0
17,267,531.506647588685,0,0,639820.15315951,639821.200184802,11,1,0,10,31,199847932,197499332,225357712,180357293,21412019,10601519,41010509,12000619,31400219,41011119,0,31500809,10911119,-1130100,30710119,32012019,21511219,10411709,10400519,20212009,30500919,40610719,40310509,20310419,31910109,20111109,31110719,40801519,20001309,20802019,0,41211419,11800609,12010709,11811109,30011619,0,31901419,0,41610409
17,268,540.980921825394,0,0,639822.776629194,639823.823647556,11,1,0,32,9,53513338,10200509,82823337,87083187,0,42001619,0,0,0,0,0,0,11511719,0,0,0,0,10200509,0,0,0,0,0,0,0,0,0,20401009,0,40411509,22010819,0,10510819,30501109,41910219,-4161040,0,0,0,0
17,269,694.68505459372,1,0,639825.55307967,639826.600046062,11,0,1,35,31,188737311,155824933,200250022,180026094,32010719,11400109,31010109,10611119,21401409,11900509,20201509,30200209,20001619,10500719,20400619,20910319,32001419,0,10900519,20901119,0,40210219,11711019,20100509,11002019,0,31411619,30911909,31100019,32010919,32002009,20501319,0,31410219,10410819,41710009,40501409,22011319,-2080081,11400919
17,270,418.949067010544,0,0,639828.458828523,639829.50584496,11,0,0,13,19,105746385,117195787,154526665,133745275,0,20011909,0,30410219,21811819,21511819,12000619,0,0,0,0,0,-4081031,40401619,30201609,0,11900909,30610619,0,0,0,41200909,11500109,31411719,30002019,0,40411909,0,0,10010509,0,21711519,0,31600319,40311519,30111409
17,271,402.634036494419,1,0,639830.988164858,639832.035189764,11,0,1,28,9,102114037,92004247,0,115735448,41401509,0,0,0,0,40500809,0,0,20211719,0,0,10701009,40001319,0,0,41301919,0,0,0,0,0,0,0,0,0,0,0,-3111101,0,0,30011309,0,41402019,0,41211019,0
17,272,573.532835696824,0,0,639833.588094179,639834.63511793,11,1,0,5,19,107114207,154743565,115434565,155125075,30810509,0,30910819,0,-4181151,0,30301009,0,10910719,0,30600019,40711319,0,30811609,41810309,10810309,0,0,0,21611119,0,10911109,0,21500209,30811219,0,30600909,41401319,30011419,0,0,0,20110009,0,42001109,21601219
17,273,628.189207985997,1,0,639836.223314411,639837.270334698,11,1,1,2,3,32692370,0,12010819,41401219,0,-1081061,0,0,0,0,0,0,31611309,0,0,0,0,0,0,0,0,0,0,0,0,0,12010819,0,0,0,0,0,0,0,0,0,41401219,0,0,0
17,274,586.485617095605,0,0,639839.035000748,639840.082031429,11,0,0,28,0,0,0,0,0,0,0,0,0,0,0,0,0,0,0,0,0,0,0,0,0,0,0,0,0,0,0,0,0,0,0,0,-20601491,0,0,0,0,0,0,0,0
17,275,616.402858169749,1,0,639841.729049174,639842.776068306,11,1,1,33,19,52401138,185546022,162443865,88644466,0,0,0,0,30901119,21500019,0,0,0,0,20000819,21500219,20311919,10710519,20010909,40710609,41100719,11200309,0,40510609,40012009,0,30100209,41010019,0,10811019,0,0,0,31700509,0,31300519,-2021010,0,12011309,11611119
17,276,455.619678250514,1,0,639844.587804688,639845.634811116,11,0,1,4,19,157614995,52621728,165726494,142635765,10701409,30000609,41300319,-2010111,0,11101519,40500819,0,22000209,0,0,40910309,0,0,11711419,0,0,0,10201419,40901009,41911009,0,30901919,20700319,0,0,21110819,0,10011309,0,0,40811119,40112019,11700409,0,40000909
17,277,482.51959530171,1,0,639847.281827707,639848.328861468,11,1,1,14,31,248960801,176307415,268758111,186948302,31201509,31510109,30211909,41000109,21300309,30212019,21611809,10501519,31411509,0,30411719,0,31011609,-2061140,40900709,31510619,40411619,0,31110519,31711319,10610609,41200809,10400409,41301309,30401019,40111109,31911009,11101809,20411719,0,30300619,20610409,11311009,31201609,21010619,41000509
17,278,611.272098612972,0,0,639849.905295081,639850.952316138,11,1,0,12,19,143115656,140216085,146634355,94802956,31301019,0,41101809,30011919,0,0,0,40700909,0,10701209,10111019,-4191011,0,12001509,41400109,41200109,20611119,0,20711809,0,0,22001109,30710819,32010409,0,41200209,0,31400819,0,0,0,31801009,21500909,10100219,0,0
17,279,606.001982931048,1,0,639852.693447215,639853.740474431,11,1,1,19,9,85721837,72313557,24721959,43321418,0,0,0,0,22010109,0,21700319,0,42011409,0,0,30510819,0,0,21100919,20701819,0,0,-3021150,0,0,0,0,0,0,21700809,0,11510909,31810509,0,0,0,0,0,0,0
17,280,652.530674473383,1,0,639855.363965673,639856.410994043,11,1,1,8,31,209437293,145453072,268379411,145346583,20301309,11300609,31611509,40711009,21111319,40800309,40600109,-3001120,0,11611809,10501409,10411309,0,10901709,40001409,42012009,10001409,10012009,30311519,41100109,32011019,10611109,20311209,42001019,10410709,40311709,41311009,30401409,10100019,0,0,42011309,31511009,10411419,10601409,10310009
17,281,736.852138419636,0,0,639858.175670103,639859.222675761,11,0,0,34,9,64121957,21801309,21601609,117533056,11510719,0,0,10810819,0,0,0,41800419,0,0,21801309,0,0,0,0,0,0,0,0,0,0,0,21601609,0,0,0,0,0,41600409,0,0,41900919,21410309,-2020200,0,10601219
17,282,482.912255567499,0,0,639861.034395589,639862.081421265,11,1,0,11,0,0,0,0,0,0,0,0,0,0,0,0,0,0,0,-10301701,0,0,0,0,0,0,0,0,0,0,0,0,0,0,0,0,0,0,0,0,0,0,0,0,0
17,283,574.261566740461,1,0,639863.69315041,639864.740171467,11,0,1,22,3,31010909,31311719,1061101,20010419,0,0,0,31010909,0,0,0,0,0,0,0,0,0,0,0,0,31311719,0,0,0,0,-1061101,0,0,0,0,0,0,20010419,0,0,0,0,0,0,0
17,284,454.391267732717,1,0,639866.387189212,639867.434245301,11,1,1,3,9,14250319,92312066,60821618,42811628,0,0,-4150200,10100119,0,0,0,0,0,0,20000319,0,10410219,0,31001319,30900209,0,0,0,0,0,0,30710909,30110709,0,0,0,0,0,0,31410319,0,0,11401309,0,0
17,285,697.484490694478,1,0,639868.951826083,639869.998852529,11,0,1,31,31,178357703,179950212,176249602,177790583,11400409,31611319,31611319,0,10611019,40610519,11911509,40601609,0,31800909,11111719,31411209,10501219,10611709,41310619,11201009,0,32001819,41600609,10300509,0,20601519,10910809,40012019,11101919,30011309,11710909,40212019,20211309,30600719,-1130161,11110209,31812019,11311619,20901519,10501009
17,286,534.526281291619,1,0,639871.810577747,639872.857594569,11,0,1,30,19,206616184,104914775,21702128,180124194,41701209,41702019,0,0,10900419,0,40000119,31711709,40600709,21201819,0,0,20410109,0,20901519,21301019,0,21100309,11600509,0,0,0,0,0,10101619,0,0,10410419,0,-4170100,40810419,30210909,0,12001309,42010119,40510919
17,287,610.310851014219,0,0,639879.739764563,639880.786791009,12,1,0,19,9,85721837,72313557,24721959,43321418,0,0,0,0,22010109,0,21700319,0,42011409,0,0,30510819,0,0,21100919,20701819,0,0,-3021150,0,0,0,0,0,0,21700809,0,11510909,31810509,0,0,0,0,0,0,0
17,288,659.982363809831,0,0,639882.563219156,639883.61027255,12,0,0,34,19,115316775,207729203,144446204,33851430,0,21701409,30210619,0,0,21101519,20301619,0,22001609,30200319,41512019,0,31801519,40001209,0,11801709,31502009,20910419,0,10711319,20110809,40500719,31411319,0,20901419,20810619,0,0,31810419,0,0,0,0,-2041011,0,0
17,289,629.945014952682,0,0,639885.316080379,639886.36310105,12,1,0,36,3,21100119,0,41501919,31731719,21100119,0,0,0,0,0,0,0,0,0,0,0,0,0,0,0,0,0,0,0,0,0,41501919,0,0,0,0,30611619,0,0,0,0,0,0,0,-1120100
17,290,498.941644909792,0,0,639888.057239173,639889.104243291,12,1,0,14,31,248960801,176307415,268758111,186948302,31201509,31510109,30211909,41000109,21300309,30212019,21611809,10501519,31411509,0,30411719,0,31011609,-2061140,40900709,31510619,40411619,0,31110519,31711319,10610609,41200809,10400409,41301309,30401019,40111109,31911009,11101809,20411719,0,30300619,20610409,11311009,31201609,21010619,41000509
17,291,432.213666848838,0,0,639890.798341763,639891.845307,12,0,0,15,31,200259502,232452433,145537083,226977092,21811009,11500919,21112009,20810819,22010909,21812019,0,40601609,40600209,41611809,21202009,42011719,21310309,10200919,-3091021,41001409,11511919,40511319,41010709,20400119,20302009,0,20200919,20811609,11811309,0,11000409,30210609,0,30010719,41001319,20810609,30610709,20910709,11610709,41811709
17,292,1125.84133108612,1,0,639893.445284056,639894.492295489,12,0,1,31,19,104322265,164447194,152804456,144483057,0,11400309,0,11011419,30300009,0,10400119,0,41210409,40301919,31510709,20711319,0,31010619,0,0,10701809,30210819,41401819,0,0,0,40001209,0,0,30400209,41001219,0,0,31010409,-1160101,41110309,0,0,41001619,30200619
17,293,507.770339609124,1,0,639896.645187739,639897.692300416,12,0,1,4,9,98324408,52923038,63022347,31811819,0,0,0,-4101171,31210309,31101409,0,31911519,0,0,0,0,0,31711519,0,0,0,21211519,0,31010219,0,0,21500319,0,0,0,10511809,31811819,0,0,0,0,0,0,0,0
17,294,540.786901372485,1,0,639899.245141313,639900.292132342,12,0,1,20,3,0,0,67704818,0,0,0,0,0,0,0,0,0,0,0,0,0,0,0,0,0,0,0,11901819,-4101071,0,0,21501009,0,0,30200919,0,0,0,0,0,0,0,0,0,0
17,295,497.30941047892,1,0,639901.868565956,639902.915594327,12,0,1,22,9,84533656,75214127,21401619,11310819,11501119,0,0,0,10811209,0,0,40310809,21910519,0,0,0,0,12011209,41302009,0,0,21900909,0,20311519,0,-1090100,0,0,0,0,0,11310819,0,0,0,0,0,0,0,0
17,296,503.180065075867,1,0,639904.562612458,639905.609639289,12,0,1,28,31,186647322,217549202,147426693,212659763,40300609,10810119,31211119,41201219,10910919,0,10001909,21111219,21100209,40211519,21101919,30610109,11610809,0,41101509,10011009,31901309,31001019,21811109,11100419,0,11201609,20100409,0,41101009,20310219,21801919,-4030171,40301309,11201419,41711709,30511409,30201419,32000209,11100209,11601909
17,297,572.939225938171,0,0,639907.139068014,639908.186038641,12,1,0,2,3,32692370,0,12010819,41401219,0,-1081061,0,0,0,0,0,0,31611309,0,0,0,0,0,0,0,0,0,0,0,0,0,12010819,0,0,0,0,0,0,0,0,0,41401219,0,0,0
17,298,608.914982527494,1,0,639909.844826569,639910.891851475,12,1,1,32,9,53513338,10200509,82823337,87083187,0,42001619,0,0,0,0,0,0,11511719,0,0,0,0,10200509,0,0,0,0,0,0,0,0,0,20401009,0,40411509,22010819,0,10510819,30501109,41910219,-4161040,0,0,0,0
17,299,513.756482629105,1,0,639912.574156282,639913.621180803,12,1,1,10,31,199847932,197499332,225357712,180357293,21412019,10601519,41010509,12000619,31400219,41011119,0,31500809,10911119,-1130100,30710119,32012019,21511219,10411709,10400519,20212009,30500919,40610719,40310509,20310419,31910109,20111109,31110719,40801519,20001309,20802019,0,41211419,11800609,12010709,11811109,30011619,0,31901419,0,41610409
17,300,578.036109101959,1,0,639915.185938166,639916.232866832,12,1,1,12,19,143115656,140216085,146634355,94802956,31301019,0,41101809,30011919,0,0,0,40700909,0,10701209,10111019,-4191011,0,12001509,41400109,41200109,20611119,0,20711809,0,0,22001109,30710819,32010409,0,41200209,0,31400819,0,0,0,31801009,21500909,10100219,0,0
17,301,640.435970970429,0,0,639917.856365773,639918.90338529,12,1,0,8,31,209437293,145453072,268379411,145346583,20301309,11300609,31611509,40711009,21111319,40800309,40600109,-3001120,0,11611809,10501409,10411309,0,10901709,40001409,42012009,10001409,10012009,30311519,41100109,32011019,10611109,20311209,42001019,10410709,40311709,41311009,30401409,10100019,0,0,42011309,31511009,10411419,10601409,10310009
17,302,648.035485413857,0,0,639920.63275581,639921.679783411,12,0,0,24,0,0,0,0,0,0,0,0,0,0,0,0,0,0,0,0,0,0,0,0,0,0,0,0,0,0,0,0,-11800691,0,0,0,0,0,0,0,0,0,0,0,0
17,303,543.595961644314,1,0,639923.409150465,639924.456168442,12,0,1,35,3,11701109,41411409,10910719,2061150,0,0,11701109,0,0,0,0,0,0,0,41411409,0,0,0,0,0,0,0,0,0,0,10910719,0,0,0,0,0,0,0,0,0,0,0,0,-2061150,0
17,304,883.630438707769,1,0,639926.067912215,639927.114980622,12,1,1,3,9,14250319,92312066,60821618,42811628,0,0,-4150200,10100119,0,0,0,0,0,0,20000319,0,10410219,0,31001319,30900209,0,0,0,0,0,0,30710909,30110709,0,0,0,0,0,0,31410319,0,0,11401309,0,0
17,305,533.057270222344,1,0,639929.185460815,639930.232487646,12,0,1,13,19,135225655,115395236,75224946,126030484,31510409,0,0,40901009,30100619,12012009,0,0,20701609,10501519,40111409,0,-3071170,0,21610919,0,40100219,0,0,12000609,21201609,0,0,11211509,0,30811219,0,0,0,30711409,21501919,10601709,30501719,22012009,10701719,0
17,306,722.704053157941,0,0,639931.914803617,639932.961827753,12,0,0,18,31,242090021,170510984,226547812,135237303,11610719,21701919,11511009,31511519,41911909,30011119,31011509,41210309,21610009,0,11611619,21811719,10001609,31610809,21710819,30612019,40001209,-3151181,0,30010709,10210709,20400819,31211119,31310309,41801919,20601609,41000619,10212019,30500019,11010709,0,21401219,21201309,10701019,0,30211009
17,307,1023.52486702148,1,0,639934.702959215,639935.749982582,12,1,1,5,19,107114207,154743565,115434565,155125075,30810509,0,30910819,0,-4181151,0,30301009,0,10910719,0,30600019,40711319,0,30811609,41810309,10810309,0,0,0,21611119,0,10911109,0,21500209,30811219,0,30600909,41401319,30011419,0,0,0,20110009,0,42001109,21601219
17,308,497.13810288813,0,0,639937.973456269,639939.020475016,12,0,0,17,3,0,15022110,20410009,30801419,0,0,0,0,0,0,0,0,0,0,0,0,0,12000909,0,0,-3021201,0,20410009,0,0,0,0,0,0,0,0,0,0,0,0,0,0,0,30801419,0
17,309,445.686915540136,0,0,639940.643970877,639941.690998863,12,1,0,11,0,0,0,0,0,0,0,0,0,0,0,0,0,0,0,-10301701,0,0,0,0,0,0,0,0,0,0,0,0,0,0,0,0,0,0,0,0,0,0,0,0,0
17,310,1172.55287908483,0,0,639943.232137331,639944.279156848,12,1,0,33,19,52401138,185546022,162443865,88644466,0,0,0,0,30901119,21500019,0,0,0,0,20000819,21500219,20311919,10710519,20010909,40710609,41100719,11200309,0,40510609,40012009,0,30100209,41010019,0,10811019,0,0,0,31700509,0,31300519,-2021010,0,12011309,11611119
17,311,695.911155198701,1,0,639946.596756955,639947.643770313,12,0,1,30,9,10811919,143225556,40112009,48272777,0,0,0,10811919,0,0,0,0,0,40900209,41501719,40611919,0,20211709,0,0,0,0,0,0,0,0,40112009,0,0,0,0,0,0,-3150130,11111319,0,22010909,12000419,0,0
17,312,600.104381097481,0,0,639949.361374885,639950.408399022,12,1,0,27,3,0,0,44450850,62212628,0,0,0,0,0,0,0,0,0,0,0,0,0,0,0,0,0,0,0,0,0,0,0,0,0,41300709,-3150141,0,0,0,0,0,0,0,40511009,21701619
17,313,440.494562149979,1,0,639966.160911854,639967.207936376,13,1,1,3,9,14250319,92312066,60821618,42811628,0,0,-4150200,10100119,0,0,0,0,0,0,20000319,0,10410219,0,31001319,30900209,0,0,0,0,0,0,30710909,30110709,0,0,0,0,0,0,31410319,0,0,11401309,0,0
17,314,750.748459249735,0,0,639968.831432622,639969.878456758,13,1,0,19,9,85721837,72313557,24721959,43321418,0,0,0,0,22010109,0,21700319,0,42011409,0,0,30510819,0,0,21100919,20701819,0,0,-3021150,0,0,0,0,0,0,21700809,0,11510909,31810509,0,0,0,0,0,0,0
17,315,449.022987275384,1,0,639971.784287223,639972.831310589,13,1,1,11,0,0,0,0,0,0,0,0,0,0,0,0,0,0,0,-10301701,0,0,0,0,0,0,0,0,0,0,0,0,0,0,0,0,0,0,0,0,0,0,0,0,0
17,316,716.873434488662,0,0,639974.431276482,639975.478294074,13,0,0,22,19,0,185123374,161401473,82937285,0,0,0,0,0,0,0,0,0,0,0,40500409,21800009,10810019,30400919,40410409,41201609,0,11201309,10310619,31101919,-3171171,10501209,20902009,31201409,22000309,21011519,10201919,0,10510219,0,0,10601109,41312019,10312019,0
17,317,507.308386499062,1,0,639977.395902419,639978.44293002,13,1,1,14,31,248960801,176307415,268758111,186948302,31201509,31510109,30211909,41000109,21300309,30212019,21611809,10501519,31411509,0,30411719,0,31011609,-2061140,40900709,31510619,40411619,0,31110519,31711319,10610609,41200809,10400409,41301309,30401019,40111109,31911009,11101809,20411719,0,30300619,20610409,11311009,31201609,21010619,41000509
17,318,590.333301923238,1,0,639980.101703319,639981.148727455,13,1,1,2,3,32692370,0,12010819,41401219,0,-1081061,0,0,0,0,0,0,31611309,0,0,0,0,0,0,0,0,0,0,0,0,0,12010819,0,0,0,0,0,0,0,0,0,41401219,0,0,0
17,319,470.829485799186,1,0,639982.81932098,639983.86630508,13,1,1,8,31,209437293,145453072,268379411,145346583,20301309,11300609,31611509,40711009,21111319,40800309,40600109,-3001120,0,11611809,10501409,10411309,0,10901709,40001409,42012009,10001409,10012009,30311519,41100109,32011019,10611109,20311209,42001019,10410709,40311709,41311009,30401409,10100019,0,0,42011309,31511009,10411419,10601409,10310009
17,320,840.775429620408,1,0,639985.360384381,639986.407413907,13,0,1,13,31,186018212,222639123,230137302,188945193,40301619,20501009,10101819,0,21601009,20500519,20911419,31200309,20900509,40800209,41210419,11001519,-4001181,40401619,11310919,20911319,41100719,11901219,11901309,31600019,21710809,32010019,30201709,40611319,21500909,0,40601209,0,12010009,10900409,30200519,20911219,42011109,0,41501009,31410919
17,321,451.247291639447,1,0,639988.442660162,639989.489753976,13,0,1,28,9,52802138,22111238,115516246,42401219,11500119,0,0,0,41302019,0,0,0,0,0,0,10600119,0,0,0,0,11511119,0,31500509,22001919,41111809,0,0,0,0,0,20902009,-2101100,0,0,0,0,40300119,0,0,0
17,322,575.820273719728,0,0,639991.113168996,639992.160226239,13,1,0,27,3,0,0,44450850,62212628,0,0,0,0,0,0,0,0,0,0,0,0,0,0,0,0,0,0,0,0,0,0,0,0,0,41300709,-3150141,0,0,0,0,0,0,0,40511009,21701619
17,323,738.911294611171,1,0,639993.866034068,639994.9130532,13,0,1,18,9,85522856,108224568,20401909,11511119,0,0,0,11711609,10000319,22000209,41810719,0,0,0,0,31411709,0,0,31710209,0,41911609,-3191041,0,20401909,0,0,0,0,0,0,0,0,0,0,11511119,0,0,0,0,0
17,324,515.818333486095,0,0,639996.807179696,639997.854151478,13,0,0,4,19,67353458,184926094,73124556,215815754,0,0,31310709,-3021131,0,12010009,0,0,21011609,20211509,40801419,31101419,0,0,20010519,0,31600019,41201209,0,0,0,30611609,0,21601119,10100509,10811319,0,40901809,30401609,21301309,0,40800209,41700809,40710009,0,0
17,325,1829.65275249444,0,0,639999.536452821,640000.583492355,13,1,0,12,19,143115656,140216085,146634355,94802956,31301019,0,41101809,30011919,0,0,0,40700909,0,10701209,10111019,-4191011,0,12001509,41400109,41200109,20611119,0,20711809,0,0,22001109,30710819,32010409,0,41200209,0,31400819,0,0,0,31801009,21500909,10100219,0,0
17,326,769.7940178914,0,0,640003.501104935,640004.548084416,13,0,0,35,31,198329702,187851293,159527022,199135672,20201419,30801209,42001509,20601519,21910509,0,10900409,10211309,41701819,20411209,0,42011619,21601919,30110619,10712009,42002009,0,21001909,20800719,0,10510709,20900319,21200919,20811309,21500719,12001409,31800919,10010419,20700409,21210719,40200709,21010219,31310219,20011409,-4080160,30601409
17,327,711.211813613772,1,0,640006.371572501,640007.418593943,13,0,1,22,0,0,0,0,0,0,0,0,0,0,0,0,0,0,0,0,0,0,0,0,0,0,0,0,0,0,-11511891,0,0,0,0,0,0,0,0,0,0,0,0,0,0
17,328,655.654632719234,0,0,640009.289138501,640010.336159557,13,0,0,30,3,0,0,0,36920368,0,0,0,0,0,0,0,0,0,0,0,0,0,0,0,0,0,0,0,0,0,0,0,0,0,0,0,0,11800009,-2200031,0,11010119,0,0,11910209,0
17,329,609.556712443009,0,0,640012.030239551,640013.077265997,13,1,0,5,19,107114207,154743565,115434565,155125075,30810509,0,30910819,0,-4181151,0,30301009,0,10910719,0,30600019,40711319,0,30811609,41810309,10810309,0,0,0,21611119,0,10911109,0,21500209,30811219,0,30600909,41401319,30011419,0,0,0,20110009,0,42001109,21601219
17,330,702.142903348431,0,0,640014.759570034,640015.80659802,13,1,0,36,3,21100119,0,41501919,31731719,21100119,0,0,0,0,0,0,0,0,0,0,0,0,0,0,0,0,0,0,0,0,0,41501919,0,0,0,0,30611619,0,0,0,0,0,0,0,-1120100
17,331,502.771236584522,1,0,640017.535964305,640018.582994216,13,1,1,10,31,199847932,197499332,225357712,180357293,21412019,10601519,41010509,12000619,31400219,41011119,0,31500809,10911119,-1130100,30710119,32012019,21511219,10411709,10400519,20212009,30500919,40610719,40310509,20310419,31910109,20111109,31110719,40801519,20001309,20802019,0,41211419,11800609,12010709,11811109,30011619,0,31901419,0,41610409
17,332,532.166855642572,1,0,640020.206487767,640021.253514213,13,0,1,15,31,228838002,208337313,217916712,179166773,40211609,30901219,41000619,21110009,41511409,0,21802009,21500619,10800509,11100509,20101919,41411119,32000309,10410509,-1081021,21010509,30410209,40811209,41000919,40110519,11700009,41501219,0,11700609,20600509,40001019,11301909,21210809,41410009,0,11211409,42012019,0,30500409,11710209,21111909
17,333,597.850434598513,0,0,640022.935815171,640023.982897437,13,0,0,34,3,0,10601709,20901319,33691739,0,0,0,0,0,0,0,0,0,0,0,10601709,0,0,0,0,0,0,20901319,0,0,0,0,0,0,0,0,0,0,31500709,0,0,0,-2191030,0,0
17,334,478.766995831393,0,0,640025.629885926,640026.676893124,13,0,0,31,3,62912638,0,0,42021510,0,0,20900819,0,0,0,42011819,0,0,0,0,0,0,0,0,0,0,0,0,0,0,0,0,0,0,0,0,0,0,0,-1010001,0,0,41011509,0,0
17,335,432.894277852029,0,0,640028.335664113,640029.382688634,13,1,0,33,19,52401138,185546022,162443865,88644466,0,0,0,0,30901119,21500019,0,0,0,0,20000819,21500219,20311919,10710519,20010909,40710609,41100719,11200309,0,40510609,40012009,0,30100209,41010019,0,10811019,0,0,0,31700509,0,31300519,-2021010,0,12011309,11611119
17,336,720.161001081578,1,0,640030.994425863,640032.04144384,13,1,1,32,9,53513338,10200509,82823337,87083187,0,42001619,0,0,0,0,0,0,11511719,0,0,0,0,10200509,0,0,0,0,0,0,0,0,0,20401009,0,40411509,22010819,0,10510819,30501109,41910219,-4161040,0,0,0,0
17,337,584.381805500016,1,0,640033.794345098,640034.841365,13,0,1,20,9,41512528,61312128,85211238,84732837,30311509,0,0,11201019,0,0,0,0,0,0,0,0,0,21010219,40301909,0,0,0,0,-3200000,0,0,42000119,0,0,40011119,0,0,31610009,11711509,0,0,0,0,41411319,0
17,338,543.926642974839,0,0,640036.523675581,640037.570763621,13,0,0,17,19,147015365,96102658,179445603,123823966,41100809,11701619,0,0,41810909,40701419,0,11700609,0,30301419,0,22000809,0,0,40800419,0,-3000011,0,22010519,30811119,31611209,0,41001619,11800109,21000519,21210509,0,0,31111319,0,0,0,0,30511919,31500219,30700509
17,339,504.205986042507,1,0,640048.429233109,640049.47625532,14,1,1,14,31,248960801,176307415,268758111,186948302,31201509,31510109,30211909,41000109,21300309,30212019,21611809,10501519,31411509,0,30411719,0,31011609,-2061140,40900709,31510619,40411619,0,31110519,31711319,10610609,41200809,10400409,41301309,30401019,40111109,31911009,11101809,20411719,0,30300619,20610409,11311009,31201609,21010619,41000509
17,340,543.787287082523,1,0,640051.099743097,640052.146773008,14,0,1,4,31,201945294,233349103,230441302,268037911,41101509,21700019,0,-4100091,20801519,41210409,20610519,21710109,30711119,0,21410419,30712009,40311019,0,30102019,40001219,30711009,40101409,11100319,30311919,41211909,21101009,0,41501119,12001809,31211409,42001809,20202009,41401309,21100909,30700609,10210919,42010419,31000319,31100209,40311209
17,341,652.337039122358,1,0,640053.770268484,640054.817290311,14,1,1,27,3,0,0,44450850,62212628,0,0,0,0,0,0,0,0,0,0,0,0,0,0,0,0,0,0,0,0,0,0,0,0,0,41300709,-3150141,0,0,0,0,0,0,0,40511009,21701619
17,342,1032.3116008658,0,0,640056.617241883,640057.664268714,14,1,0,12,19,143115656,140216085,146634355,94802956,31301019,0,41101809,30011919,0,0,0,40700909,0,10701209,10111019,-4191011,0,12001509,41400109,41200109,20611119,0,20711809,0,0,22001109,30710819,32010409,0,41200209,0,31400819,0,0,0,31801009,21500909,10100219,0,0
17,343,707.412248943001,1,0,640059.723039164,640060.770066765,14,1,1,19,9,85721837,72313557,24721959,43321418,0,0,0,0,22010109,0,21700319,0,42011409,0,0,30510819,0,0,21100919,20701819,0,0,-3021150,0,0,0,0,0,0,21700809,0,11510909,31810509,0,0,0,0,0,0,0
17,344,567.490873392671,0,0,640062.628843451,640063.675862198,14,1,0,11,0,0,0,0,0,0,0,0,0,0,0,0,0,0,0,-10301701,0,0,0,0,0,0,0,0,0,0,0,0,0,0,0,0,0,0,0,0,0,0,0,0,0
17,345,525.051237200387,0,0,640065.311117462,640066.358145833,14,0,0,20,31,259466731,186534193,127024885,256857161,10011009,42000019,40501609,40610319,20510709,11410919,42011609,20900219,31510319,31311109,30510119,30110309,11900019,30200809,0,42000619,10501209,0,20201509,-2010001,10100219,31500219,10601019,0,30601709,0,22010209,30610409,20211119,40110219,31701819,21001319,30710819,40300319,30600619,11610519
17,346,695.963894948363,1,1,640067.993401097,640069.040457185,14,0,0,30,9,82522937,62235847,0,74541277,0,40701409,30410419,0,0,0,11411109,0,0,10612019,0,0,40311909,0,0,11311919,0,0,0,0,0,0,0,0,0,0,0,41400019,20610519,-2020030,0,10510709,0,0,0,0
17,347,537.473927484825,0,0,640070.816841446,640071.863885216,14,0,0,17,3,0,12981619,20701619,40101809,0,0,0,0,0,0,0,0,0,0,0,11800419,0,0,0,0,-1181200,0,0,0,0,0,20701619,0,0,0,0,0,0,0,0,0,40101809,0,0,0
17,348,533.503824961372,1,0,640073.569720377,640074.616743743,14,0,1,7,0,0,0,0,0,0,0,0,0,0,0,-10811101,0,0,0,0,0,0,0,0,0,0,0,0,0,0,0,0,0,0,0,0,0,0,0,0,0,0,0,0,0
17,349,620.602397364564,0,0,640076.228478277,640077.275501644,14,0,0,35,3,31010309,40610309,31301319,4171110,0,0,0,0,0,0,0,0,31010309,0,0,0,0,40610309,0,0,0,0,0,0,31301319,0,0,0,0,0,0,0,0,0,0,0,0,0,-4171110,0
