sub_id,Trial,RT,Resp,Error,Fix_onset,Disp_onset,block,repeat,tid,tloc,d_setsize,quad1,quad2,quad3,quad4,loc1,loc2,loc3,loc4,loc5,loc6,loc7,loc8,loc9,loc10,loc11,loc12,loc13,loc14,loc15,loc16,loc17,loc18,loc19,loc20,loc21,loc22,loc23,loc24,loc25,loc26,loc27,loc28,loc29,loc30,loc31,loc32,loc33,loc34,loc35,loc36
15,1,1283.20096398238,0,0,541727.739508268,541728.786598233,1,1,0,19,19,154222465,115323256,167807925,106814675,41900119,0,30800409,0,0,0,30911309,20100619,30510009,0,0,0,22010409,0,20202009,41500819,31610019,0,-2101140,40801819,11701619,0,41500519,0,0,31202019,40500809,21600909,0,12000719,0,30611719,11400319,0,31201009,0
15,2,807.541660498828,1,0,541731.104269173,541732.15133527,1,0,1,19,0,0,0,0,0,0,0,0,0,0,0,0,0,0,0,0,0,0,0,0,0,0,0,-11201891,0,0,0,0,0,0,0,0,0,0,0,0,0,0,0,0,0
15,3,988.288530963473,1,0,541734.10429304,541735.151376461,1,1,1,5,9,115763547,42112728,83932747,21511219,0,30510909,41901619,41301009,-2050010,0,0,0,0,21510819,0,0,20601909,0,0,0,0,0,0,0,21210519,0,31911819,30810409,0,0,0,0,0,21511219,0,0,0,0,0,0
15,4,1054.37708890531,1,0,541737.351428738,541738.398472508,1,1,1,4,3,23901730,0,0,51722228,0,0,0,-3091021,20810709,0,0,0,0,0,0,0,0,0,0,0,0,0,0,0,0,0,0,0,0,0,0,0,0,0,0,0,11211819,0,40510409,0
15,5,707.361344830133,1,0,541740.504375268,541741.551446754,1,0,1,12,19,122617155,185645865,165714375,64123247,0,0,20200309,40900919,31412009,0,20001909,0,10102009,30101809,40201009,-1140091,0,31100809,10400319,41401719,31300109,0,0,0,11201309,40900209,31100619,40801919,0,0,41710319,0,0,21701319,0,31710319,0,0,10711609,0
15,6,790.563727263361,1,0,541743.42206638,541744.469130167,1,0,1,30,31,194436993,218722141,194139332,194819204,30601109,10501419,21001309,30310619,41710109,0,30001209,30311219,0,21001419,41511209,10201819,30501419,10601219,11701809,41301109,40501819,11400319,11111119,30311019,21301719,11011519,40200219,30101509,10101509,0,40000719,40411409,0,-1061201,10511509,10000419,40510219,30401719,31011009,30911719
15,7,584.365162882023,1,1,541746.422107186,541747.469174438,1,0,0,18,9,72622447,73464788,52301328,10400819,0,10110519,20810919,0,0,0,0,41701009,0,0,0,0,11011409,0,40811019,20501219,0,-1141141,0,0,0,0,30900209,21401119,0,0,0,0,0,0,0,0,0,0,0,10400819
15,8,919.464055565186,0,0,541749.116248388,541750.163320644,1,0,0,35,3,10600009,0,31800019,35552529,0,0,0,0,0,0,0,10600009,0,0,0,0,0,0,0,0,0,0,0,0,0,0,0,31800019,0,0,0,0,31501519,0,0,0,0,0,-4051010,0
15,9,692.088788608089,1,0,541752.257479016,541753.304533949,1,1,1,15,3,10211309,23671619,22012019,0,0,0,0,0,0,0,0,0,10211309,0,0,21601509,0,0,-2070110,0,0,0,0,22012019,0,0,0,0,0,0,0,0,0,0,0,0,0,0,0,0
15,10,771.762233925983,0,0,541755.139865743,541756.186925296,1,0,0,25,3,0,71210828,1100051,21910119,0,0,0,0,0,0,0,0,0,0,40500019,0,0,0,0,0,0,30710809,0,0,0,0,0,0,-1100051,0,0,0,0,0,0,0,0,0,0,21910119
15,11,749.129224102944,1,0,541758.116363106,541759.163424969,1,0,1,14,19,103431556,98312638,166024184,146636914,0,31610619,10400819,0,40810009,0,0,0,20610109,21700709,0,0,0,-4000101,0,41711109,30900719,0,0,41600919,41601409,21500009,0,10910319,0,10010309,40401219,31500119,0,11501319,31011219,0,41511819,20910819,10201619,0
15,12,507.018806529231,0,0,541761.116405452,541762.163468854,1,0,0,13,31,197016712,150077253,198347522,217159702,0,10700009,30401319,30500419,22000209,40710709,10901919,10000909,41801219,20310219,10500619,40601119,-4131040,0,21710409,10611519,31402009,10810319,20000219,41210919,11701909,20000119,31811109,20810119,0,41811809,11001319,20611719,41611509,10211619,31610219,30311709,21500509,0,30200909,31101509
15,13,657.41343004629,0,0,541763.740016032,541764.787024,1,1,0,22,9,52612428,31022628,14661239,122514456,0,0,0,0,0,21301519,0,0,31310909,0,10112009,0,0,20910619,0,0,0,0,0,0,0,-3051030,11610209,0,0,0,0,0,0,21210909,30400609,40001319,30901619,0,0,0
15,14,559.411608381197,0,0,541766.587055258,541767.634125975,1,1,0,21,31,216756803,246060441,188768654,299170331,30711719,30010009,41711519,32001509,0,40111819,0,31610019,10600209,40210819,21111819,21400119,20211519,30800909,41101909,20411219,20211909,30600219,41401009,40711619,-3041160,11211819,0,0,11800209,40601019,40001819,22001619,31000419,11101109,40511709,40811919,40511419,40810509,31211409,41210219
15,15,498.564293957315,1,1,541769.398854004,541770.445923566,1,0,0,23,3,21101509,10301819,4040130,40001619,0,0,0,21101509,0,0,0,0,0,0,0,0,0,10301819,0,0,0,0,0,0,0,0,-4040130,0,0,0,0,40001619,0,0,0,0,0,0,0,0
15,16,1039.64617277961,1,0,541772.116545963,541773.163651711,1,1,1,32,19,104934885,135416155,62533747,110436885,11200719,0,0,0,10511019,0,41510209,10201819,31511119,41000709,0,0,41810909,10400809,0,21401919,0,20801809,0,41011109,0,0,0,10612019,0,0,10910619,11211909,11512019,30900809,31901019,-3201001,11100119,0,10610009,0
15,17,696.753360563889,1,0,541775.222500693,541776.269518285,1,0,1,36,9,43711028,30200838,74312137,26663038,0,0,0,11910219,0,31800809,0,0,0,0,10100119,0,0,0,0,20100719,0,0,0,41801709,11000419,0,0,0,0,0,21510009,0,0,0,0,0,0,11011309,11511609,-4140120
15,18,714.674063259736,0,0,541778.010722119,541779.057796301,1,1,0,11,3,21701919,33102049,31601819,0,0,0,0,0,0,21701919,0,0,0,0,-2091130,0,0,0,0,0,0,31010919,0,0,0,0,0,31601819,0,0,0,0,0,0,0,0,0,0,0,0
15,19,574.893968296237,1,0,541780.928408227,541781.975475479,1,1,1,9,19,128887005,134926065,144226794,52113157,31501709,0,30001119,41211019,10310209,11711909,0,0,-4151040,31101219,0,41511109,21111209,0,0,0,10001119,31201409,30000509,0,0,21501519,30011819,0,21201319,10610109,30901519,31410819,0,10600419,0,10101919,0,0,0,0
15,20,585.641308454797,0,0,541783.622560593,541784.669623995,1,0,0,17,31,240457531,91684266,218659631,198347322,41800419,10611209,41200009,21100209,11610619,20310309,40512019,41310819,12001919,31811509,0,11710819,0,21910419,10800009,11401509,-4050001,0,41702019,20110609,41500819,20102019,10801109,21410219,11710719,21310209,30011909,30000909,20300719,40600809,31311009,11210619,0,42001519,11410719,11511019
15,21,967.01173868496,1,0,541786.269645707,541787.316711034,1,0,1,7,9,16050440,85635756,94035346,0,0,0,0,0,0,0,-4140131,11910309,0,0,0,11411909,0,12011419,0,31611019,30601409,0,0,0,41911509,30611009,0,10510819,0,0,11002009,0,0,0,0,0,0,0,0,0
15,22,642.446917830966,1,0,541789.422622649,541790.46969144,1,0,1,8,19,64675386,156738384,143822875,103132736,0,31900409,0,0,10111919,10711119,0,-1140030,10811909,21011719,10402019,42002009,0,10101319,0,0,31811009,41410309,10311809,0,41400209,20400419,0,40310119,0,31400319,0,10911409,0,21200109,0,40410509,0,0,0,30610709
15,23,845.314029953443,0,0,541792.269720004,541793.316787641,1,1,0,6,31,167676964,177365483,271348602,260192521,21701719,10801119,31401119,30110319,0,-2040051,41110419,10001709,20510509,20500609,41710509,20410619,0,11011809,0,41411419,31910209,10410309,0,21910609,40911309,41910019,30312009,31902019,41100809,21300609,42001219,20812009,40711319,21411509,21801819,20611009,31211219,31411719,32010009,40211909
15,24,581.228500930592,0,0,541795.316820748,541796.363881071,1,1,0,10,9,31801318,34721479,53212828,61432357,0,0,0,10500309,0,0,0,21301009,0,-3110041,0,0,10710519,0,0,0,0,20900919,0,0,0,0,0,0,0,11810909,41401919,0,0,0,0,0,10310019,20011119,0,31111219
15,25,551.591126481071,1,0,541798.093320883,541799.140399299,1,1,1,28,0,0,0,0,0,0,0,0,0,0,0,0,0,0,0,0,0,0,0,0,0,0,0,0,0,0,0,0,0,0,0,0,-21910501,0,0,0,0,0,0,0,0
15,26,851.807936443947,0,0,541800.799253054,541801.846363422,1,1,0,29,31,167158493,258340051,197956922,237847133,20110709,22011709,42000619,10512019,0,20401419,41110309,11011709,0,30401319,41110019,12001419,10200819,41711119,20801719,40301909,31801509,30010219,20410109,11811009,10111119,20401809,30400119,42000019,32011019,0,30811719,10201409,-1000160,40910409,31700909,41011119,41500609,0,41111709,30410809
15,27,626.208879519254,0,0,541836.811437839,541837.85851356,2,0,0,17,3,30811519,2010130,42601328,0,0,30811519,0,0,0,0,0,0,0,0,0,0,0,0,0,0,-2010130,0,0,21701119,0,0,0,0,0,20900209,0,0,0,0,0,0,0,0,0,0
15,28,584.449469228275,1,0,541839.529120944,541840.576180496,2,1,1,10,9,31801318,34721479,53212828,61432357,0,0,0,10500309,0,0,0,21301009,0,-3110041,0,0,10710519,0,0,0,0,20900919,0,0,0,0,0,0,0,11810909,41401919,0,0,0,0,0,10310019,20011119,0,31111219
15,29,495.576226967387,0,0,541842.235041181,541843.282103429,2,1,0,4,3,23901730,0,0,51722228,0,0,0,-3091021,20810709,0,0,0,0,0,0,0,0,0,0,0,0,0,0,0,0,0,0,0,0,0,0,0,0,0,0,0,11211819,0,40510409,0
15,30,544.370798626915,0,1,541844.870364583,541845.917431065,2,0,1,14,0,0,0,0,0,0,0,0,0,0,0,0,0,0,0,0,0,0,-22001291,0,0,0,0,0,0,0,0,0,0,0,0,0,0,0,0,0,0,0,0,0,0
15,31,555.754864239134,1,0,541847.505692219,541848.552791038,2,0,1,30,9,52111138,41200719,32701728,105773187,11010619,0,41100519,0,0,0,0,0,0,0,0,0,0,41200719,0,0,0,0,0,0,0,12000019,20701709,0,0,0,0,11210809,40500609,-2050041,0,0,40900019,0,11111709,0
15,32,681.957000982948,1,0,541850.164543665,541851.211605528,2,0,1,25,19,92844546,178120712,96324078,83243256,0,11011009,0,40011609,11711019,30110909,0,0,0,0,40101319,11101309,11901319,11801519,20802009,30800719,10001309,41611209,0,20401609,40900909,0,0,0,-4010141,31011419,0,0,0,0,11510609,0,0,30110609,10210819,31411219
15,33,529.496292117983,0,0,541852.988113747,541854.035180999,2,1,0,11,3,21701919,33102049,31601819,0,0,0,0,0,0,21701919,0,0,0,0,-2091130,0,0,0,0,0,0,31010919,0,0,0,0,0,31601819,0,0,0,0,0,0,0,0,0,0,0,0
15,34,645.303328172304,0,0,541855.63520887,541856.682270348,2,1,0,5,9,115763547,42112728,83932747,21511219,0,30510909,41901619,41301009,-2050010,0,0,0,0,21510819,0,0,20601909,0,0,0,0,0,0,0,21210519,0,31911819,30810409,0,0,0,0,0,21511219,0,0,0,0,0,0
15,35,713.156547164544,0,0,541858.482293137,541859.529366934,2,0,0,8,19,77045407,53101618,206547812,125427085,10510209,21501219,0,0,0,30211209,11711619,-3111151,0,41200909,0,0,0,0,0,0,0,11900709,40700209,30611119,31811409,10901309,0,20100009,20311419,30401419,21710919,0,0,0,10801609,41611919,20810519,40401319,0,11801719
15,36,736.586811137386,0,0,541861.399980015,541862.447031483,2,0,0,7,31,160568514,156458992,243946922,218409542,10311619,41900609,0,11700319,30311809,20711619,-3011021,30810009,11811509,11711609,30701919,21110309,10501319,41401309,0,10011109,10910509,20110909,40102019,40711019,20400109,40701809,10810019,0,40000409,11010219,40211319,11600909,0,21001619,40602019,10800119,21500419,41801819,41001519,30101119
15,37,809.070725459605,1,0,541864.376484692,541865.42355002,2,1,1,6,31,167676964,177365483,271348602,260192521,21701719,10801119,31401119,30110319,0,-2040051,41110419,10001709,20510509,20500609,41710509,20410619,0,11011809,0,41411419,31910209,10410309,0,21910609,40911309,41910019,30312009,31902019,41100809,21300609,42001219,20812009,40711319,21411509,21801819,20611009,31211219,31411719,32010009,40211909
15,38,764.001420931891,0,0,541867.329463251,541868.376525498,2,1,0,19,19,154222465,115323256,167807925,106814675,41900119,0,30800409,0,0,0,30911309,20100619,30510009,0,0,0,22010409,0,20202009,41500819,31610019,0,-2101140,40801819,11701619,0,41500519,0,0,31202019,40500809,21600909,0,12000719,0,30611719,11400319,0,31201009,0
15,39,658.674177131616,0,0,541870.16479312,541871.211855752,2,1,0,9,19,128887005,134926065,144226794,52113157,31501709,0,30001119,41211019,10310209,11711909,0,0,-4151040,31101219,0,41511109,21111209,0,0,0,10001119,31201409,30000509,0,0,21501519,30011819,0,21201319,10610109,30901519,31410819,0,10600419,0,10101919,0,0,0,0
15,40,637.166793225333,0,0,541873.047180617,541874.09424017,2,1,0,29,31,167158493,258340051,197956922,237847133,20110709,22011709,42000619,10512019,0,20401419,41110309,11011709,0,30401319,41110019,12001419,10200819,41711119,20801719,40301909,31801509,30010219,20410109,11811009,10111119,20401809,30400119,42000019,32011019,0,30811719,10201409,-1000160,40910409,31700909,41011119,41500609,0,41111709,30410809
15,41,749.02374483645,1,0,541875.941332521,541876.988400158,2,1,1,21,31,216756803,246060441,188768654,299170331,30711719,30010009,41711519,32001509,0,40111819,0,31610019,10600209,40210819,21111819,21400119,20211519,30800909,41101909,20411219,20211909,30600219,41401009,40711619,-3041160,11211819,0,0,11800209,40601019,40001819,22001619,31000419,11101109,40511709,40811919,40511419,40810509,31211409,41210219
15,42,655.571006936952,0,0,541878.870781496,541879.917832579,2,1,0,15,3,10211309,23671619,22012019,0,0,0,0,0,0,0,0,0,10211309,0,0,21601509,0,0,-2070110,0,0,0,0,22012019,0,0,0,0,0,0,0,0,0,0,0,0,0,0,0,0
15,43,641.420226893388,0,0,541881.670813909,541882.717876927,2,0,0,14,31,246148451,262869712,167459123,164117303,31311519,40900519,40300519,31401219,31011309,10310819,10011319,20701019,30200209,41510519,20811719,41411409,41311909,-2081110,10911109,31410309,31910009,41511619,20312019,11210719,11011219,31811619,21511309,41500919,30101319,0,0,41000209,30301119,10001119,20800519,11801109,0,0,30011719,20201509
15,44,676.428191713057,1,0,541884.423847209,541885.470855562,2,0,1,35,9,84720937,52121638,52923557,14811379,31110009,31910209,0,0,0,0,21700719,0,0,0,40710119,0,0,0,0,0,11411519,0,10111719,0,0,0,11801319,31010519,0,0,0,0,10800219,0,0,0,0,0,-4011160,0
15,45,888.335727271624,1,0,541887.16499253,541888.212063246,2,1,1,32,19,104934885,135416155,62533747,110436885,11200719,0,0,0,10511019,0,41510209,10201819,31511119,41000709,0,0,41810909,10400809,0,21401919,0,20801809,0,41011109,0,0,0,10612019,0,0,10910619,11211909,11512019,30900809,31901019,-3201001,11100119,0,10610009,0
15,46,572.961079305969,1,0,541890.212094428,541891.259153981,2,1,1,28,0,0,0,0,0,0,0,0,0,0,0,0,0,0,0,0,0,0,0,0,0,0,0,0,0,0,0,0,0,0,0,0,-21910501,0,0,0,0,0,0,0,0
15,47,866.944601526484,1,0,541892.953347153,541894.000372059,2,0,1,18,19,143533375,107126095,116336075,94524256,0,0,41800019,20610519,20210909,0,40110809,0,20801119,0,21002009,11900109,21610509,0,0,10101519,41311819,-1200130,0,31411309,0,0,12011719,21102019,41500709,10310319,0,21600009,0,0,40202019,21611519,0,11110709,0,0
15,48,792.808434576727,1,0,541896.012163028,541897.05923105,2,0,1,23,31,188040093,200160332,144360033,246525402,0,21812009,21600819,40801709,40901219,11511119,20601809,30811409,0,21610009,11811819,21201609,21711619,0,10811819,41811119,41200819,30001519,11200019,30311919,11701909,11601609,-4021011,21301219,12010309,31900819,10311219,21600009,40711419,41600419,40001309,11410609,0,20000219,30100409,41101009
15,49,960.430831066333,0,0,541899.035733033,541900.082797205,2,0,0,12,3,0,33612029,0,20201109,0,0,0,0,0,0,0,0,0,0,0,-2001111,0,10010509,0,21600409,0,0,0,0,0,0,0,0,0,0,0,0,0,0,0,0,20201109,0,0,0
15,50,617.155367624946,1,0,541902.129883705,541903.176948647,2,1,1,22,9,52612428,31022628,14661239,122514456,0,0,0,0,0,21301519,0,0,31310909,0,10112009,0,0,20910619,0,0,0,0,0,0,0,-3051030,11610209,0,0,0,0,0,0,21210909,30400609,40001319,30901619,0,0,0
15,51,687.455013510771,0,0,541904.84756373,541905.894634447,2,0,0,36,3,21510709,0,51621528,1201061,21510709,0,0,0,0,0,0,0,0,0,0,0,0,0,0,0,0,0,41610509,0,0,0,0,0,0,0,10011019,0,0,0,0,0,0,0,0,-1201061
15,52,871.065608575009,1,0,541907.682893984,541908.729963161,2,0,1,13,9,42113428,53323558,52802628,93624757,0,0,30711709,11401719,0,0,0,0,0,0,20501419,31701119,-1121020,0,0,0,0,0,0,0,11300609,0,0,0,41502019,0,0,31011619,0,0,31101119,0,0,0,0,31512019
15,53,734.266266459599,0,0,541936.318533439,541937.365604541,3,1,0,19,19,154222465,115323256,167807925,106814675,41900119,0,30800409,0,0,0,30911309,20100619,30510009,0,0,0,22010409,0,20202009,41500819,31610019,0,-2101140,40801819,11701619,0,41500519,0,0,31202019,40500809,21600909,0,12000719,0,30611719,11400319,0,31201009,0
15,54,794.442978804,1,0,541939.283262931,541940.330350586,3,1,1,9,19,128887005,134926065,144226794,52113157,31501709,0,30001119,41211019,10310209,11711909,0,0,-4151040,31101219,0,41511109,21111209,0,0,0,10001119,31201409,30000509,0,0,21501519,30011819,0,21201319,10610109,30901519,31410819,0,10600419,0,10101919,0,0,0,0
15,55,513.461513211951,1,0,541942.28331952,541943.330378303,3,0,1,18,3,43722027,4011140,0,0,21301509,11710409,0,0,0,10710109,0,0,0,0,0,0,0,0,0,0,0,-4011140,0,0,0,0,0,0,0,0,0,0,0,0,0,0,0,0,0,0
15,56,578.040639171377,1,0,541944.977470346,541946.024527974,3,0,1,35,19,93521737,164544375,137127964,134776055,0,0,41210509,0,0,0,42010209,0,10301019,30110819,0,0,0,40010219,0,41600909,11610709,41211719,40902009,0,11201309,31510509,0,10001709,0,11910409,31602019,21100819,40311009,10501709,20600809,40211619,0,0,-2050090,0
15,57,445.811168639921,1,0,541947.765741818,541948.812804835,3,1,1,28,0,0,0,0,0,0,0,0,0,0,0,0,0,0,0,0,0,0,0,0,0,0,0,0,0,0,0,0,0,0,0,0,-21910501,0,0,0,0,0,0,0,0
15,58,701.948023750447,1,0,541950.42463022,541951.471655511,3,0,1,17,19,122424165,75323159,134614846,198939002,41000319,20700809,30001109,0,0,0,0,20711919,10010009,0,40811019,31411119,0,0,0,0,-3101021,0,41500909,0,0,41102009,0,32011409,0,0,20000519,10601819,11210509,41101619,21301319,21211209,30300709,41700409,21511409,0
15,59,793.145660427399,0,0,541953.389130781,541954.436402326,3,1,0,29,31,167158493,258340051,197956922,237847133,20110709,22011709,42000619,10512019,0,20401419,41110309,11011709,0,30401319,41110019,12001419,10200819,41711119,20801719,40301909,31801509,30010219,20410109,11811009,10111119,20401809,30400119,42000019,32011019,0,30811719,10201409,-1000160,40910409,31700909,41011119,41500609,0,41111709,30410809
15,60,583.074003807269,1,0,541956.283491213,541957.330547686,3,1,1,11,3,21701919,33102049,31601819,0,0,0,0,0,0,21701919,0,0,0,0,-2091130,0,0,0,0,0,0,31010919,0,0,0,0,0,31601819,0,0,0,0,0,0,0,0,0,0,0,0
15,61,385.295305517502,0,0,541959.107072458,541960.154135091,3,1,0,15,3,10211309,23671619,22012019,0,0,0,0,0,0,0,0,0,10211309,0,0,21601509,0,0,-2070110,0,0,0,0,22012019,0,0,0,0,0,0,0,0,0,0,0,0,0,0,0,0
15,62,546.061547240242,1,0,541961.542373225,541962.589439707,3,0,1,36,19,147737003,82603837,146336395,115713426,0,12001019,41901319,10211409,11411319,20100709,30910319,0,21200909,31200409,0,0,0,30202019,0,0,21201409,0,31911619,42011719,0,20200219,41902019,0,0,10310819,0,30911609,11610419,0,0,0,0,40100419,31000819,-2090160
15,63,590.712399221957,0,0,541964.17770625,541965.224766958,3,1,0,32,19,104934885,135416155,62533747,110436885,11200719,0,0,0,10511019,0,41510209,10201819,31511119,41000709,0,0,41810909,10400809,0,21401919,0,20801809,0,41011109,0,0,0,10612019,0,0,10910619,11211909,11512019,30900809,31901019,-3201001,11100119,0,10610009,0
15,64,758.999623241834,1,0,541966.989497297,541968.036612284,3,1,1,5,9,115763547,42112728,83932747,21511219,0,30510909,41901619,41301009,-2050010,0,0,0,0,21510819,0,0,20601909,0,0,0,0,0,0,0,21210519,0,31911819,30810409,0,0,0,0,0,21511219,0,0,0,0,0,0
15,65,659.189254976809,0,0,541969.95431148,541971.001310979,3,0,0,29,0,0,0,0,0,0,0,0,0,0,0,0,0,0,0,0,0,0,0,0,0,0,0,0,0,0,0,0,0,0,0,0,0,-41000991,0,0,0,0,0,0,0
15,66,643.544056452811,0,0,541972.824865277,541973.871929064,3,0,0,8,31,230938793,106126075,287848311,271061611,30501619,30411509,21610519,31511719,20710609,40101219,31600319,-3091061,21400219,11511509,0,0,20100619,31801809,21211019,21501119,0,0,31100019,20511409,40411719,20911709,30500609,42011519,40800209,20501109,41100009,20411609,31311419,21211009,41700709,11711609,40400809,30811319,32001419,41501709
15,67,849.710284150206,1,0,541975.636662868,541976.683736279,3,0,1,14,3,72611438,3171151,11411809,0,0,0,0,31911019,0,0,0,40700419,0,0,0,0,0,-3171151,0,0,0,0,0,11411809,0,0,0,0,0,0,0,0,0,0,0,0,0,0,0,0
15,68,494.773583253846,0,0,541978.648498877,541979.695536102,3,1,0,21,31,216756803,246060441,188768654,299170331,30711719,30010009,41711519,32001509,0,40111819,0,31610019,10600209,40210819,21111819,21400119,20211519,30800909,41101909,20411219,20211909,30600219,41401009,40711619,-3041160,11211819,0,0,11800209,40601019,40001819,22001619,31000419,11101109,40511709,40811919,40511419,40810509,31211409,41210219
15,69,565.534797380678,0,0,541981.342612747,541982.389686159,3,0,0,25,9,74212837,64322947,14171430,43011738,0,21710309,21502009,0,0,0,0,31000519,0,0,11700909,0,0,21410219,0,0,0,31211819,0,0,0,0,0,10100319,-4071111,0,0,0,0,0,21111219,0,21900519,0,0,0
15,70,601.873572333716,0,0,541984.154449219,541985.201483364,3,1,0,22,9,52612428,31022628,14661239,122514456,0,0,0,0,0,21301519,0,0,31310909,0,10112009,0,0,20910619,0,0,0,0,0,0,0,-3051030,11610209,0,0,0,0,0,0,21210909,30400609,40001319,30901619,0,0,0
15,71,690.456169075333,1,0,541986.88385862,541987.930932031,3,0,1,23,31,157928012,198252021,140577225,139146542,12000319,11401309,20611109,20100609,0,20200819,21001919,11100519,41511409,41511709,10801419,41900519,30211619,10411009,20501719,11801209,10711009,20401809,21710619,31701419,30601519,20810709,-2151131,21800409,0,0,11801419,10501509,10500119,21611519,21111219,31501019,11200619,11410519,0,21310019
15,72,1297.1219222527,1,0,541989.672132786,541990.719194648,3,1,1,6,31,167676964,177365483,271348602,260192521,21701719,10801119,31401119,30110319,0,-2040051,41110419,10001709,20510509,20500609,41710509,20410619,0,11011809,0,41411419,31910209,10410309,0,21910609,40911309,41910019,30312009,31902019,41100809,21300609,42001219,20812009,40711319,21411509,21801819,20611009,31211219,31411719,32010009,40211909
15,73,790.255373576656,0,0,541993.130999322,541994.17805695,3,0,0,30,9,83234427,41411819,31310709,95134376,0,0,40211509,0,31311709,0,11711209,0,0,0,0,41411819,0,0,0,0,0,0,0,0,0,0,0,31310709,0,0,0,31711909,10500119,-1011030,20010209,0,0,0,31901109,0
15,74,606.613981653936,0,0,541996.060441752,541997.107510544,3,0,0,12,3,21600209,52681968,0,0,0,0,0,0,0,0,0,21600209,0,0,0,-1070050,0,10301709,41310209,0,0,0,0,0,0,0,0,0,0,0,0,0,0,0,0,0,0,0,0,0
15,75,687.19593482092,0,0,541998.742830096,541999.789894269,3,0,0,13,31,217156112,170044513,167019123,216845031,0,11911509,20410819,10100019,41510319,31610109,40202009,21101319,40310009,40310009,31900319,30200109,-3131110,10700319,30101719,0,11800419,11900509,31601719,12000519,0,10601919,30101819,10411709,32000419,0,40301019,20710819,20110109,11700219,31610519,40201609,30100609,31710019,20200909,10500219
15,76,744.368411949836,1,0,542001.648744867,542002.695809425,3,0,1,7,9,65464068,83611638,82723737,21313028,0,0,0,41001519,0,0,-3151030,21311519,0,42000519,0,0,0,41611119,0,0,0,0,0,10201809,0,0,0,0,31010809,41511119,0,10611319,0,0,0,0,0,10701709,0,0
15,77,834.348417120054,0,0,542004.495840683,542005.542906011,3,1,0,4,3,23901730,0,0,51722228,0,0,0,-3091021,20810709,0,0,0,0,0,0,0,0,0,0,0,0,0,0,0,0,0,0,0,0,0,0,0,0,0,0,0,11211819,0,40510409,0
15,78,675.948530435562,1,0,542007.542942197,542008.590003674,3,1,1,10,9,31801318,34721479,53212828,61432357,0,0,0,10500309,0,0,0,21301009,0,-3110041,0,0,10710519,0,0,0,0,20900919,0,0,0,0,0,0,0,11810909,41401919,0,0,0,0,0,10310019,20011119,0,31111219
15,79,751.293859560974,0,0,542022.366635081,542023.413710417,4,0,0,33,0,0,0,0,0,0,0,0,0,0,0,0,0,0,0,0,0,0,0,0,0,0,0,0,0,0,0,0,0,0,0,0,0,0,0,0,0,-21811691,0,0,0
15,80,729.207879281603,1,0,542025.319619414,542026.366689746,4,1,1,4,3,23901730,0,0,51722228,0,0,0,-3091021,20810709,0,0,0,0,0,0,0,0,0,0,0,0,0,0,0,0,0,0,0,0,0,0,0,0,0,0,0,11211819,0,40510409,0
15,81,727.349672815762,1,0,542028.237328234,542029.284379703,4,0,1,7,3,1111190,23501028,0,41510119,0,0,0,0,0,0,-1111190,0,0,0,0,11600119,0,0,11900909,0,0,0,0,0,0,0,0,0,0,0,0,0,0,0,0,0,0,41510119,0,0
15,82,870.973602868617,0,0,542031.060869444,542032.107977887,4,0,0,18,31,245647601,142478743,176137413,207149212,21500209,30201309,10610009,40501109,20401019,31211009,30410209,30600919,30211809,21800409,0,41000709,11211319,11501819,10401409,11811819,30601109,-4150150,30701719,11111309,31100319,0,30310219,30700409,21602019,0,20611419,20101819,40210419,32011509,31301809,21100309,0,11201919,40611309,10610119
15,83,568.942087003961,0,0,542034.0609064,542035.107976347,4,1,0,15,3,10211309,23671619,22012019,0,0,0,0,0,0,0,0,0,10211309,0,0,21601509,0,0,-2070110,0,0,0,0,22012019,0,0,0,0,0,0,0,0,0,0,0,0,0,0,0,0
15,84,491.456759627908,1,0,542036.849179411,542037.896240119,4,1,1,22,9,52612428,31022628,14661239,122514456,0,0,0,0,0,21301519,0,0,31310909,0,10112009,0,0,20910619,0,0,0,0,0,0,0,-3051030,11610209,0,0,0,0,0,0,21210909,30400609,40001319,30901619,0,0,0
15,85,1003.36937664542,1,0,542039.59039287,542040.637453577,4,1,1,19,19,154222465,115323256,167807925,106814675,41900119,0,30800409,0,0,0,30911309,20100619,30510009,0,0,0,22010409,0,20202009,41500819,31610019,0,-2101140,40801819,11701619,0,41500519,0,0,31202019,40500809,21600909,0,12000719,0,30611719,11400319,0,31201009,0
15,86,831.395381479524,1,0,542042.802233037,542043.849254094,4,1,1,5,9,115763547,42112728,83932747,21511219,0,30510909,41901619,41301009,-2050010,0,0,0,0,21510819,0,0,20601909,0,0,0,0,0,0,0,21210519,0,31911819,30810409,0,0,0,0,0,21511219,0,0,0,0,0,0
15,87,1153.35247688927,1,0,542045.802232267,542046.849297979,4,0,1,35,19,115832565,85335075,136643865,109720897,30611019,0,12000109,31010519,0,21700709,0,0,20510209,0,10810709,0,11601609,0,0,11001519,41810019,10111219,22010909,0,0,0,0,31110819,30801509,31010109,21710519,0,0,21300009,41310219,31900219,0,11100419,-4110031,0
15,88,585.826089722104,0,0,542049.02580027,542050.072909483,4,1,0,28,0,0,0,0,0,0,0,0,0,0,0,0,0,0,0,0,0,0,0,0,0,0,0,0,0,0,0,0,0,0,0,0,-21910501,0,0,0,0,0,0,0,0
15,89,638.441399089061,1,0,542051.814064812,542052.86112783,4,1,1,11,3,21701919,33102049,31601819,0,0,0,0,0,0,21701919,0,0,0,0,-2091130,0,0,0,0,0,0,31010919,0,0,0,0,0,31601819,0,0,0,0,0,0,0,0,0,0,0,0
15,90,724.660720559768,0,0,542054.625859323,542055.672928115,4,1,0,9,19,128887005,134926065,144226794,52113157,31501709,0,30001119,41211019,10310209,11711909,0,0,-4151040,31101219,0,41511109,21111209,0,0,0,10001119,31201409,30000509,0,0,21501519,30011819,0,21201319,10610109,30901519,31410819,0,10600419,0,10101919,0,0,0,0
15,91,950.866091065109,1,0,542057.590602289,542058.637714966,4,0,1,13,9,52912738,63863588,42922028,93611237,0,42001619,0,0,10911119,0,0,0,0,0,0,0,-2161070,0,21301009,0,0,40401509,0,21011719,0,0,0,0,21910309,0,0,0,31400109,22010409,0,0,0,0,0,40200719
15,92,749.721294036135,0,0,542060.637703417,542061.68480724,4,0,0,30,19,235144813,223627604,73501376,72322829,30010719,21010019,0,40400719,40100419,41711609,0,21910119,40001209,41610619,40101919,0,30601519,40500909,30110719,40701919,0,0,11600019,0,0,0,20200019,0,0,10901119,30800219,0,30101809,-1120111,0,0,0,0,0,41100909
15,93,762.78494426515,0,0,542063.48483311,542064.531853396,4,0,0,36,31,220852331,219037473,258059231,168895845,20510809,11111719,42001509,41901219,31301909,10401919,21210209,11001519,31411519,12001609,31411009,41111019,30201709,30811009,31600309,0,0,41900809,41410019,32001419,30001609,40501509,21310619,11912009,30910419,40001619,10010009,41300819,0,41910609,0,20700019,11211909,20500609,30100819,-3171061
15,94,973.351660766639,1,0,542066.473064853,542067.52013634,4,0,1,25,3,12001309,11210219,2090141,30811709,0,0,12001309,0,0,0,0,0,0,0,0,0,0,0,0,11210219,0,0,0,0,0,0,0,0,-2090141,0,0,30811709,0,0,0,0,0,0,0,0
15,95,710.590782342479,0,0,542069.637811591,542070.684881923,4,1,0,10,9,31801318,34721479,53212828,61432357,0,0,0,10500309,0,0,0,21301009,0,-3110041,0,0,10710519,0,0,0,0,20900919,0,0,0,0,0,0,0,11810909,41401919,0,0,0,0,0,10310019,20011119,0,31111219
15,96,804.001559619792,0,0,542072.567259026,542073.614323583,4,0,0,8,19,66312478,84434066,143406585,180547632,0,21110509,0,0,0,0,42010809,-3191160,0,0,40102019,0,0,11411619,11810019,0,0,21110409,40501009,0,41601919,20301719,10800019,0,0,0,30201919,21901109,0,12011019,32010719,21300719,21601119,40510019,21001019,10211909
15,97,736.847044667229,0,0,542075.602596132,542076.649662229,4,1,0,6,31,167676964,177365483,271348602,260192521,21701719,10801119,31401119,30110319,0,-2040051,41110419,10001709,20510509,20500609,41710509,20410619,0,11011809,0,41411419,31910209,10410309,0,21910609,40911309,41910019,30312009,31902019,41100809,21300609,42001219,20812009,40711319,21411509,21801819,20611009,31211219,31411719,32010009,40211909
15,98,657.998570706695,1,0,542078.520274156,542079.567338328,4,1,1,32,19,104934885,135416155,62533747,110436885,11200719,0,0,0,10511019,0,41510209,10201819,31511119,41000709,0,0,41810909,10400809,0,21401919,0,20801809,0,41011109,0,0,0,10612019,0,0,10910619,11211909,11512019,30900809,31901019,-3201001,11100119,0,10610009,0
15,99,656.568486476317,0,0,542081.379128989,542082.437770047,4,1,0,21,31,216756803,246060441,188768654,299170331,30711719,30010009,41711519,32001509,0,40111819,0,31610019,10600209,40210819,21111819,21400119,20211519,30800909,41101909,20411219,20211909,30600219,41401009,40711619,-3041160,11211819,0,0,11800209,40601019,40001819,22001619,31000419,11101109,40511709,40811919,40511419,40810509,31211409,41210219
15,100,556.37157172896,0,0,542084.237988057,542085.285069553,4,0,0,12,9,103803337,66401339,31710609,92724447,21400619,0,0,40401509,0,0,0,42001209,0,0,20610109,-4080111,0,0,41711119,0,0,0,0,31710609,0,0,0,0,0,0,0,30711219,0,0,31611219,30402009,0,0,0,0
15,101,561.419179779477,0,0,542086.896843738,542087.943911375,4,1,0,29,31,167158493,258340051,197956922,237847133,20110709,22011709,42000619,10512019,0,20401419,41110309,11011709,0,30401319,41110019,12001419,10200819,41711119,20801719,40301909,31801509,30010219,20410109,11811009,10111119,20401809,30400119,42000019,32011019,0,30811719,10201409,-1000160,40910409,31700909,41011119,41500609,0,41111709,30410809
15,102,807.137836585753,1,0,542089.638045263,542090.685131762,4,0,1,17,9,103412047,26130969,11100319,63835356,41200519,0,0,0,0,0,0,41200219,21011309,0,0,0,0,0,0,0,-4120060,22010909,0,0,0,0,0,11100319,0,0,0,0,0,30510009,0,11312009,11901519,0,10111819,0
15,103,671.325149247423,1,0,542092.649857405,542093.696926196,4,0,1,23,31,211639892,261347702,211629624,185239222,41910509,40700609,22001709,31002019,21201409,11501509,22011009,0,21311119,31510919,41400009,21211919,40801009,31001219,31800509,0,31811809,31810309,40610819,41600919,10810519,30901609,-4091021,40602019,0,21201409,21811309,20600319,0,30410519,41311719,20001209,11400519,11101409,20311719,30101809
15,104,1011.18947356008,1,0,542095.496951681,542096.544013543,4,0,1,14,3,22011409,32142819,20611019,0,22011409,0,0,0,0,0,0,0,0,0,0,0,31101709,-1041110,0,0,0,0,0,0,0,20611019,0,0,0,0,0,0,0,0,0,0,0,0,0,0
15,105,969.07089476008,1,0,542103.355866953,542104.402932665,5,0,1,25,31,207150313,209765522,170475814,219637721,41801319,0,40411919,31111519,10311409,21011519,31501319,0,31001309,20110119,32010519,0,31300909,11600509,31210319,30011919,12010309,41510919,41911209,32001119,10311109,0,31611619,31200409,-2130021,11000019,10310309,10610309,21101809,21500519,30400619,30300509,21812009,11901219,40610009,31400719
15,106,629.770153318532,0,0,542106.497077178,542107.544206794,5,1,0,6,31,167676964,177365483,271348602,260192521,21701719,10801119,31401119,30110319,0,-2040051,41110419,10001709,20510509,20500609,41710509,20410619,0,11011809,0,41411419,31910209,10410309,0,21910609,40911309,41910019,30312009,31902019,41100809,21300609,42001219,20812009,40711319,21411509,21801819,20611009,31211219,31411719,32010009,40211909
15,107,593.178844079375,1,0,542109.367719131,542110.41476752,5,0,1,18,3,21300709,21472989,0,41110219,0,21300709,0,0,0,0,0,0,0,0,0,20311819,0,0,0,0,0,-1161170,0,0,0,0,0,0,0,0,0,0,41110219,0,0,0,0,0,0,0
15,108,710.574614000507,1,0,542112.132449855,542113.179511332,5,0,1,35,9,30111719,53031247,72903028,104563127,0,0,0,0,0,30111719,0,0,0,0,0,0,11610019,10110409,31310819,0,0,0,0,0,0,0,31801619,0,0,41101409,0,0,30111519,30311309,0,0,40010119,0,-4130180,0
15,109,552.824156358838,1,0,542114.897194052,542115.944255145,5,0,1,17,3,40700509,2100151,40410719,21001809,0,0,0,0,0,0,40700509,0,0,0,0,0,0,0,0,0,-2100151,0,0,0,0,0,0,40410719,0,0,0,0,0,21001809,0,0,0,0,0,0
15,110,548.914492945187,0,0,542117.614863298,542118.661930935,5,1,0,10,9,31801318,34721479,53212828,61432357,0,0,0,10500309,0,0,0,21301009,0,-3110041,0,0,10710519,0,0,0,0,20900919,0,0,0,0,0,0,0,11810909,41401919,0,0,0,0,0,10310019,20011119,0,31111219
15,111,718.592196004465,0,0,542120.391371903,542121.43843492,5,1,0,29,31,167158493,258340051,197956922,237847133,20110709,22011709,42000619,10512019,0,20401419,41110309,11011709,0,30401319,41110019,12001419,10200819,41711119,20801719,40301909,31801509,30010219,20410109,11811009,10111119,20401809,30400119,42000019,32011019,0,30811719,10201409,-1000160,40910409,31700909,41011119,41500609,0,41111709,30410809
15,112,1193.30680510029,0,0,542123.191408936,542124.238472338,5,1,0,4,3,23901730,0,0,51722228,0,0,0,-3091021,20810709,0,0,0,0,0,0,0,0,0,0,0,0,0,0,0,0,0,0,0,0,0,0,0,0,0,0,0,11211819,0,40510409,0
15,113,665.999984368682,1,0,542126.579683641,542127.626746658,5,1,1,9,19,128887005,134926065,144226794,52113157,31501709,0,30001119,41211019,10310209,11711909,0,0,-4151040,31101219,0,41511109,21111209,0,0,0,10001119,31201409,30000509,0,0,21501519,30011819,0,21201319,10610109,30901519,31410819,0,10600419,0,10101919,0,0,0,0
15,114,551.419433904812,0,0,542129.344421679,542130.391500865,5,0,0,7,31,130026315,167347902,181344912,217148021,20001219,11400419,11401809,0,0,10401219,-4111011,31000119,41710519,21010209,30211609,21501019,11100509,31611809,21911909,20000619,10000219,0,0,11600709,11500519,10311309,31210619,31800419,41910019,11410709,31600609,10800709,40310409,11911619,20810419,30001109,20700119,41001719,20201609,21410309
15,115,560.081825475208,1,0,542132.132712013,542133.179757322,5,1,1,28,0,0,0,0,0,0,0,0,0,0,0,0,0,0,0,0,0,0,0,0,0,0,0,0,0,0,0,0,0,0,0,0,-21910501,0,0,0,0,0,0,0,0
15,116,599.250063416548,0,1,542134.85037664,542135.897439272,5,1,1,19,19,154222465,115323256,167807925,106814675,41900119,0,30800409,0,0,0,30911309,20100619,30510009,0,0,0,22010409,0,20202009,41500819,31610019,0,-2101140,40801819,11701619,0,41500519,0,0,31202019,40500809,21600909,0,12000719,0,30611719,11400319,0,31201009,0
15,117,901.910990476608,1,0,542137.579821457,542138.62692374,5,0,1,13,19,124423246,208546454,112924056,73643256,31710809,20701109,40900819,0,0,31110509,0,0,0,11110619,41101709,31410309,-3120071,30800919,20300309,40401909,0,30300609,20810519,41001609,0,0,40700119,0,10411809,0,0,10410119,31711919,0,0,21210409,0,0,0,10310809
15,118,752.359046600759,0,0,542140.556328444,542141.603389922,5,0,0,14,9,30510709,34253358,42612038,135303856,30510709,0,0,0,0,0,0,0,0,0,0,0,0,-2130020,0,10411419,0,21711919,21300019,0,0,0,0,0,21312019,0,0,21500909,0,0,0,0,40500609,31300619,42001719,0
15,119,730.988708790392,1,0,542143.544599454,542144.591667861,5,1,1,32,19,104934885,135416155,62533747,110436885,11200719,0,0,0,10511019,0,41510209,10201819,31511119,41000709,0,0,41810909,10400809,0,21401919,0,20801809,0,41011109,0,0,0,10612019,0,0,10910619,11211909,11512019,30900809,31901019,-3201001,11100119,0,10610009,0
15,120,867.353430017829,0,0,542146.462276707,542147.509345114,5,1,0,5,9,115763547,42112728,83932747,21511219,0,30510909,41901619,41301009,-2050010,0,0,0,0,21510819,0,0,20601909,0,0,0,0,0,0,0,21210519,0,31911819,30810409,0,0,0,0,0,21511219,0,0,0,0,0,0
15,121,850.549884140491,0,0,542149.47408192,542150.521145707,5,1,0,11,3,21701919,33102049,31601819,0,0,0,0,0,0,21701919,0,0,0,0,-2091130,0,0,0,0,0,0,31010919,0,0,0,0,0,31601819,0,0,0,0,0,0,0,0,0,0,0,0
15,122,668.749375501648,1,0,542152.532946686,542153.580015862,5,0,1,30,19,166344883,147056194,53332547,93993467,20100319,21701509,40810109,0,0,20510909,30500119,12010309,20711609,0,21800809,10910219,11110219,0,20512009,40910919,0,41812019,0,0,0,11511419,10410009,0,0,0,31411119,0,0,-1181030,0,21701219,30810009,0,0,40301209
15,123,523.387731518596,0,0,542155.42709474,542156.474158142,5,1,0,21,31,216756803,246060441,188768654,299170331,30711719,30010009,41711519,32001509,0,40111819,0,31610019,10600209,40210819,21111819,21400119,20211519,30800909,41101909,20411219,20211909,30600219,41401009,40711619,-3041160,11211819,0,0,11800209,40601019,40001819,22001619,31000419,11101109,40511709,40811919,40511419,40810509,31211409,41210219
15,124,539.697757572867,0,0,542158.097718292,542159.144793628,5,1,0,15,3,10211309,23671619,22012019,0,0,0,0,0,0,0,0,0,10211309,0,0,21601509,0,0,-2070110,0,0,0,0,22012019,0,0,0,0,0,0,0,0,0,0,0,0,0,0,0,0
15,125,708.540865220129,0,0,542160.885990148,542161.933050856,5,0,0,23,19,207426693,116645585,106674737,81813747,32000709,0,41610409,40902019,11400519,30100519,0,20501909,30910609,0,21612019,41711719,22010709,0,20310519,0,0,11000619,0,30301409,0,0,-3150181,21101819,30210719,0,21910609,0,40311409,0,11301219,0,0,30201119,0,0
15,126,805.240748915821,1,0,542163.73308173,542164.780152446,5,0,1,36,31,252068812,160079241,290548891,150715215,0,31911209,20911719,42011719,32010109,41400009,41911519,31110919,10801609,20411319,21701319,30201409,11310019,10211409,32011819,11710819,11110909,11410219,22001909,31400409,41800209,11610309,31200109,40711619,40811609,40601209,30411509,31000819,0,0,21511019,41200609,0,41810709,12001009,-3191050
15,127,779.2959199287,1,0,542166.638997271,542167.686063368,5,0,1,12,9,53931757,43861460,40010109,144516466,11211119,0,0,30710419,0,0,0,12010219,0,0,0,-2061141,0,0,41800319,0,0,0,0,0,0,0,0,0,0,40010109,0,41401019,0,41301709,0,31611719,0,0,0,30202019
15,128,508.003536728211,0,0,542169.674334377,542170.721390081,5,1,0,22,9,52612428,31022628,14661239,122514456,0,0,0,0,0,21301519,0,0,31310909,0,10112009,0,0,20910619,0,0,0,0,0,0,0,-3051030,11610209,0,0,0,0,0,0,21210909,30400609,40001319,30901619,0,0,0
15,129,521.513741696253,0,0,542172.34500451,542173.392033266,5,0,0,35,0,0,0,0,0,0,0,0,0,0,0,0,0,0,0,0,0,0,0,0,0,0,0,0,0,0,0,0,0,0,0,0,0,0,0,0,0,0,0,-30501901,0
15,130,647.471428266726,1,0,542175.003804371,542176.050872393,5,0,1,8,3,12932719,41100609,40710019,0,0,0,0,0,0,10801709,0,-2131010,0,0,0,0,0,41100609,0,0,0,0,0,0,0,0,0,40710019,0,0,0,0,0,0,0,0,0,0,0,0
15,131,727.226100396365,0,0,542190.451056635,542191.498128121,6,0,0,7,19,45164607,184824274,83424256,144935065,10900219,0,11311409,0,10001809,11800019,-1151151,0,0,0,31902009,10701019,40610009,20000519,0,41110709,0,40500009,21110919,40700019,11301509,0,0,10311809,0,0,0,0,30601519,0,40810709,10601209,31511419,31410209,0,0
15,132,818.801383720711,1,0,542193.39228118,542194.439365756,6,1,1,5,9,115763547,42112728,83932747,21511219,0,30510909,41901619,41301009,-2050010,0,0,0,0,21510819,0,0,20601909,0,0,0,0,0,0,0,21210519,0,31911819,30810409,0,0,0,0,0,21511219,0,0,0,0,0,0
15,133,509.164578979835,0,0,542196.451131702,542197.49819626,6,0,0,14,9,71922618,23611299,104634556,63421728,0,0,40011109,0,31911509,0,0,0,0,0,0,0,0,-3201080,0,0,0,20410219,41710809,0,0,0,0,31400509,10111919,0,21411319,0,0,21911119,0,41510609,0,0,0,0
15,134,500.515661085956,0,0,542199.086462034,542200.133527361,6,1,0,28,0,0,0,0,0,0,0,0,0,0,0,0,0,0,0,0,0,0,0,0,0,0,0,0,0,0,0,0,0,0,0,0,-21910501,0,0,0,0,0,0,0,0
15,135,633.021918591112,1,0,542201.815901846,542202.862970638,6,0,1,35,3,11711619,11800319,20010709,1070200,0,0,0,0,11711619,0,0,0,0,0,11800319,0,0,0,0,0,0,0,0,0,0,20010709,0,0,0,0,0,0,0,0,0,0,0,0,-1070200,0
15,136,598.146380390972,0,0,542204.521817079,542205.568884716,6,0,0,8,9,55302538,83322647,0,105124146,0,0,40900609,0,0,0,0,-3191020,11210909,0,21411009,40010119,0,21901519,0,0,0,0,0,0,0,0,0,0,0,0,0,0,21201709,0,0,0,41001809,21610109,21310519,0
15,137,610.451657441445,1,0,542207.333622369,542208.380695395,6,1,1,10,9,31801318,34721479,53212828,61432357,0,0,0,10500309,0,0,0,21301009,0,-3110041,0,0,10710519,0,0,0,0,20900919,0,0,0,0,0,0,0,11810909,41401919,0,0,0,0,0,10310019,20011119,0,31111219
15,138,884.214720106684,1,0,542210.180713566,542211.227780047,6,0,1,12,3,30210119,2191181,10911209,10000619,0,30210119,0,0,0,0,0,0,0,0,0,-2191181,0,0,0,0,0,0,0,10911209,0,0,0,0,0,0,0,0,0,0,0,0,0,10000619,0,0
15,139,624.284844612703,0,0,542213.239571017,542214.286640193,6,0,0,17,19,103011627,95084767,165524074,168355504,31810509,0,0,40600109,0,0,30601009,0,0,20102019,20000009,0,11310319,0,0,0,-3161201,40511219,40110719,0,30500909,31800109,0,20311609,21300619,21500109,0,21301419,0,0,40611519,11410619,31611519,0,41410419,22010009
15,140,852.368824533187,0,0,542215.992581604,542217.03961036,6,1,0,6,31,167676964,177365483,271348602,260192521,21701719,10801119,31401119,30110319,0,-2040051,41110419,10001709,20510509,20500609,41710509,20410619,0,11011809,0,41411419,31910209,10410309,0,21910609,40911309,41910019,30312009,31902019,41100809,21300609,42001219,20812009,40711319,21411509,21801819,20611009,31211219,31411719,32010009,40211909
15,141,1086.21105074417,1,0,542219.086708409,542220.13377797,6,1,1,22,9,52612428,31022628,14661239,122514456,0,0,0,0,0,21301519,0,0,31310909,0,10112009,0,0,20910619,0,0,0,0,0,0,0,-3051030,11610209,0,0,0,0,0,0,21210909,30400609,40001319,30901619,0,0,0
15,142,581.476800725795,0,0,542222.310274487,542223.357340584,6,0,0,32,0,0,0,0,0,0,0,0,0,0,0,0,0,0,0,0,0,0,0,0,0,0,0,0,0,0,0,0,0,0,0,0,0,0,0,0,-41001091,0,0,0,0
15,143,654.694835771807,0,0,542224.96920485,542226.016213203,6,0,0,23,3,0,10211419,32471299,30800119,0,0,0,0,0,0,0,0,0,0,0,0,0,0,0,10211419,0,0,0,0,0,0,-2170180,0,0,0,30301119,30800119,0,0,0,0,0,0,0,0
15,144,1139.97662335169,1,0,542227.780926603,542228.828033121,6,1,1,32,19,104934885,135416155,62533747,110436885,11200719,0,0,0,10511019,0,41510209,10201819,31511119,41000709,0,0,41810909,10400809,0,21401919,0,20801809,0,41011109,0,0,0,10612019,0,0,10910619,11211909,11512019,30900809,31901019,-3201001,11100119,0,10610009,0
15,145,695.951871806756,0,0,542231.039796296,542232.086851229,6,0,0,18,31,145456113,202538023,197050712,230046901,0,31000419,20510419,10000409,21911019,0,30511509,21011119,10511219,21401509,20911519,41210219,22001819,41011509,0,11910719,41010709,-3080020,20901209,10911609,30301819,30401319,21911919,0,11311619,30500209,40811009,10010509,41901119,40611409,20510309,31400109,12000509,30401219,11900509,31311209
15,146,786.148225073703,1,0,542233.851581183,542234.898654209,6,0,1,30,9,42913518,11611109,31910528,85063697,0,0,11211609,0,31701909,0,0,0,0,11611109,0,0,0,0,0,0,0,0,0,11100509,0,0,20810019,0,0,0,0,11210019,21711509,-1030151,0,40611309,0,0,0,10500709
15,147,1281.08906804118,1,0,542236.792808423,542237.839871825,6,1,1,21,31,216756803,246060441,188768654,299170331,30711719,30010009,41711519,32001509,0,40111819,0,31610019,10600209,40210819,21111819,21400119,20211519,30800909,41101909,20411219,20211909,30600219,41401009,40711619,-3041160,11211819,0,0,11800209,40601019,40001819,22001619,31000419,11101109,40511709,40811919,40511419,40810509,31211409,41210219
15,148,590.892560896464,1,0,542240.239907858,542241.28697357,6,1,1,15,3,10211309,23671619,22012019,0,0,0,0,0,0,0,0,0,10211309,0,0,21601509,0,0,-2070110,0,0,0,0,22012019,0,0,0,0,0,0,0,0,0,0,0,0,0,0,0,0
15,149,711.394965765066,1,0,542242.969354984,542244.016423006,6,1,1,9,19,128887005,134926065,144226794,52113157,31501709,0,30001119,41211019,10310209,11711909,0,0,-4151040,31101219,0,41511109,21111209,0,0,0,10001119,31201409,30000509,0,0,21501519,30011819,0,21201319,10610109,30901519,31410819,0,10600419,0,10101919,0,0,0,0
15,150,834.016965702176,1,0,542245.910564131,542246.957625994,6,1,1,29,31,167158493,258340051,197956922,237847133,20110709,22011709,42000619,10512019,0,20401419,41110309,11011709,0,30401319,41110019,12001419,10200819,41711119,20801719,40301909,31801509,30010219,20410109,11811009,10111119,20401809,30400119,42000019,32011019,0,30811719,10201409,-1000160,40910409,31700909,41011119,41500609,0,41111709,30410809
15,151,980.222443933599,0,0,542248.816480057,542249.863544615,6,0,0,36,19,83524746,153133875,145646754,104174406,30101409,0,10510609,0,0,0,31601609,0,11311119,30710419,0,0,0,20001919,0,30510009,40200809,31710719,0,22012009,11811609,20010409,30700609,0,30110409,31001709,0,41901319,0,20100609,30301309,0,0,0,10710019,-1161150
15,152,667.183354264125,0,0,542251.969462004,542253.01653041,6,0,0,13,31,197377222,182206954,226549102,175179212,11710709,0,41201419,30211519,11711719,31110109,40510119,20411509,10510119,10301309,31701919,11300019,-4170151,20510709,30910719,41900709,0,31411419,31811119,20501009,21011109,20001809,20400909,40710009,30211719,0,41901419,20810219,41911609,31010119,10301319,30311309,10611909,0,20010909,10211819
15,153,733.638010104187,0,0,542254.698906436,542255.745976767,6,1,0,4,3,23901730,0,0,51722228,0,0,0,-3091021,20810709,0,0,0,0,0,0,0,0,0,0,0,0,0,0,0,0,0,0,0,0,0,0,0,0,0,0,0,11211819,0,40510409,0
15,154,1103.35836675949,1,0,542257.68717783,542258.734243927,6,1,1,19,19,154222465,115323256,167807925,106814675,41900119,0,30800409,0,0,0,30911309,20100619,30510009,0,0,0,22010409,0,20202009,41500819,31610019,0,-2101140,40801819,11701619,0,41500519,0,0,31202019,40500809,21600909,0,12000719,0,30611719,11400319,0,31201009,0
15,155,646.048612543382,1,0,542260.875457232,542261.922518324,6,1,1,11,3,21701919,33102049,31601819,0,0,0,0,0,0,21701919,0,0,0,0,-2091130,0,0,0,0,0,0,31010919,0,0,0,0,0,31601819,0,0,0,0,0,0,0,0,0,0,0,0
15,156,534.440730698407,0,0,542263.604898969,542264.6519693,6,0,0,25,31,238288431,218458632,155828385,217347102,11312009,10210719,31000309,41710009,41311819,21911419,20011219,20110119,40710809,41710619,21101119,0,31001419,30112009,40511519,11310709,31400719,11310519,31211109,30110919,10211909,0,10012009,40400819,-3081111,30800509,0,11200009,0,10300319,30011409,20400009,41411619,20601019,41911709,41511009
15,157,617.734348867089,0,0,542296.052352183,542297.099429828,7,0,0,7,9,74603997,81814237,83020128,10800419,30210909,0,0,30101309,0,0,-4081170,10210609,0,21400519,20201809,0,0,0,0,40211909,0,0,41910109,0,0,0,0,0,41110019,0,0,0,0,0,0,0,10800419,0,0,0
15,158,502.996349474415,1,0,542298.911212406,542299.958331242,7,1,1,15,3,10211309,23671619,22012019,0,0,0,0,0,0,0,0,0,10211309,0,0,21601509,0,0,-2070110,0,0,0,0,22012019,0,0,0,0,0,0,0,0,0,0,0,0,0,0,0,0
15,159,591.553923790343,1,0,542301.546541582,542302.593610374,7,1,1,11,3,21701919,33102049,31601819,0,0,0,0,0,0,21701919,0,0,0,0,-2091130,0,0,0,0,0,0,31010919,0,0,0,0,0,31601819,0,0,0,0,0,0,0,0,0,0,0,0
15,160,588.432275457308,0,0,542304.299515598,542305.346583235,7,0,0,17,31,147345494,197622344,282059241,239848431,11600009,0,31711719,40400919,31812019,0,0,11710809,20110019,31901719,30711109,41411409,10111219,0,30501809,41611909,-1061151,10312019,31901419,30110219,31701719,41611409,41411919,30001309,41500719,21810219,12010309,40710409,41101219,21901019,31600709,21000309,21810809,10410619,20411519,30901819
15,161,563.556098029949,1,0,542307.099554171,542308.146621038,7,0,1,12,9,73102947,42771310,102902637,52511638,0,0,11701009,20500219,0,0,0,40901719,0,40700119,0,-2071191,0,0,0,0,0,0,21500309,0,40701509,0,0,40700819,0,0,0,11811619,0,0,0,0,40700019,0,0,0
15,162,415.36306636408,0,0,542309.840756851,542310.887832957,7,1,0,28,0,0,0,0,0,0,0,0,0,0,0,0,0,0,0,0,0,0,0,0,0,0,0,0,0,0,0,0,0,0,0,0,-21910501,0,0,0,0,0,0,0,0
15,163,452.475997735746,0,1,542312.31138048,542313.358449656,7,1,1,21,31,216756803,246060441,188768654,299170331,30711719,30010009,41711519,32001509,0,40111819,0,31610019,10600209,40210819,21111819,21400119,20211519,30800909,41101909,20411219,20211909,30600219,41401009,40711619,-3041160,11211819,0,0,11800209,40601019,40001819,22001619,31000419,11101109,40511709,40811919,40511419,40810509,31211409,41210219
15,164,775.683446321636,0,0,542314.864356112,542315.911420285,7,1,0,4,3,23901730,0,0,51722228,0,0,0,-3091021,20810709,0,0,0,0,0,0,0,0,0,0,0,0,0,0,0,0,0,0,0,0,0,0,0,0,0,0,0,11211819,0,40510409,0
15,165,695.595782948658,1,0,542317.711447694,542318.758516101,7,0,1,23,3,0,71704147,2001151,0,0,0,0,0,0,0,0,0,0,0,10400919,0,40802019,0,0,20501209,0,0,0,0,0,0,-2001151,0,0,0,0,0,0,0,0,0,0,0,0,0
15,166,1025.94733703882,0,0,542320.535009306,542321.582116209,7,1,0,6,31,167676964,177365483,271348602,260192521,21701719,10801119,31401119,30110319,0,-2040051,41110419,10001709,20510509,20500609,41710509,20410619,0,11011809,0,41411419,31910209,10410309,0,21910609,40911309,41910019,30312009,31902019,41100809,21300609,42001219,20812009,40711319,21411509,21801819,20611009,31211219,31411719,32010009,40211909
15,167,643.279588315636,1,0,542323.805637247,542324.852706039,7,0,1,36,31,239428492,207436642,259328602,200157984,40711109,0,21601109,21400109,41111909,31602019,21700809,40701209,20600219,22001219,11501119,20510219,10600319,41400119,0,40010909,40611319,20801419,20800109,31511809,40110819,40000709,31601709,0,41801019,11601209,41901219,40211619,30910019,0,41310809,10902019,10501619,31710519,31500209,-3111171
15,168,934.082947904244,1,0,542326.605672355,542327.652743072,7,0,1,8,19,77726076,125325275,103423046,154845794,0,0,11801719,21411019,30001819,10410409,0,-4101110,0,10801509,0,21201019,0,20711309,30611119,0,42000319,0,0,0,0,20410019,21901009,40301709,20810309,0,0,40800619,40410209,11312019,0,21711319,20010919,0,20600709,0
15,169,509.422117727809,0,0,542329.723358771,542330.770424098,7,1,0,9,19,128887005,134926065,144226794,52113157,31501709,0,30001119,41211019,10310209,11711909,0,0,-4151040,31101219,0,41511109,21111209,0,0,0,10001119,31201409,30000509,0,0,21501519,30011819,0,21201319,10610109,30901519,31410819,0,10600419,0,10101919,0,0,0,0
15,170,618.254046188667,1,0,542332.311629164,542333.358690257,7,1,1,5,9,115763547,42112728,83932747,21511219,0,30510909,41901619,41301009,-2050010,0,0,0,0,21510819,0,0,20601909,0,0,0,0,0,0,0,21210519,0,31911819,30810409,0,0,0,0,0,21511219,0,0,0,0,0,0
15,171,747.888109995984,1,0,542335.146967503,542336.194012812,7,0,1,35,3,0,21011909,30011109,43702699,0,0,0,0,0,0,0,0,0,21011909,0,0,0,0,0,0,0,0,0,0,0,0,0,0,0,0,30011109,0,0,0,0,0,0,0,-2191090,41511609
15,172,1075.57688909583,0,0,542337.994071403,542339.041112092,7,0,0,30,3,0,103413447,0,4001170,0,0,0,0,0,0,0,0,0,31701119,0,0,0,30201219,0,0,0,41511109,0,0,0,0,0,0,0,0,0,0,0,-4001170,0,0,0,0,0,0
15,173,780.261017032899,1,0,542341.22938187,542342.276450662,7,1,1,29,31,167158493,258340051,197956922,237847133,20110709,22011709,42000619,10512019,0,20401419,41110309,11011709,0,30401319,41110019,12001419,10200819,41711119,20801719,40301909,31801509,30010219,20410109,11811009,10111119,20401809,30400119,42000019,32011019,0,30811719,10201409,-1000160,40910409,31700909,41011119,41500609,0,41111709,30410809
15,174,696.296796784736,0,0,542344.076479226,542345.123542628,7,1,0,10,9,31801318,34721479,53212828,61432357,0,0,0,10500309,0,0,0,21301009,0,-3110041,0,0,10710519,0,0,0,0,20900919,0,0,0,0,0,0,0,11810909,41401919,0,0,0,0,0,10310019,20011119,0,31111219
15,175,697.648779838346,0,0,542346.958863258,542348.005974011,7,0,0,18,19,126427385,75122938,93336056,117437593,21810119,0,41501809,21001719,0,0,20711719,0,21402019,0,0,22010909,20111419,0,0,30810419,0,-2190191,0,0,30601809,21711919,20611209,0,0,0,20411119,42011219,21001119,10600009,11101819,11610409,0,0,10502009,10611009
15,176,888.898925040849,0,0,542349.911847206,542350.958907144,7,0,0,25,31,167657682,207440641,159357385,247247412,21711819,41110009,20910709,0,10702009,30400909,10911109,11801009,20110109,10210419,31911919,30001819,40810519,11501409,41300319,11101709,10601809,20000719,21911319,31010319,0,21601319,20910119,0,-3101171,20711719,40111419,21110009,21401119,30401019,0,30911109,31900109,40110809,30711619,40701619
15,177,853.593000443652,1,0,542352.911886087,542353.95894333,7,1,1,19,19,154222465,115323256,167807925,106814675,41900119,0,30800409,0,0,0,30911309,20100619,30510009,0,0,0,22010409,0,20202009,41500819,31610019,0,-2101140,40801819,11701619,0,41500519,0,0,31202019,40500809,21600909,0,12000719,0,30611719,11400319,0,31201009,0
15,178,601.995989913121,0,0,542355.98256261,542357.029570578,7,1,0,32,19,104934885,135416155,62533747,110436885,11200719,0,0,0,10511019,0,41510209,10201819,31511119,41000709,0,0,41810909,10400809,0,21401919,0,20801809,0,41011109,0,0,0,10612019,0,0,10910619,11211909,11512019,30900809,31901019,-3201001,11100119,0,10610009,0
15,179,584.299334557727,0,0,542358.653124953,542359.70019413,7,1,0,22,9,52612428,31022628,14661239,122514456,0,0,0,0,0,21301519,0,0,31310909,0,10112009,0,0,20910619,0,0,0,0,0,0,0,-3051030,11610209,0,0,0,0,0,0,21210909,30400609,40001319,30901619,0,0,0
15,180,690.986260422505,0,0,542361.441389495,542362.488455592,7,0,0,14,9,31210419,95101047,40801019,72824336,0,0,0,31210419,0,0,0,0,0,0,31800019,41100119,0,-1090090,0,0,21110819,0,0,0,0,0,0,0,0,40801019,0,10700109,0,20111809,0,31111709,0,0,0,10900709
15,181,885.641385335475,1,0,542364.229684449,542365.276789428,7,0,1,13,19,135023765,138116005,227934764,50922347,0,30210919,40810509,0,0,12000309,0,20801709,31200319,41111019,0,20610919,-1071130,0,31410119,0,11911409,32001409,41801609,41000709,40501109,0,0,41010009,0,31911119,31710209,0,20010419,0,20501019,0,0,0,10410909,0
15,182,1000.15803228598,1,0,542367.253236361,542368.300295144,7,0,1,36,0,0,0,0,0,0,0,0,0,0,0,0,0,0,0,0,0,0,0,0,0,0,0,0,0,0,0,0,0,0,0,0,0,0,0,0,0,0,0,0,-21201601
15,183,408.694002660923,0,0,542374.288604649,542375.335675366,8,0,0,14,3,12000119,14072320,41501309,0,0,0,0,0,0,0,12000119,0,0,0,0,0,0,-4061011,0,10011309,0,0,0,0,41501309,0,0,0,0,0,0,0,0,0,0,0,0,0,0,0
15,184,629.717798670754,1,0,542376.888717597,542377.935709781,8,1,1,6,31,167676964,177365483,271348602,260192521,21701719,10801119,31401119,30110319,0,-2040051,41110419,10001709,20510509,20500609,41710509,20410619,0,11011809,0,41411419,31910209,10410309,0,21910609,40911309,41910019,30312009,31902019,41100809,21300609,42001219,20812009,40711319,21411509,21801819,20611009,31211219,31411719,32010009,40211909
15,185,863.143881899305,1,0,542379.665145744,542380.712211841,8,1,1,32,19,104934885,135416155,62533747,110436885,11200719,0,0,0,10511019,0,41510209,10201819,31511119,41000709,0,0,41810909,10400809,0,21401919,0,20801809,0,41011109,0,0,0,10612019,0,0,10910619,11211909,11512019,30900809,31901019,-3201001,11100119,0,10610009,0
15,186,404.363576904871,0,0,542382.724010125,542383.771078917,8,1,0,22,9,52612428,31022628,14661239,122514456,0,0,0,0,0,21301519,0,0,31310909,0,10112009,0,0,20910619,0,0,0,0,0,0,0,-3051030,11610209,0,0,0,0,0,0,21210909,30400609,40001319,30901619,0,0,0
15,187,609.100444358774,0,0,542385.218157563,542386.26522366,8,1,0,10,9,31801318,34721479,53212828,61432357,0,0,0,10500309,0,0,0,21301009,0,-3110041,0,0,10710519,0,0,0,0,20900919,0,0,0,0,0,0,0,11810909,41401919,0,0,0,0,0,10310019,20011119,0,31111219
15,188,466.971317771822,0,0,542387.97112696,542389.018194212,8,0,0,17,9,91922137,1040081,50613028,144824256,0,0,0,30000419,30910909,0,31010809,0,0,0,0,0,0,0,0,0,-1040081,0,0,0,30011109,20601919,0,0,0,0,0,0,40710009,0,0,21701619,0,0,41201609,41211019
15,189,538.985964842141,0,0,542390.618220543,542391.665280481,8,0,0,23,31,186446602,189960722,179798162,176148323,21101009,20500409,41510719,20700219,10010909,21411419,40311809,10900109,0,11411719,21310919,41911019,21611009,40712019,10202009,0,31001719,11800309,30800919,10801219,31510209,21600319,-4170060,10501909,10111009,30101709,30200809,12000419,0,0,30111619,40001219,31710019,11111719,11211719,40001609
15,190,533.858284703456,1,0,542393.359422068,542394.406510877,8,0,1,30,3,0,30110209,53110728,2191020,0,0,0,0,0,0,0,0,0,0,0,0,0,0,30110209,0,0,0,0,0,11500519,0,0,0,41610209,0,0,0,0,-2191020,0,0,0,0,0,0
15,191,599.644648376852,0,0,542396.053582903,542397.100650925,8,1,0,29,31,167158493,258340051,197956922,237847133,20110709,22011709,42000619,10512019,0,20401419,41110309,11011709,0,30401319,41110019,12001419,10200819,41711119,20801719,40301909,31801509,30010219,20410109,11811009,10111119,20401809,30400119,42000019,32011019,0,30811719,10201409,-1000160,40910409,31700909,41011119,41500609,0,41111709,30410809
15,192,568.56328540016,1,0,542398.747732189,542399.794794437,8,0,1,4,0,0,0,0,0,0,0,0,-30901091,0,0,0,0,0,0,0,0,0,0,0,0,0,0,0,0,0,0,0,0,0,0,0,0,0,0,0,0,0,0,0,0
15,193,676.062093814835,0,0,542401.383055976,542402.430123228,8,1,0,5,9,115763547,42112728,83932747,21511219,0,30510909,41901619,41301009,-2050010,0,0,0,0,21510819,0,0,20601909,0,0,0,0,0,0,0,21210519,0,31911819,30810409,0,0,0,0,0,21511219,0,0,0,0,0,0
15,194,571.83660834562,1,0,542404.183090315,542405.230158336,8,0,1,12,9,10300709,75245048,21612028,64821837,0,0,0,0,0,0,0,0,10300709,0,21701609,-1031101,0,40500719,12011619,0,0,0,0,0,0,10201209,0,0,0,11410819,0,0,21311009,0,0,0,0,31810719,11700109,0
15,195,892.004020162858,1,0,542406.830244337,542407.87724961,8,1,1,21,31,216756803,246060441,188768654,299170331,30711719,30010009,41711519,32001509,0,40111819,0,31610019,10600209,40210819,21111819,21400119,20211519,30800909,41101909,20411219,20211909,30600219,41401009,40711619,-3041160,11211819,0,0,11800209,40601019,40001819,22001619,31000419,11101109,40511709,40811919,40511419,40810509,31211409,41210219
15,196,783.237920259126,1,0,542409.947858764,542410.994932945,8,1,1,28,0,0,0,0,0,0,0,0,0,0,0,0,0,0,0,0,0,0,0,0,0,0,0,0,0,0,0,0,0,0,0,0,-21910501,0,0,0,0,0,0,0,0
15,197,571.323455427773,0,0,542412.912607889,542413.959674371,8,1,0,9,19,128887005,134926065,144226794,52113157,31501709,0,30001119,41211019,10310209,11711909,0,0,-4151040,31101219,0,41511109,21111209,0,0,0,10001119,31201409,30000509,0,0,21501519,30011819,0,21201319,10610109,30901519,31410819,0,10600419,0,10101919,0,0,0,0
15,198,922.612651134841,0,0,542415.724413564,542416.771480816,8,0,0,25,19,71221647,256026603,45210548,205025583,0,0,0,20710119,0,0,10300009,40211519,0,0,31100019,41211809,21800919,0,40311309,40501219,40100609,41000719,0,0,0,0,0,30700119,-4000110,10510319,0,31800719,20700509,30500419,40201809,0,10610009,30901809,40310309,0
15,199,697.162959026173,1,0,542418.853858227,542419.900924324,8,0,1,8,19,33520599,115425004,248567712,84023247,0,0,0,0,20510209,0,11810219,-1200171,0,0,0,21500319,10210119,21000219,0,21911619,30601819,10200909,0,30610819,40010519,21600709,41711509,40401409,41311609,21910219,11010919,0,11411619,0,40710409,0,31901219,0,0,0
15,200,599.949152558111,0,0,542421.806830626,542422.853899418,8,0,0,7,31,192248873,167566314,158310721,239658301,10501109,30701309,20200909,31900619,41801309,21010609,-4131090,0,32001919,31611119,41910519,20111219,11111519,0,40910919,0,0,21911019,10401209,10101819,31801409,30401709,20301719,11001809,10800419,11500009,22000619,30910609,11500009,21310109,20410419,11101509,30611309,41911619,40101909,31800809
15,201,636.200926150195,1,0,542424.618632066,542425.665694699,8,0,1,36,9,52911728,41000319,144625365,32161280,0,0,0,11311009,0,41600719,0,0,0,41000319,0,0,0,0,0,0,0,0,0,0,40210809,0,32001709,10200419,41001619,0,21210809,0,0,0,0,0,0,30100109,0,-2061171
15,202,628.603336634114,0,0,542427.336312476,542428.383383193,8,0,0,35,19,113524665,62202628,165835503,119374016,10000719,21010509,0,21010309,0,20801409,0,40701719,0,40601009,0,0,21601619,0,0,0,0,0,21000009,10210909,30510319,0,21411019,0,11001609,31400219,40301419,20010319,11601109,42000509,21700309,0,21901709,0,-2160061,0
15,203,629.96956310235,0,0,542430.159882173,542431.206938646,8,1,0,15,3,10211309,23671619,22012019,0,0,0,0,0,0,0,0,0,10211309,0,0,21601509,0,0,-2070110,0,0,0,0,22012019,0,0,0,0,0,0,0,0,0,0,0,0,0,0,0,0
15,204,549.940798780881,0,0,542432.959901498,542434.006999547,8,0,0,13,31,237352421,202048203,208224612,179748293,22001319,30701009,21110019,20412009,30211909,20502019,31701309,30710819,30002009,41410409,20101409,11310319,-3200010,21611309,32001919,0,40511619,31901209,40210719,30600109,31900309,31300219,11400109,0,21411019,30300809,11101319,31800309,11311409,30701109,11901619,0,31611919,41411809,0,21010119
15,205,519.188962411135,1,0,542435.724655704,542436.771714102,8,0,1,18,3,52702428,3031180,0,20410919,21001609,0,31700819,0,0,0,0,0,0,0,0,0,0,0,0,0,0,-3031180,0,0,0,0,0,0,0,0,0,0,0,0,0,0,0,0,0,20410919
15,206,688.317326130345,1,0,542438.430570552,542439.477649353,8,1,1,11,3,21701919,33102049,31601819,0,0,0,0,0,0,21701919,0,0,0,0,-2091130,0,0,0,0,0,0,31010919,0,0,0,0,0,31601819,0,0,0,0,0,0,0,0,0,0,0,0
15,207,568.155996617861,1,0,542441.336488403,542442.383551036,8,1,1,4,3,23901730,0,0,51722228,0,0,0,-3091021,20810709,0,0,0,0,0,0,0,0,0,0,0,0,0,0,0,0,0,0,0,0,0,0,0,0,0,0,0,11211819,0,40510409,0
15,208,677.134980098344,1,0,542443.983582756,542445.030642694,8,1,1,19,19,154222465,115323256,167807925,106814675,41900119,0,30800409,0,0,0,30911309,20100619,30510009,0,0,0,22010409,0,20202009,41500819,31610019,0,-2101140,40801819,11701619,0,41500519,0,0,31202019,40500809,21600909,0,12000719,0,30611719,11400319,0,31201009,0
15,209,562.443945906125,0,0,542471.38390751,542472.430978996,9,1,0,11,3,21701919,33102049,31601819,0,0,0,0,0,0,21701919,0,0,0,0,-2091130,0,0,0,0,0,0,31010919,0,0,0,0,0,31601819,0,0,0,0,0,0,0,0,0,0,0,0
15,210,646.444737445563,0,0,542474.07806565,542475.125126743,9,0,0,18,31,176936123,190021132,269166002,190626702,31700219,20510219,10011809,11611419,40401119,31500119,0,0,31201219,30111409,10810219,11311919,11602009,10000309,30212019,41012019,41910219,-3051010,30510909,41011019,30610109,42010809,21710519,41001209,41911109,20400319,0,22000019,0,11210609,31700519,31800509,41801209,10201609,21211909,20700319
15,211,710.009106318466,1,0,542476.819270254,542477.866341741,9,1,1,19,19,154222465,115323256,167807925,106814675,41900119,0,30800409,0,0,0,30911309,20100619,30510009,0,0,0,22010409,0,20202009,41500819,31610019,0,-2101140,40801819,11701619,0,41500519,0,0,31202019,40500809,21600909,0,12000719,0,30611719,11400319,0,31201009,0
15,212,798.741452861577,0,0,542479.70167392,542480.748729623,9,1,0,5,9,115763547,42112728,83932747,21511219,0,30510909,41901619,41301009,-2050010,0,0,0,0,21510819,0,0,20601909,0,0,0,0,0,0,0,21210519,0,31911819,30810409,0,0,0,0,0,21511219,0,0,0,0,0,0
15,213,510.777950286865,0,0,542482.666408801,542483.713507235,9,1,0,10,9,31801318,34721479,53212828,61432357,0,0,0,10500309,0,0,0,21301009,0,-3110041,0,0,10710519,0,0,0,0,20900919,0,0,0,0,0,0,0,11810909,41401919,0,0,0,0,0,10310019,20011119,0,31111219
15,214,611.146511975676,1,0,542485.384088826,542486.431154923,9,0,1,35,31,250357511,164936593,208947102,139035763,31610409,30400319,41810209,40711309,11510909,41101319,20200909,11410509,21601619,30000109,0,41911209,0,20001619,31410809,20110909,10201619,11300319,32010119,0,31101119,41702009,31511609,10010209,20211119,31700409,10700509,21500409,20010719,10711209,20610219,10500009,41712009,0,-3180180,10811009
15,215,852.868119021878,1,0,542488.113589463,542489.160594351,9,0,1,17,0,0,0,0,0,0,0,0,0,0,0,0,0,0,0,0,0,0,0,0,0,-11611801,0,0,0,0,0,0,0,0,0,0,0,0,0,0,0,0,0,0,0
15,216,438.09847580269,0,0,542491.137095179,542492.184156271,9,1,0,4,3,23901730,0,0,51722228,0,0,0,-3091021,20810709,0,0,0,0,0,0,0,0,0,0,0,0,0,0,0,0,0,0,0,0,0,0,0,0,0,0,0,11211819,0,40510409,0
15,217,522.64937653672,0,0,542493.772429745,542494.819523944,9,0,0,8,9,14211029,63521747,94702027,61723118,0,0,0,0,11210019,0,0,-3001010,0,0,0,31000019,0,10911519,0,21610209,0,0,40901709,41800209,0,0,12000109,0,0,0,0,40611909,0,21111209,0,0,0,0,0,0
15,218,589.60140182171,0,0,542496.372489568,542497.419524483,9,1,0,29,31,167158493,258340051,197956922,237847133,20110709,22011709,42000619,10512019,0,20401419,41110309,11011709,0,30401319,41110019,12001419,10200819,41711119,20801719,40301909,31801509,30010219,20410109,11811009,10111119,20401809,30400119,42000019,32011019,0,30811719,10201409,-1000160,40910409,31700909,41011119,41500609,0,41111709,30410809
15,219,717.503141262569,1,0,542499.219544578,542500.266620299,9,0,1,13,19,148244884,87694327,83533037,196045813,31501919,0,40900109,41810419,12010009,10411109,0,0,11611319,0,0,12001819,-4171170,40010119,31511219,0,0,0,40811319,11610209,0,0,0,31111509,0,0,0,10001309,11900019,31601119,40910119,40511619,0,30510609,0,30611019
15,220,530.168049037457,1,0,542502.007815664,542503.054886766,9,0,1,36,31,209357102,188319412,168528312,210723313,21910809,0,41010619,10101609,21700209,20710109,31001719,31311509,31610519,0,10201609,31700119,10601609,31700809,12001619,31911119,20002019,40200509,0,10600309,20510609,21101519,21200709,31010519,40800919,11602009,11701719,41610209,40200709,21310919,41900819,0,20300319,31100009,11210209,-3090120
15,221,565.390052157454,0,0,542504.760791605,542505.807856547,9,1,0,22,9,52612428,31022628,14661239,122514456,0,0,0,0,0,21301519,0,0,31310909,0,10112009,0,0,20910619,0,0,0,0,0,0,0,-3051030,11610209,0,0,0,0,0,0,21210909,30400609,40001319,30901619,0,0,0
15,222,613.941801711917,1,0,542507.490273763,542508.537096861,9,1,1,28,0,0,0,0,0,0,0,0,0,0,0,0,0,0,0,0,0,0,0,0,0,0,0,0,0,0,0,0,0,0,0,0,-21910501,0,0,0,0,0,0,0,0
15,223,691.212617442943,0,0,542510.266738867,542511.313807274,9,0,0,14,19,116613975,41440988,137924394,95045984,0,0,31700009,0,31501009,11610719,20201819,21600419,0,0,0,0,10110719,-1020060,0,0,30310209,0,0,41600819,11200119,20900219,21201619,0,0,31610309,11411309,21111819,0,11910709,30900009,0,10002019,10111109,11010319,0
15,224,616.11019866541,1,0,542513.055014188,542514.102071816,9,1,1,21,31,216756803,246060441,188768654,299170331,30711719,30010009,41711519,32001509,0,40111819,0,31610019,10600209,40210819,21111819,21400119,20211519,30800909,41101909,20411219,20211909,30600219,41401009,40711619,-3041160,11211819,0,0,11800209,40601019,40001819,22001619,31000419,11101109,40511709,40811919,40511419,40810509,31211409,41210219
15,225,577.115962980315,1,0,542515.819745296,542516.866819863,9,0,1,30,3,10411619,31611319,0,23101520,0,0,0,0,0,0,0,0,10411619,0,31611319,0,0,0,0,0,0,0,0,0,0,0,0,0,0,0,0,0,0,-1201001,0,21900519,0,0,0,0
15,226,1088.86073692702,1,0,542518.56095914,542519.608019847,9,0,1,25,9,21110309,84012657,55662729,84133027,0,0,0,0,0,0,21110309,0,0,0,40700119,0,21411719,0,21900819,0,0,0,0,0,0,21011309,31611409,0,-3040011,0,0,11510209,0,0,0,0,0,30911309,0,41711509
15,227,651.331431814469,0,0,542521.772761581,542522.819827293,9,1,0,32,19,104934885,135416155,62533747,110436885,11200719,0,0,0,10511019,0,41510209,10201819,31511119,41000709,0,0,41810909,10400809,0,21401919,0,20801809,0,41011109,0,0,0,10612019,0,0,10910619,11211909,11512019,30900809,31901019,-3201001,11100119,0,10610009,0
15,228,895.867488463409,1,0,542524.655211827,542525.702218255,9,0,1,7,3,3190120,81111038,0,11801619,0,0,0,0,0,0,-3190120,0,0,0,0,40500919,0,40610119,0,0,0,0,0,0,0,0,0,0,0,0,0,0,0,11801619,0,0,0,0,0,0
15,229,679.596035508439,1,0,542527.796360458,542528.843433099,9,1,1,9,19,128887005,134926065,144226794,52113157,31501709,0,30001119,41211019,10310209,11711909,0,0,-4151040,31101219,0,41511109,21111209,0,0,0,10001119,31201409,30000509,0,0,21501519,30011819,0,21201319,10610109,30901519,31410819,0,10600419,0,10101919,0,0,0,0
15,230,1427.08859220147,0,0,542530.584638088,542531.631707265,9,1,0,6,31,167676964,177365483,271348602,260192521,21701719,10801119,31401119,30110319,0,-2040051,41110419,10001709,20510509,20500609,41710509,20410619,0,11011809,0,41411419,31910209,10410309,0,21910609,40911309,41910019,30312009,31902019,41100809,21300609,42001219,20812009,40711319,21411509,21801819,20611009,31211219,31411719,32010009,40211909
15,231,669.112778618,1,0,542534.231732827,542535.278804698,9,0,1,12,19,113124866,76174957,196335883,114333556,0,0,0,30011409,0,31311219,11501919,40300319,0,0,0,-1071091,11500919,0,11800219,21601609,0,30201119,0,0,10510509,31100519,21702019,20900009,40411409,40100309,31611109,0,20710909,0,41700919,0,20210319,0,0,31711409
15,232,668.166929506697,0,0,542537.043537732,542538.090603829,9,0,0,17,3,0,1151180,70512928,31000419,0,0,0,0,0,0,0,0,0,0,0,0,0,0,0,0,-1151180,0,0,30411319,0,0,40101609,0,0,0,0,0,0,0,0,0,31000419,0,0,0
15,233,477.127742720768,1,0,542539.843568605,542540.890635472,9,0,1,23,9,33212718,101703637,76611668,41312218,0,0,0,11302009,0,21910709,0,0,0,0,0,0,20501009,0,41001909,0,0,40200719,31711019,0,0,0,-3100030,41800619,0,0,0,0,0,0,30711909,0,10600309,0,0,0
15,234,839.716312708333,0,0,542542.467120671,542543.514188693,9,1,0,15,3,10211309,23671619,22012019,0,0,0,0,0,0,0,0,0,10211309,0,0,21601509,0,0,-2070110,0,0,0,0,22012019,0,0,0,0,0,0,0,0,0,0,0,0,0,0,0,0
15,235,581.858297111467,0,0,542548.643676471,542549.690749113,10,1,0,21,31,216756803,246060441,188768654,299170331,30711719,30010009,41711519,32001509,0,40111819,0,31610019,10600209,40210819,21111819,21400119,20211519,30800909,41101909,20411219,20211909,30600219,41401009,40711619,-3041160,11211819,0,0,11800209,40601019,40001819,22001619,31000419,11101109,40511709,40811919,40511419,40810509,31211409,41210219
15,236,536.751266452484,1,0,542551.44371389,542552.490831956,10,1,1,4,3,23901730,0,0,51722228,0,0,0,-3091021,20810709,0,0,0,0,0,0,0,0,0,0,0,0,0,0,0,0,0,0,0,0,0,0,0,0,0,0,0,11211819,0,40510409,0
15,237,478.227961226366,0,0,542554.055515022,542555.102576884,10,0,0,23,31,230359851,212567032,107739474,207338122,41101619,31911519,41700219,10011309,31810019,11100419,11711219,20801919,30211609,11811819,41810719,20900019,31911609,41800509,22010319,11011419,31310619,0,10701809,10201619,10911419,40310919,-4201070,0,11401119,0,20011519,20601909,40801619,20210409,30710819,32000009,20801019,0,21601719,20610619
15,238,623.986114864238,0,0,542556.596765129,542557.64378965,10,1,0,15,3,10211309,23671619,22012019,0,0,0,0,0,0,0,0,0,10211309,0,0,21601509,0,0,-2070110,0,0,0,0,22012019,0,0,0,0,0,0,0,0,0,0,0,0,0,0,0,0
15,239,426.755985943601,0,0,542559.302630317,542560.349746074,10,0,0,14,3,11910519,35753099,0,30801919,0,0,0,0,0,0,0,0,11910519,0,0,31712009,0,-4041090,0,0,0,0,0,0,0,0,0,0,0,0,0,0,0,0,0,0,0,30801919,0,0
15,240,590.198091347702,0,0,542561.914429909,542562.961495236,10,0,0,25,19,125735504,114936455,96386827,83823456,0,30901919,10601419,0,11410019,30611319,30600419,0,11610409,41811509,10012009,0,0,10810819,0,20701509,0,31600609,0,0,11911219,40511409,0,20111819,-2151071,21701309,0,0,0,31310819,10800019,0,0,0,10601809,31110809
15,241,631.187964580022,1,0,542564.573354498,542565.620344373,10,0,1,8,9,44191770,52321738,74012647,72710747,0,0,0,0,0,40100709,0,-4091061,0,0,0,0,11310619,0,0,41011119,0,0,20900919,0,0,21100919,0,0,0,32010809,0,0,0,10500309,0,0,0,0,30700419,31510019
15,242,677.27433599066,0,0,542567.32626384,542568.373328012,10,1,0,11,3,21701919,33102049,31601819,0,0,0,0,0,0,21701919,0,0,0,0,-2091130,0,0,0,0,0,0,31010919,0,0,0,0,0,31601819,0,0,0,0,0,0,0,0,0,0,0,0
15,243,945.483181974851,1,0,542570.13806682,542571.185113284,10,1,1,9,19,128887005,134926065,144226794,52113157,31501709,0,30001119,41211019,10310209,11711909,0,0,-4151040,31101219,0,41511109,21111209,0,0,0,10001119,31201409,30000509,0,0,21501519,30011819,0,21201319,10610109,30901519,31410819,0,10600419,0,10101919,0,0,0,0
15,244,663.823030074127,0,0,542573.255784802,542574.302813173,10,1,0,32,19,104934885,135416155,62533747,110436885,11200719,0,0,0,10511019,0,41510209,10201819,31511119,41000709,0,0,41810909,10400809,0,21401919,0,20801809,0,41011109,0,0,0,10612019,0,0,10910619,11211909,11512019,30900809,31901019,-3201001,11100119,0,10610009,0
15,245,705.298339016736,1,0,542575.985189584,542577.032254141,10,0,1,18,9,42422218,55893298,30412018,82912438,0,0,0,0,31010309,0,0,0,11411909,0,21310019,0,0,0,20901109,0,11612019,-2070151,0,10411909,0,0,0,20000109,0,0,0,41610819,0,0,41301619,0,0,0,0,0
15,246,541.421612841077,1,0,542578.855819218,542579.902867607,10,1,1,10,9,31801318,34721479,53212828,61432357,0,0,0,10500309,0,0,0,21301009,0,-3110041,0,0,10710519,0,0,0,0,20900919,0,0,0,0,0,0,0,11810909,41401919,0,0,0,0,0,10310019,20011119,0,31111219
15,247,915.828484110534,0,0,542581.479377828,542582.526433146,10,0,0,7,31,219867983,261358022,164855303,177161821,31112019,0,21801109,41311119,41201119,30911719,-3020060,10510019,40000819,31012009,21200509,41200019,42000609,0,21611119,30810819,31711519,41811419,21510719,0,40800009,30410119,31010909,0,10501519,20112019,10510009,32011519,30001919,31900509,10202009,11410519,20710719,10601809,20112009,10210809
15,248,998.310604598373,1,0,542584.597062319,542585.644130725,10,1,1,5,9,115763547,42112728,83932747,21511219,0,30510909,41901619,41301009,-2050010,0,0,0,0,21510819,0,0,20601909,0,0,0,0,0,0,0,21210519,0,31911819,30810409,0,0,0,0,0,21511219,0,0,0,0,0,0
15,249,1115.74025114533,0,0,542587.726513911,542588.773573464,10,0,0,34,0,0,0,0,0,0,0,0,0,0,0,0,0,0,0,0,0,0,0,0,0,0,0,0,0,0,0,0,0,0,0,0,0,0,0,0,0,0,-40601301,0,0
15,250,772.516757482663,1,0,542591.020664891,542592.067738302,10,1,1,28,0,0,0,0,0,0,0,0,0,0,0,0,0,0,0,0,0,0,0,0,0,0,0,0,0,0,0,0,0,0,0,0,-21910501,0,0,0,0,0,0,0,0
15,251,632.267010165378,0,0,542593.914825264,542594.961889436,10,1,0,29,31,167158493,258340051,197956922,237847133,20110709,22011709,42000619,10512019,0,20401419,41110309,11011709,0,30401319,41110019,12001419,10200819,41711119,20801719,40301909,31801509,30010219,20410109,11811009,10111119,20401809,30400119,42000019,32011019,0,30811719,10201409,-1000160,40910409,31700909,41011119,41500609,0,41111709,30410809
15,252,658.486701198854,1,0,542596.620739727,542597.667800435,10,0,1,12,19,74623266,126956285,157425194,73013227,0,30901519,10310609,0,11900119,0,0,0,21511019,10601119,0,-2050191,20500519,40900719,20501409,0,21100509,11301819,31810419,0,0,0,11900509,20600819,21711219,30002009,41400219,0,0,31710909,0,0,0,0,11301909,30000409
15,253,558.527353103273,1,0,542599.432538473,542600.479601105,10,0,1,17,19,72336356,114834017,186437213,123144846,0,0,0,20011619,0,30311409,11501619,0,10511709,41110519,20810909,0,0,10510909,40300509,0,-2101171,0,41301219,30701209,11100509,31510019,20200519,0,0,40411919,11211819,0,0,0,0,41411709,40410709,0,30510609,10811819
15,254,598.987904959358,1,0,542602.103154711,542603.150226197,10,0,1,36,31,236637702,226738711,122137284,190285333,31600709,0,10110819,42010909,20100119,20610709,41101709,40500709,30602019,10200219,21112009,20900619,30810509,20100309,40500809,20901119,21301909,40911209,10811619,30000009,0,30311819,0,10200409,10311419,0,30502009,20300319,41300409,41500009,10810909,21410609,21410509,11111319,21411109,-1030141
15,255,536.328579299152,1,0,542604.926722868,542605.973784345,10,0,1,35,3,0,0,42602838,44991750,0,0,0,0,0,0,0,0,0,0,0,0,0,0,0,0,0,0,20602019,0,0,0,0,22000819,0,0,0,0,0,0,0,0,0,0,-3080031,41911719
15,256,1019.16163018905,0,0,542607.714995879,542608.762048502,10,0,0,13,3,40710409,12642250,0,10811819,0,0,40710409,0,0,0,0,0,0,0,0,0,-2131131,0,0,10511119,0,0,0,0,0,0,0,0,0,0,0,0,0,0,0,0,0,0,0,10811819
15,257,633.580112014897,0,0,542610.89149817,542611.938568501,10,1,0,6,31,167676964,177365483,271348602,260192521,21701719,10801119,31401119,30110319,0,-2040051,41110419,10001709,20510509,20500609,41710509,20410619,0,11011809,0,41411419,31910209,10410309,0,21910609,40911309,41910019,30312009,31902019,41100809,21300609,42001219,20812009,40711319,21411509,21801819,20611009,31211219,31411719,32010009,40211909
15,258,1096.44023340661,0,0,542613.597398004,542614.644487584,10,0,0,30,9,33022928,93913937,81113137,44022159,0,0,21211919,0,11811009,0,0,0,0,0,41601709,0,41311219,0,11001009,0,0,0,0,11101309,0,0,0,40011809,0,30000019,0,0,0,-3021150,0,0,41001009,0,0,0
15,259,921.816166955978,1,0,542616.856316973,542617.903341494,10,1,1,19,19,154222465,115323256,167807925,106814675,41900119,0,30800409,0,0,0,30911309,20100619,30510009,0,0,0,22010409,0,20202009,41500819,31610019,0,-2101140,40801819,11701619,0,41500519,0,0,31202019,40500809,21600909,0,12000719,0,30611719,11400319,0,31201009,0
15,260,612.293310696259,1,0,542619.844554105,542620.891618663,10,1,1,22,9,52612428,31022628,14661239,122514456,0,0,0,0,0,21301519,0,0,31310909,0,10112009,0,0,20910619,0,0,0,0,0,0,0,-3051030,11610209,0,0,0,0,0,0,21210909,30400609,40001319,30901619,0,0,0
15,261,718.025148380548,0,0,542630.444672442,542631.491740849,11,0,0,35,9,115332337,84933837,21311609,53472138,0,41810509,0,0,0,41810419,31711409,0,0,0,31611809,0,11710209,0,0,41611819,0,0,0,0,0,21311609,0,0,0,0,0,0,41500009,0,0,0,10911119,0,-1061010,0
15,262,812.606206978671,1,0,542633.268244449,542634.315305926,11,0,1,36,19,168555974,94003746,92213857,180025245,31910109,41901619,0,31611409,11211719,0,21610309,30310809,0,20100109,20701519,0,21900509,0,31301609,0,0,0,0,0,0,0,41610819,10502019,0,40101019,0,0,0,31911119,20900709,30800019,21900509,40910709,31412019,-2190161
15,263,447.267475887202,0,0,542636.256514688,542637.303581555,11,1,0,21,31,216756803,246060441,188768654,299170331,30711719,30010009,41711519,32001509,0,40111819,0,31610019,10600209,40210819,21111819,21400119,20211519,30800909,41101909,20411219,20211909,30600219,41401009,40711619,-3041160,11211819,0,0,11800209,40601019,40001819,22001619,31000419,11101109,40511709,40811919,40511419,40810509,31211409,41210219
15,264,626.520697958767,1,0,542638.868308506,542639.915373064,11,1,1,9,19,128887005,134926065,144226794,52113157,31501709,0,30001119,41211019,10310209,11711909,0,0,-4151040,31101219,0,41511109,21111209,0,0,0,10001119,31201409,30000509,0,0,21501519,30011819,0,21201319,10610109,30901519,31410819,0,10600419,0,10101919,0,0,0,0
15,265,752.796747139655,1,0,542641.63304539,542642.680118801,11,1,1,6,31,167676964,177365483,271348602,260192521,21701719,10801119,31401119,30110319,0,-2040051,41110419,10001709,20510509,20500609,41710509,20410619,0,11011809,0,41411419,31910209,10410309,0,21910609,40911309,41910019,30312009,31902019,41100809,21300609,42001219,20812009,40711319,21411509,21801819,20611009,31211219,31411719,32010009,40211909
15,266,479.659631033428,1,0,542644.480163148,542645.527214617,11,0,1,12,9,41601128,67734808,41500319,75124157,0,0,10101019,0,0,31500109,0,0,0,0,0,-4121151,31501419,0,0,10801719,0,21310519,0,0,41500319,0,0,0,0,0,0,11911819,22010319,0,0,41202019,0,0,0,0
15,267,598.632970941253,0,0,542647.033119918,542648.080180626,11,0,0,30,31,188650122,187838383,198847192,208678372,31811219,31200519,10500619,11210709,11612019,20211909,0,31201119,40902009,0,41911409,0,20701309,11001109,31211609,11301809,31700219,40010919,11710809,21210209,41501809,21710709,10901209,0,21000619,40610709,30201119,21810819,11411809,-1031040,31400609,11500719,20100719,40710619,30200819,40511219
15,268,722.37790201325,0,0,542649.82138446,542650.868449402,11,1,0,29,31,167158493,258340051,197956922,237847133,20110709,22011709,42000619,10512019,0,20401419,41110309,11011709,0,30401319,41110019,12001419,10200819,41711119,20801719,40301909,31801509,30010219,20410109,11811009,10111119,20401809,30400119,42000019,32011019,0,30811719,10201409,-1000160,40910409,31700909,41011119,41500609,0,41111709,30410809
15,269,678.5304635996,0,0,542652.786127426,542653.833193138,11,1,0,19,19,154222465,115323256,167807925,106814675,41900119,0,30800409,0,0,0,30911309,20100619,30510009,0,0,0,22010409,0,20202009,41500819,31610019,0,-2101140,40801819,11701619,0,41500519,0,0,31202019,40500809,21600909,0,12000719,0,30611719,11400319,0,31201009,0
15,270,598.390060593374,1,0,542655.527367446,542656.574400822,11,0,1,18,9,30810619,73472947,63213837,43112228,0,0,0,0,0,0,30810619,0,0,40000309,0,0,20210309,0,0,0,10111319,-3151010,0,0,31300619,0,10201909,21711309,0,0,0,11411019,0,0,0,0,0,0,31701209,0
15,271,960.296479752287,1,0,542658.174434467,542659.22149325,11,0,1,13,31,186447693,220446893,188552941,227947703,10601309,30500519,40000709,10411509,0,0,41910519,21811719,31211409,11511019,21010509,30700509,-2001001,40101219,31801309,31110409,31800309,20410609,10402009,32011419,31701019,31111809,20601419,10400919,10311819,11000709,31011819,41411019,0,30910309,11710719,40001419,0,40201409,42010819,21702009
15,272,523.562503862195,0,0,542661.245059405,542662.292123962,11,1,0,22,9,52612428,31022628,14661239,122514456,0,0,0,0,0,21301519,0,0,31310909,0,10112009,0,0,20910619,0,0,0,0,0,0,0,-3051030,11610209,0,0,0,0,0,0,21210909,30400609,40001319,30901619,0,0,0
15,273,987.006995943375,0,0,542663.821555768,542664.8686184,11,1,0,4,3,23901730,0,0,51722228,0,0,0,-3091021,20810709,0,0,0,0,0,0,0,0,0,0,0,0,0,0,0,0,0,0,0,0,0,0,0,0,0,0,0,11211819,0,40510409,0
15,274,577.437790343538,1,0,542666.998068453,542668.045132625,11,0,1,23,3,20711419,0,56022388,0,0,0,0,20711419,0,0,0,0,0,0,0,0,0,0,0,0,0,0,0,0,0,20400819,-4120060,0,0,0,31501509,0,0,0,0,0,0,0,0,0
15,275,534.953498630784,1,0,542669.774567433,542670.821666252,11,1,1,11,3,21701919,33102049,31601819,0,0,0,0,0,0,21701919,0,0,0,0,-2091130,0,0,0,0,0,0,31010919,0,0,0,0,0,31601819,0,0,0,0,0,0,0,0,0,0,0,0
15,276,587.444850592874,0,0,542672.50401379,542673.551070648,11,1,0,10,9,31801318,34721479,53212828,61432357,0,0,0,10500309,0,0,0,21301009,0,-3110041,0,0,10710519,0,0,0,0,20900919,0,0,0,0,0,0,0,11810909,41401919,0,0,0,0,0,10310019,20011119,0,31111219
15,277,937.80667532701,1,0,542675.327618903,542676.374652663,11,0,1,25,3,43022018,0,45300639,0,21011009,0,22011009,0,0,0,0,0,0,0,0,0,0,0,0,0,0,0,0,0,0,41100519,0,0,-4200120,0,0,0,0,0,0,0,0,0,0,0
15,278,534.770257305354,1,0,542678.374713872,542679.421738393,11,1,1,15,3,10211309,23671619,22012019,0,0,0,0,0,0,0,0,0,10211309,0,0,21601509,0,0,-2070110,0,0,0,0,22012019,0,0,0,0,0,0,0,0,0,0,0,0,0,0,0,0
15,279,526.183703099377,0,0,542681.151178206,542682.198242763,11,0,0,14,3,30710409,44951819,10200809,0,0,0,0,0,0,0,0,30710409,0,0,0,0,41910809,-3041010,0,0,0,0,0,0,0,10200809,0,0,0,0,0,0,0,0,0,0,0,0,0,0
15,280,518.507966422476,1,0,542683.77474182,542684.821810227,11,1,1,5,9,115763547,42112728,83932747,21511219,0,30510909,41901619,41301009,-2050010,0,0,0,0,21510819,0,0,20601909,0,0,0,0,0,0,0,21210519,0,31911819,30810409,0,0,0,0,0,21511219,0,0,0,0,0,0
15,281,670.532514574006,0,0,542686.374774311,542687.421831169,11,0,0,17,19,184716574,139567676,104210846,106721346,0,30801309,31401219,40911209,0,11100909,40401309,30100619,0,41511519,30511719,30901419,0,0,21601619,0,-4131081,10910319,41010109,0,0,21400219,0,31000109,0,0,10800409,21200019,41810009,11811209,0,0,0,0,0,31900109
15,282,656.447562971152,0,0,542689.221873976,542690.26892968,11,1,0,32,19,104934885,135416155,62533747,110436885,11200719,0,0,0,10511019,0,41510209,10201819,31511119,41000709,0,0,41810909,10400809,0,21401919,0,20801809,0,41011109,0,0,0,10612019,0,0,10910619,11211909,11512019,30900809,31901019,-3201001,11100119,0,10610009,0
15,283,725.121518713422,0,1,542692.068962093,542693.116033965,11,0,1,7,19,137034555,43025956,107425665,153424385,0,20810309,20310519,20700909,0,32000819,-3201090,0,40010909,10101609,11801719,11011119,0,0,10111509,0,0,0,31810809,0,0,21001819,11700709,20900709,0,0,22011619,0,0,0,0,30010519,40210019,30400519,11201319,41602009
15,284,654.030393110588,1,0,542694.963096289,542696.010177015,11,0,1,8,31,141388253,289326412,209079202,177839112,0,30810009,11501919,21711909,41400209,10700509,11100819,-4151060,10011819,20710309,41500619,41700319,40011609,41501209,0,41801619,30100609,32000119,21210019,42010019,20610209,21812009,40511119,0,11011909,31301909,20612009,0,31402009,31011309,20611609,10001919,12010019,30200119,30800719,11801409
15,285,551.932586822659,0,0,542697.704320142,542698.751384314,11,0,0,7,0,0,0,0,0,0,0,0,0,0,0,-10802001,0,0,0,0,0,0,0,0,0,0,0,0,0,0,0,0,0,0,0,0,0,0,0,0,0,0,0,0,0
15,286,708.108554012142,0,0,542700.374950238,542701.42201287,11,1,0,28,0,0,0,0,0,0,0,0,0,0,0,0,0,0,0,0,0,0,0,0,0,0,0,0,0,0,0,0,0,0,0,0,-21910501,0,0,0,0,0,0,0,0
15,287,707.247011363506,1,0,542707.433843106,542708.480919982,12,1,1,29,31,167158493,258340051,197956922,237847133,20110709,22011709,42000619,10512019,0,20401419,41110309,11011709,0,30401319,41110019,12001419,10200819,41711119,20801719,40301909,31801509,30010219,20410109,11811009,10111119,20401809,30400119,42000019,32011019,0,30811719,10201409,-1000160,40910409,31700909,41011119,41500609,0,41111709,30410809
15,288,897.399248089641,0,0,542710.198592307,542711.245662254,12,0,0,36,31,208347483,176813792,199049031,200717323,0,21610919,20401709,41710119,21101909,0,41610909,40810009,21101909,41400909,31800309,0,40000119,11401309,11100219,20300009,10400509,10410409,31210409,30210409,31000509,11412019,11311919,10100819,41601209,21800419,10401319,10601909,31800109,21001419,40300819,0,30900119,30011219,31900609,-4201120
15,289,579.845721134916,1,0,542713.32804005,542714.375108842,12,1,1,28,0,0,0,0,0,0,0,0,0,0,0,0,0,0,0,0,0,0,0,0,0,0,0,0,0,0,0,0,0,0,0,0,-21910501,0,0,0,0,0,0,0,0
15,290,412.986702402122,0,0,542715.986896885,542717.033966832,12,1,0,22,9,52612428,31022628,14661239,122514456,0,0,0,0,0,21301519,0,0,31310909,0,10112009,0,0,20910619,0,0,0,0,0,0,0,-3051030,11610209,0,0,0,0,0,0,21210909,30400609,40001319,30901619,0,0,0
15,291,562.249155715108,1,0,542718.59872073,542719.645760265,12,1,1,6,31,167676964,177365483,271348602,260192521,21701719,10801119,31401119,30110319,0,-2040051,41110419,10001709,20510509,20500609,41710509,20410619,0,11011809,0,41411419,31910209,10410309,0,21910609,40911309,41910019,30312009,31902019,41100809,21300609,42001219,20812009,40711319,21411509,21801819,20611009,31211219,31411719,32010009,40211909
15,292,698.874880443327,1,0,542721.386968334,542722.434032506,12,1,1,19,19,154222465,115323256,167807925,106814675,41900119,0,30800409,0,0,0,30911309,20100619,30510009,0,0,0,22010409,0,20202009,41500819,31610019,0,-2101140,40801819,11701619,0,41500519,0,0,31202019,40500809,21600909,0,12000719,0,30611719,11400319,0,31201009,0
15,293,650.869093602523,1,0,542724.13994158,542725.187005752,12,0,1,35,31,146256384,208347492,239167991,168558383,30310909,10811309,0,0,11311219,10710519,41212019,41900409,0,0,30611009,40501709,41210009,11511809,21500119,32000809,20211819,10800209,20000519,41310509,11700509,11510909,40700809,12011009,40811809,40110709,21011209,20801419,10000709,21911709,30700009,42001619,10000019,21411519,-1121061,10610319
15,294,538.25415391475,1,0,542726.95174225,542727.998807193,12,1,1,5,9,115763547,42112728,83932747,21511219,0,30510909,41901619,41301009,-2050010,0,0,0,0,21510819,0,0,20601909,0,0,0,0,0,0,0,21210519,0,31911819,30810409,0,0,0,0,0,21511219,0,0,0,0,0,0
15,295,686.799425049685,0,0,542729.645892307,542730.693069657,12,0,0,12,3,0,3021151,71914147,0,0,0,0,0,0,0,0,0,0,0,0,-3021151,0,0,0,0,0,0,0,30711519,0,0,0,0,20201109,21001519,0,0,0,0,0,0,0,0,0,0
15,296,555.239401524886,1,0,542732.5635711,542733.610633732,12,0,1,9,0,0,0,0,0,0,0,0,0,0,0,0,0,-40601401,0,0,0,0,0,0,0,0,0,0,0,0,0,0,0,0,0,0,0,0,0,0,0,0,0,0,0
15,297,744.897733209655,1,0,542735.304785713,542736.351844881,12,0,1,7,31,228035743,260569621,195028303,197437712,20600819,0,41600419,31800019,40011609,21900009,-1120130,30301419,40701319,31701919,31110519,31710419,20611619,31301909,40111309,11400109,22010409,40611409,20511619,0,41600909,30100719,21900809,10201919,30511919,0,40200409,20710219,10100809,31500719,21201719,41011809,0,11500709,41410509,20001219
15,298,546.993152820505,1,0,542738.210702024,542739.257767351,12,0,1,8,3,11331650,30301419,30801219,0,0,0,0,10300609,0,0,0,-1031041,0,0,0,0,0,0,0,30301419,0,0,0,0,0,0,0,0,30801219,0,0,0,0,0,0,0,0,0,0,0
15,299,655.094040208496,1,0,542741.010729434,542742.057795146,12,0,1,14,9,50902228,96374038,0,73824146,10201309,0,0,0,0,0,0,40700919,0,41301319,0,0,0,-4161101,30400909,0,0,20510709,0,0,0,0,0,0,0,0,0,0,20911809,31400019,0,0,0,10711009,0,10801309
15,300,577.921301359311,1,0,542743.810769547,542744.857829099,12,1,1,21,31,216756803,246060441,188768654,299170331,30711719,30010009,41711519,32001509,0,40111819,0,31610019,10600209,40210819,21111819,21400119,20211519,30800909,41101909,20411219,20211909,30600219,41401009,40711619,-3041160,11211819,0,0,11800209,40601019,40001819,22001619,31000419,11101109,40511709,40811919,40511419,40810509,31211409,41210219
15,301,685.798911494203,1,0,542746.457856585,542747.504932691,12,0,1,30,19,102715456,166226355,108738294,116534166,41101709,21401009,0,0,20211119,0,20001619,0,0,30412009,0,31500309,41200409,21102019,0,42011609,0,0,0,0,20701719,12011609,22001119,0,31811119,10411819,11800909,12000819,31410919,-2011200,0,0,30500409,0,40610819,0
15,302,942.849663901143,0,0,542749.257892849,542750.305005911,12,0,0,25,3,0,10010119,2050171,32702018,0,0,0,0,0,0,0,0,0,0,0,0,10010119,0,0,0,0,0,0,0,0,0,0,0,-2050171,0,0,0,0,0,0,0,0,10800309,21901709,0
15,303,1130.21016377024,0,0,542752.328517402,542753.375586578,12,0,0,17,19,204834284,127555775,31510109,244516714,0,40011109,41000209,30410519,0,20510219,40901319,0,32000909,0,32000609,31210719,10700609,0,20410319,21301819,-1021181,10910519,0,0,0,0,0,0,31510109,0,0,0,40501319,40300819,41701619,41511219,40100319,0,0,40401419
15,304,1136.4696288947,0,0,542755.552087714,542756.599153042,12,1,0,15,3,10211309,23671619,22012019,0,0,0,0,0,0,0,0,0,10211309,0,0,21601509,0,0,-2070110,0,0,0,0,22012019,0,0,0,0,0,0,0,0,0,0,0,0,0,0,0,0
15,305,607.602561358362,0,0,542758.905070354,542759.952132601,12,1,0,10,9,31801318,34721479,53212828,61432357,0,0,0,10500309,0,0,0,21301009,0,-3110041,0,0,10710519,0,0,0,0,20900919,0,0,0,0,0,0,0,11810909,41401919,0,0,0,0,0,10310019,20011119,0,31111219
15,306,929.245913517661,1,0,542761.59926622,542762.646278808,12,0,1,13,19,175337185,146784476,124232885,116132836,0,0,0,41111319,0,40701019,30111509,21811719,41601619,31510319,0,10200609,-3050101,0,0,20911119,40910819,40201509,21101019,11910009,20201219,0,40110619,0,30910019,0,0,0,31000209,11510809,0,0,31810109,0,0,41811709
15,307,694.64993395377,0,0,542764.775771976,542765.822806506,12,0,0,23,9,96814365,0,66394116,0,11301009,0,21400209,0,21211719,0,0,21701019,21200409,0,0,0,0,0,0,0,0,0,10101319,0,0,21301209,-3081060,0,11510509,0,20400019,0,0,0,0,0,0,0,0,0
15,308,566.4941201685,0,0,542767.611062579,542768.658122516,12,1,0,9,19,128887005,134926065,144226794,52113157,31501709,0,30001119,41211019,10310209,11711909,0,0,-4151040,31101219,0,41511109,21111209,0,0,0,10001119,31201409,30000509,0,0,21501519,30011819,0,21201319,10610109,30901519,31410819,0,10600419,0,10101919,0,0,0,0
15,309,991.140706697479,0,0,542770.293500198,542771.340507781,12,0,0,18,9,195437693,23640210,0,21611619,10011009,40201319,40800909,11910219,41212019,40601209,10701009,0,0,0,0,21500119,0,0,0,0,0,-2140091,0,0,0,0,0,0,0,0,0,21611619,0,0,0,0,0,0,0,0
15,310,452.435191837139,0,0,542773.364068931,542774.411133874,12,1,0,11,3,21701919,33102049,31601819,0,0,0,0,0,0,21701919,0,0,0,0,-2091130,0,0,0,0,0,0,31010919,0,0,0,0,0,31601819,0,0,0,0,0,0,0,0,0,0,0,0
15,311,602.730495389551,0,0,542776.034739449,542777.081762815,12,1,0,32,19,104934885,135416155,62533747,110436885,11200719,0,0,0,10511019,0,41510209,10201819,31511119,41000709,0,0,41810909,10400809,0,21401919,0,20801809,0,41011109,0,0,0,10612019,0,0,10910619,11211909,11512019,30900809,31901019,-3201001,11100119,0,10610009,0
15,312,851.347138290294,0,0,542778.764136146,542779.811199933,12,1,0,4,3,23901730,0,0,51722228,0,0,0,-3091021,20810709,0,0,0,0,0,0,0,0,0,0,0,0,0,0,0,0,0,0,0,0,0,0,0,0,0,0,0,11211819,0,40510409,0
15,313,743.745930027217,0,0,542784.999536309,542786.046576998,13,1,0,11,3,21701919,33102049,31601819,0,0,0,0,0,0,21701919,0,0,0,0,-2091130,0,0,0,0,0,0,31010919,0,0,0,0,0,31601819,0,0,0,0,0,0,0,0,0,0,0,0
15,314,381.42490806058,1,0,542787.92897104,542788.976022123,13,1,1,10,9,31801318,34721479,53212828,61432357,0,0,0,10500309,0,0,0,21301009,0,-3110041,0,0,10710519,0,0,0,0,20900919,0,0,0,0,0,0,0,11810909,41401919,0,0,0,0,0,10310019,20011119,0,31111219
15,315,720.842677634209,1,0,542790.505473177,542791.55258008,13,1,1,5,9,115763547,42112728,83932747,21511219,0,30510909,41901619,41301009,-2050010,0,0,0,0,21510819,0,0,20601909,0,0,0,0,0,0,0,21210519,0,31911819,30810409,0,0,0,0,0,21511219,0,0,0,0,0,0
15,316,427.660259301774,1,0,542793.305497891,542794.352552824,13,0,1,18,19,197847583,96423886,94735166,114524876,31311609,0,31710309,0,20601009,41301819,31111209,20601209,21210419,0,40000109,21601519,20710309,0,0,0,11110919,-3001030,0,0,0,11401509,30911519,21711819,0,30710319,0,0,40701319,0,21401519,0,42010119,0,0,10411919
15,317,631.478610099293,0,0,542795.799636091,542796.846693718,13,0,0,35,31,224939402,220727322,217829032,209156093,0,21100719,30200909,40111409,30712009,20200109,20202019,20802019,41610209,41811609,22001419,10400619,21510909,41400819,20801619,21600219,0,41200109,0,20200019,31301209,41601719,11900219,30511219,30712009,10001419,41601219,31110419,20310609,31500509,20700519,0,40801009,31711809,-3021010,30000209
15,318,709.425890468992,0,0,542798.587908332,542799.63496673,13,1,0,22,9,52612428,31022628,14661239,122514456,0,0,0,0,0,21301519,0,0,31310909,0,10112009,0,0,20910619,0,0,0,0,0,0,0,-3051030,11610209,0,0,0,0,0,0,21210909,30400609,40001319,30901619,0,0,0
15,319,547.825866378844,0,0,542801.493819638,542802.611526414,13,0,0,8,3,3181081,21800509,0,53313828,0,0,0,0,0,0,0,-3181081,0,0,0,0,0,0,21800509,0,0,0,0,0,0,0,0,0,0,0,0,0,0,41401909,0,0,0,11911919,0,0
15,320,753.169774310663,0,0,542804.293858211,542805.340928543,13,0,0,30,3,0,10100619,30111819,14281749,0,0,0,0,0,0,0,0,0,0,0,0,0,0,0,0,0,10100619,0,0,30111819,0,0,0,0,0,0,0,0,-3081030,0,0,0,0,0,11200719
15,321,509.326262632385,1,0,542807.305665734,542808.352725287,13,0,1,23,19,53834346,157236355,116046513,122803147,0,10210809,11902009,0,0,21710609,0,0,10010919,31901509,0,21601819,30511609,0,0,31511109,41710309,0,30500119,10301519,11010609,11000909,-1011120,0,20711919,10210009,21300309,41101119,0,0,0,0,41600319,40101709,0,0
15,322,605.46371829696,0,0,542810.05864052,542811.105705077,13,1,0,15,3,10211309,23671619,22012019,0,0,0,0,0,0,0,0,0,10211309,0,0,21601509,0,0,-2070110,0,0,0,0,22012019,0,0,0,0,0,0,0,0,0,0,0,0,0,0,0,0
15,323,1194.56062291283,1,0,542812.870435801,542813.917498818,13,0,1,7,3,44661089,0,21610119,12010419,0,0,0,0,41500919,0,-3160170,0,0,0,0,0,0,0,0,0,0,0,0,0,0,0,0,0,0,0,21610119,0,0,0,0,0,12010419,0,0,0
15,324,652.867426048033,1,0,542816.235220188,542817.282251638,13,0,1,25,9,84415337,52111618,45983819,51921628,0,0,0,0,22011709,31301619,0,0,31102009,0,0,0,0,41600209,0,0,0,10511409,0,20100809,21711919,0,0,0,-4171091,0,0,31810209,0,0,0,0,20111419,0,0,0
15,325,581.721251015551,1,0,542819.141103392,542820.188179883,13,1,1,32,19,104934885,135416155,62533747,110436885,11200719,0,0,0,10511019,0,41510209,10201819,31511119,41000709,0,0,41810909,10400809,0,21401919,0,20801809,0,41011109,0,0,0,10612019,0,0,10910619,11211909,11512019,30900809,31901019,-3201001,11100119,0,10610009,0
15,326,659.757457324304,0,0,542821.894073559,542822.941151205,13,1,0,28,0,0,0,0,0,0,0,0,0,0,0,0,0,0,0,0,0,0,0,0,0,0,0,0,0,0,0,0,0,0,0,0,-21910501,0,0,0,0,0,0,0,0
15,327,512.437132070772,1,0,542824.670580238,542825.717650185,13,1,1,21,31,216756803,246060441,188768654,299170331,30711719,30010009,41711519,32001509,0,40111819,0,31610019,10600209,40210819,21111819,21400119,20211519,30800909,41101909,20411219,20211909,30600219,41401009,40711619,-3041160,11211819,0,0,11800209,40601019,40001819,22001619,31000419,11101109,40511709,40811919,40511419,40810509,31211409,41210219
15,328,907.792424084619,0,0,542827.352972047,542828.400031214,13,1,0,6,31,167676964,177365483,271348602,260192521,21701719,10801119,31401119,30110319,0,-2040051,41110419,10001709,20510509,20500609,41710509,20410619,0,11011809,0,41411419,31910209,10410309,0,21910609,40911309,41910019,30312009,31902019,41100809,21300609,42001219,20812009,40711319,21411509,21801819,20611009,31211219,31411719,32010009,40211909
15,329,598.153694649227,1,0,542830.411833348,542831.458887896,13,0,1,36,9,93723647,71921837,21601638,36092590,0,41101119,0,41111509,0,11511019,0,0,0,31310009,0,0,0,0,10601309,30010519,0,0,0,11401219,0,10200419,0,0,0,0,0,0,0,0,0,31911409,0,0,0,-4181181
15,330,601.797735085711,0,0,542833.200102894,542834.247168221,13,1,0,19,19,154222465,115323256,167807925,106814675,41900119,0,30800409,0,0,0,30911309,20100619,30510009,0,0,0,22010409,0,20202009,41500819,31610019,0,-2101140,40801819,11701619,0,41500519,0,0,31202019,40500809,21600909,0,12000719,0,30611719,11400319,0,31201009,0
15,331,727.247658185661,0,0,542835.976599565,542837.023668356,13,0,0,12,9,31201238,13752179,103214056,61903428,0,0,0,20700119,0,0,0,10501119,0,10602009,0,-3150170,0,0,0,0,0,0,0,31000409,0,21410709,0,40501019,0,0,10301919,0,0,0,0,31001709,30901719,0,0,0
15,332,668.327843304724,0,0,542838.941341375,542839.988408627,13,1,0,4,3,23901730,0,0,51722228,0,0,0,-3091021,20810709,0,0,0,0,0,0,0,0,0,0,0,0,0,0,0,0,0,0,0,0,0,0,0,0,0,0,0,11211819,0,40510409,0
15,333,529.209111235105,0,0,542841.729608227,542842.776682023,13,0,0,2,0,0,0,0,0,0,-20300091,0,0,0,0,0,0,0,0,0,0,0,0,0,0,0,0,0,0,0,0,0,0,0,0,0,0,0,0,0,0,0,0,0,0
15,334,613.440879271366,1,0,542844.494354734,542845.541418906,13,0,1,14,31,228860521,212504585,187933103,229950121,30911709,31900819,30801519,20701109,30801019,21010019,10411509,41911509,10411309,31400609,0,41210809,31810709,-4060011,30900119,31210719,0,41911609,41601619,0,31510619,21210219,0,31500009,10010209,41500209,10600219,30401809,10701119,11410509,30211909,21010119,41502009,31600819,22010009,31101819
15,335,712.101754150353,0,0,542847.235560109,542848.2826289,13,0,0,13,31,199151142,198718642,208236673,248227412,11001919,21911619,21810719,41601709,30211519,41800619,20811119,10001919,0,30710919,30601119,20201709,-2190140,11400509,10000009,41000609,41801809,10811819,40010009,21700809,21410509,31212019,30600809,0,0,31801309,31501209,31401309,11400219,0,30701509,41001809,41811019,10010019,41500209,40401319
15,336,468.702102196403,1,0,542850.118010354,542851.165022172,13,1,1,9,19,128887005,134926065,144226794,52113157,31501709,0,30001119,41211019,10310209,11711909,0,0,-4151040,31101219,0,41511109,21111209,0,0,0,10001119,31201409,30000509,0,0,21501519,30011819,0,21201319,10610109,30901519,31410819,0,10600419,0,10101919,0,0,0,0
15,337,607.271494925953,1,0,542852.694453592,542853.741522384,13,0,1,17,19,195648013,125462548,127626165,94133646,20801809,0,0,40410319,41010819,10800219,40401409,21611419,20612019,0,0,41510409,0,0,0,40101119,-2050111,41800909,21400909,31701009,0,0,21810319,0,10901909,0,41812019,40411709,0,0,0,0,11210109,10701309,0,31810519
15,338,551.952989771962,1,0,542855.388601339,542856.435663586,13,1,1,29,31,167158493,258340051,197956922,237847133,20110709,22011709,42000619,10512019,0,20401419,41110309,11011709,0,30401319,41110019,12001419,10200819,41711119,20801719,40301909,31801509,30010219,20410109,11811009,10111119,20401809,30400119,42000019,32011019,0,30811719,10201409,-1000160,40910409,31700909,41011119,41500609,0,41111709,30410809
15,339,573.140856111422,1,0,542861.294556531,542862.341623398,14,1,1,21,31,216756803,246060441,188768654,299170331,30711719,30010009,41711519,32001509,0,40111819,0,31610019,10600209,40210819,21111819,21400119,20211519,30800909,41101909,20411219,20211909,30600219,41401009,40711619,-3041160,11211819,0,0,11800209,40601019,40001819,22001619,31000419,11101109,40511709,40811919,40511419,40810509,31211409,41210219
15,340,527.090286137536,0,0,542864.000516804,542865.047532856,14,1,0,10,9,31801318,34721479,53212828,61432357,0,0,0,10500309,0,0,0,21301009,0,-3110041,0,0,10710519,0,0,0,0,20900919,0,0,0,0,0,0,0,11810909,41401919,0,0,0,0,0,10310019,20011119,0,31111219
15,341,460.790769546293,1,0,542866.682861648,542867.729926975,14,0,1,18,31,208348712,178120763,261768311,215649413,11001319,10100209,31901209,10910509,41801719,20911419,0,40910509,40811819,0,11711919,10401609,40110219,10501309,21411409,40011419,40801819,-3171060,42011409,21110209,30710009,10311519,31311409,22000819,41601609,40800719,21910609,0,10801509,30210009,0,40501219,40211719,42011419,41912019,10001519
15,342,823.684998438694,0,0,542869.388823846,542870.435839513,14,1,0,5,9,115763547,42112728,83932747,21511219,0,30510909,41901619,41301009,-2050010,0,0,0,0,21510819,0,0,20601909,0,0,0,0,0,0,0,21210519,0,31911819,30810409,0,0,0,0,0,21511219,0,0,0,0,0,0
15,343,504.125055042095,1,0,542872.306456059,542873.353521771,14,1,1,29,31,167158493,258340051,197956922,237847133,20110709,22011709,42000619,10512019,0,20401419,41110309,11011709,0,30401319,41110019,12001419,10200819,41711119,20801719,40301909,31801509,30010219,20410109,11811009,10111119,20401809,30400119,42000019,32011019,0,30811719,10201409,-1000160,40910409,31700909,41011119,41500609,0,41111709,30410809
15,344,1186.36056955438,1,0,542874.977076146,542876.024148788,14,0,1,7,3,33831429,31801109,10800009,0,0,0,0,0,0,0,-2021010,0,31810419,0,31801109,0,0,0,0,0,0,0,0,10800009,0,0,0,0,0,0,0,0,0,0,0,0,0,0,0,0
15,345,579.890376655385,0,0,542878.400655621,542879.447722488,14,0,0,13,19,147746484,104016957,105213565,132925146,11911309,11500619,30111709,0,31210219,31601209,31411419,0,0,0,20601709,0,-1081201,0,0,10710919,31111419,40511709,40900519,11700109,10511109,31800519,0,10301309,0,0,0,0,30211309,0,41400609,0,0,30211709,31101519,0
15,346,527.969921939075,1,0,542881.071271474,542882.118337571,14,1,1,11,3,21701919,33102049,31601819,0,0,0,0,0,0,21701919,0,0,0,0,-2091130,0,0,0,0,0,0,31010919,0,0,0,0,0,31601819,0,0,0,0,0,0,0,0,0,0,0,0
15,347,712.286150432192,1,0,542883.788944185,542884.836006817,14,1,1,22,9,52612428,31022628,14661239,122514456,0,0,0,0,0,21301519,0,0,31310909,0,10112009,0,0,20910619,0,0,0,0,0,0,0,-3051030,11610209,0,0,0,0,0,0,21210909,30400609,40001319,30901619,0,0,0
15,348,999.132111319341,1,0,542886.63605078,542887.683106868,14,0,1,30,31,199430032,198549012,247067212,180336983,41110319,11801319,21411509,10501719,0,11401409,40600619,22001819,40601319,42001219,0,10711419,31100119,10311119,31400109,41001909,11811809,20211309,20711719,41610309,40012019,31910309,40101309,10910309,0,30210319,31600919,11311819,0,-2100080,31601709,20500409,21201019,40810619,41400019,11411309
