sub_id,Trial,RT,Resp,Error,Fix_onset,Disp_onset,block,repeat,tid,tloc,d_setsize,quad1,quad2,quad3,quad4,loc1,loc2,loc3,loc4,loc5,loc6,loc7,loc8,loc9,loc10,loc11,loc12,loc13,loc14,loc15,loc16,loc17,loc18,loc19,loc20,loc21,loc22,loc23,loc24,loc25,loc26,loc27,loc28,loc29,loc30,loc31,loc32,loc33,loc34,loc35,loc36
10,1,4804.32803052827,1,0,9627.96389428905,9629.01098194389,1,1,1,28,31,205177412,229055622,209249503,262039793,31410709,0,10611019,40010009,40111219,10511809,40710319,20101719,11710609,11910009,31010609,0,42001019,31000419,40710919,31011219,10510319,30901109,31402009,11402009,31311119,31510819,0,0,31810319,41001619,30811609,-4091061,21501509,31111919,21010109,40801019,40411019,21501919,41210719,40400519
10,2,548.779780676341,0,0,9635.01117981382,9636.05826592882,1,0,0,26,9,51512338,31312638,86153328,42402018,0,11301119,0,0,40211219,0,0,0,0,0,0,10111819,0,0,0,21200819,0,0,10212009,0,31800019,0,0,0,0,-3131081,41010219,0,0,0,0,0,31601309,10800709,0,0
10,3,477.358358522906,0,0,9637.63477384015,9638.68187304382,1,0,0,25,19,162437775,115112704,84813718,114634785,30201919,0,40301419,0,0,40011009,0,41711619,10211809,10510919,0,0,31000119,20900719,10500319,20300209,21900419,0,41310919,0,0,0,0,10800819,-1191171,31510809,0,0,20710419,10812019,0,0,11910619,30001719,41200009,0
10,4,498.777586399228,1,1,9640.21137183235,9641.25840751746,1,1,0,34,19,134213456,115414455,165039184,76944126,0,0,31900109,31211309,30901119,40200919,0,0,0,31301309,0,11001509,21610109,20500519,0,0,0,31001009,40712009,0,21311009,0,0,40801719,41001509,10601319,10611619,30711609,0,21700209,0,11700709,11700509,-1131090,0,0
10,5,1117.85525073174,0,0,9642.79968303171,9643.84669946877,1,0,0,15,3,10201519,1100161,72800528,0,0,0,0,0,0,0,10201519,0,0,0,0,0,0,0,-1100161,0,0,0,0,31100519,0,41700009,0,0,0,0,0,0,0,0,0,0,0,0,0,0
10,6,427.935915453418,1,0,9646.17627378664,9647.22327867488,1,1,1,10,3,80812018,4010001,0,30711009,40010809,0,0,40801209,0,0,0,0,0,-4010001,0,0,0,0,0,0,0,0,0,0,0,0,0,0,0,0,0,0,0,0,0,0,0,30711009,0,0
10,7,481.853547666105,1,0,9648.74104231346,9649.78812765854,1,0,1,20,19,104135945,123933656,66855057,185455213,0,10510009,31302009,31300709,0,10111209,20912009,0,0,0,40201409,0,0,0,30211409,0,21510819,32010019,0,-3021020,0,0,0,31911309,0,20810719,11112009,30200619,10010419,32010609,0,40511619,30311209,0,31800619,10610119
10,8,629.341330928582,1,0,9651.42343681684,9652.47048597558,1,0,1,36,3,0,93214147,0,2010161,0,0,0,0,0,0,0,0,0,21301009,0,0,40612019,0,0,0,0,31301119,0,0,0,0,0,0,0,0,0,0,0,0,0,0,0,0,0,-2010161
10,9,607.579102836098,0,0,9654.18825377175,9655.23530062073,1,1,0,31,31,266869351,248158511,167737793,167754044,10910819,21610119,10601419,41210509,41401519,30011519,30701209,40411619,40010619,20210509,31310009,40101319,41301909,20700209,21501209,21811109,10711219,40511019,30211909,31011309,0,11801009,11110409,40700119,21801219,21101819,0,30900009,11300019,31611609,-1130150,40710919,0,0,21601219,30500119
10,10,671.303615534271,1,0,9656.97650214548,9658.0235871056,1,1,1,1,9,24521700,73922437,0,115224655,-4010181,20511519,0,0,0,0,0,0,0,0,0,0,0,0,0,11700019,21511309,40711109,0,0,0,0,0,0,0,0,0,21401219,21200009,0,20901909,30511509,0,0,21210009,0
10,11,477.468457358555,1,0,9659.83539932472,9660.88251546667,1,1,1,19,19,73314356,147715155,74725376,155936194,21500009,0,10111109,0,10601719,0,0,31101519,0,0,21800809,0,0,32000309,41901309,30300909,21711819,0,-2000130,0,10400909,11411819,0,0,30510609,20401909,0,20701819,21100009,0,21400919,10210919,41211219,0,41311309,0
10,12,433.243757184755,1,0,9662.4354764709,9663.48257952418,1,1,1,35,9,61912038,60601728,32802028,74282147,0,20800319,0,0,0,0,41111719,0,0,0,0,40400419,0,0,0,20201309,0,0,21500109,0,0,11301919,0,0,0,0,0,0,0,0,0,31001019,22000719,20100409,-1180000,0
10,13,327.525778046038,0,0,9665.10615430246,9666.15327968347,1,1,0,14,0,0,0,0,0,0,0,0,0,0,0,0,0,0,0,0,0,0,-21601101,0,0,0,0,0,0,0,0,0,0,0,0,0,0,0,0,0,0,0,0,0,0
10,14,419.799380579207,1,0,9667.51797360486,9668.56506202963,1,0,1,32,3,0,0,21900909,54193048,0,0,0,0,0,0,0,0,0,0,0,0,0,0,0,0,0,0,0,0,0,0,0,21900909,0,0,0,0,0,0,11410909,-2171130,0,0,0,40611009
10,15,369.539262457693,1,1,9670.10629134856,9671.15337476883,1,0,0,18,19,143244365,128483996,134821946,145604565,10901209,40811319,0,0,0,40211519,31310009,20010309,0,11300509,21101719,0,20600709,0,41110119,0,31200919,-3170021,20610009,0,0,40500419,0,31810209,0,0,41901309,12001619,0,41300719,0,40400609,41301009,0,0,10600609
10,16,430.130962853582,1,0,9672.54170259851,9673.58872519494,1,0,1,35,0,0,0,0,0,0,0,0,0,0,0,0,0,0,0,0,0,0,0,0,0,0,0,0,0,0,0,0,0,0,0,0,0,0,0,0,0,0,0,-41200001,0
10,17,592.700746652554,1,0,9675.08289072662,9676.13002573166,1,0,1,3,31,249538273,236769831,196454903,177327613,30600519,21001309,-2000051,30911219,20200719,41311719,40811709,21401009,41300019,10111319,31700019,20001109,41611019,30210619,30511919,31211709,21000909,20411209,31710919,11311609,0,41500119,30110419,21210709,20510809,0,40100319,41201819,11001119,0,0,10900419,21310209,40700919,11311919,40901209
10,18,448.611783713204,0,0,9677.82416077442,9678.87126036305,1,1,0,7,3,1180180,21300319,11901609,11700109,0,0,0,0,0,0,-1180180,0,0,0,0,0,0,0,0,0,0,21300319,0,0,0,11901609,0,0,0,0,0,0,0,11700109,0,0,0,0,0,0
10,19,404.748561881206,1,0,9680.44781985916,9681.49484322552,1,1,1,21,31,227056422,229669621,151686124,196623593,20510719,40310009,30911919,21401019,20601309,21310619,42000319,30010509,0,31711909,30501909,30201919,21811419,30500119,20211409,31210319,22010209,11510409,21611009,10610919,-2031131,0,21210109,11811209,21400019,41511219,21500509,40010409,31600019,30400509,0,0,10301419,11400519,32010309,40900409
10,20,383.228859194787,1,0,9682.9654764786,9684.01254988988,1,0,1,29,9,94112757,83122737,81300928,14790240,41501319,0,0,40611019,0,0,12000419,0,0,40710419,0,0,0,20701309,0,0,0,21711009,0,0,0,0,40900119,0,0,0,40400809,0,-4180121,0,0,0,0,0,0,10610119
10,21,371.335490302954,1,0,9685.42437458174,9686.47146916588,1,1,1,27,3,0,61511318,21931309,0,0,0,0,0,0,0,0,0,0,0,0,0,0,0,41100509,0,20410809,0,20901209,0,0,0,0,0,0,0,-1030100,0,0,0,0,0,0,0,0,0
10,22,923.812598597578,0,0,9687.85952857391,9688.9068569332,1,0,0,4,31,239800144,236839702,226150621,246656513,21811219,40711509,41411419,-2141141,40701009,30400619,22011309,40611919,0,41901819,11410319,11010709,30511009,0,20300209,40301609,40702019,40702009,20300219,30700519,20410119,20901809,40411709,21600809,40611709,21211709,10002019,0,30110809,41710709,31401919,0,30600319,41712019,40510319,30610419
10,23,499.291124320735,1,1,9690.84805068175,9691.89517760261,1,1,0,12,9,74902846,94284557,20510719,30311209,22000609,21300719,0,21401309,0,0,0,0,10200209,0,0,-3050020,40711909,10410809,40111819,0,0,0,0,0,0,20510719,0,0,0,0,0,0,0,0,0,0,0,0,0,30311209
10,24,400.928979226592,0,0,9693.48342489845,9694.53049984958,1,1,0,9,19,86104567,125423965,103203147,156916103,31100219,0,0,0,20101919,0,10800009,21911309,-2191111,0,0,0,31201209,31600219,30311309,0,21410509,10900719,40201409,42000519,0,0,0,0,0,21001219,0,10400419,31800119,0,0,21500219,20501619,31001609,11600409,30111709
10,25,426.688641939108,0,0,9695.96584180655,9697.01293677565,1,0,0,8,9,53901108,30321228,102712947,61711018,0,0,10900619,0,0,0,41910309,-1090180,0,0,20010619,0,0,0,0,0,10310609,0,0,0,0,31400119,0,0,40302009,0,31010819,40900309,0,0,20810709,0,0,0,0,0
10,26,410.449063792839,0,0,9698.51895256059,9699.56599094043,1,0,0,13,31,176230212,162288792,208268722,178117523,11711719,10101419,11000209,20000519,0,41302009,20700909,31211409,30202019,20701409,20700809,11110019,-3161170,21510819,32001519,11401719,20501319,21200009,41110919,20011819,11911819,30111609,10010319,0,41500709,11610009,42001519,30501019,21911319,30001009,11401519,41500919,0,31101419,0,11700319
10,27,413.693129814419,0,0,9727.43735854504,9728.48447468699,2,1,0,21,31,227056422,229669621,151686124,196623593,20510719,40310009,30911919,21401019,20601309,21310619,42000319,30010509,0,31711909,30501909,30201919,21811419,30500119,20211409,31210319,22010209,11510409,21611009,10610919,-2031131,0,21210109,11811209,21400019,41511219,21500509,40010409,31600019,30400509,0,0,10301419,11400519,32010309,40900409
10,28,410.687354627953,1,0,9730.0844775357,9731.1315586462,2,1,1,9,19,86104567,125423965,103203147,156916103,31100219,0,0,0,20101919,0,10800009,21911309,-2191111,0,0,0,31201209,31600219,30311309,0,21410509,10900719,40201409,42000519,0,0,0,0,0,21001219,0,10400419,31800119,0,0,21500219,20501619,31001609,11600409,30111709
10,29,420.466132962247,1,0,9732.5786684748,9733.62575074018,2,0,1,4,9,77692647,41201718,63802347,21401309,0,0,0,-3180100,0,31902009,0,21200219,21410319,0,10601409,0,0,0,0,30600309,0,0,0,42001209,0,10501119,0,0,0,0,11300019,0,0,21401309,0,0,0,0,0,0
10,30,362.204986226061,0,0,9735.22580594359,9736.27289321347,2,1,0,14,0,0,0,0,0,0,0,0,0,0,0,0,0,0,0,0,0,0,-21601101,0,0,0,0,0,0,0,0,0,0,0,0,0,0,0,0,0,0,0,0,0,0
10,31,439.867395480178,0,0,9737.76705489553,9738.81412214744,2,0,0,13,9,93333037,4081160,86734775,11911319,40811009,0,21611619,0,0,0,30910409,0,0,0,0,0,-4081160,0,0,0,0,0,0,12000719,21502009,0,21111019,0,11410119,0,20710909,0,0,0,11911319,0,0,0,0,0
10,32,325.42042654859,1,1,9740.34359976312,9741.39068741796,2,0,0,3,31,150739053,247967702,199455812,145757593,10601809,31010509,-4081041,21210209,30811919,10810709,10400319,10201719,21610819,10501109,0,40900709,30910319,41410409,40711119,40610909,21111109,21812019,20710109,30610909,11110209,42000619,21410219,20500919,21711109,31401719,0,10610309,10701509,40211709,0,0,40810519,11011519,10710119,21701909
10,33,585.562030588335,1,0,9742.75542984442,9743.80251095493,2,0,1,32,19,156330876,97734265,187724374,120174407,0,0,0,31700019,0,42010219,41010019,41610619,0,0,11511709,31110419,21401509,21800609,0,11910019,0,0,21600509,0,0,41200319,0,41201709,21101309,31310009,31310519,42010019,41901819,21001309,0,-4060151,0,0,11201109,0
10,34,524.848682529409,0,0,9745.52022177688,9746.56729826785,2,1,0,31,31,266869351,248158511,167737793,167754044,10910819,21610119,10601419,41210509,41401519,30011519,30701209,40411619,40010619,20210509,31310009,40101319,41301909,20700209,21501209,21811109,10711219,40511019,30211909,31011309,0,11801009,11110409,40700119,21801219,21101819,0,30900009,11300019,31611609,-1130150,40710919,0,0,21601219,30500119
10,35,414.29097418586,0,0,9748.15558175002,9749.20267094471,2,0,0,26,31,246967921,146840383,178625804,229437332,41011309,20411309,30110519,31300509,11901419,20210819,40411419,30610309,21000309,10211109,0,20812009,31101619,21611509,0,21002009,30501309,11600819,0,21611719,30411509,20810419,41101219,10900719,40000009,-2080101,11710109,30801919,41901819,21000209,21101019,41000019,12010819,40811119,0,20810409
10,36,382.01238255715,1,0,9750.64977769361,9751.69685264474,2,0,1,29,3,12000109,0,52111628,3170040,0,0,0,0,0,0,0,0,12000109,0,0,0,0,0,0,0,0,0,0,0,0,21301209,0,0,30810419,0,0,0,-3170040,0,0,0,0,0,0,0
10,37,458.096836833647,0,0,9753.15572572542,9754.20281222538,2,1,0,1,9,24521700,73922437,0,115224655,-4010181,20511519,0,0,0,0,0,0,0,0,0,0,0,0,0,11700019,21511309,40711109,0,0,0,0,0,0,0,0,0,21401219,21200009,0,20901909,30511509,0,0,21210009,0
10,38,403.828505186539,1,0,9755.79110648646,9756.83819914579,2,1,1,12,9,74902846,94284557,20510719,30311209,22000609,21300719,0,21401309,0,0,0,0,10200209,0,0,-3050020,40711909,10410809,40111819,0,0,0,0,0,0,20510719,0,0,0,0,0,0,0,0,0,0,0,0,0,30311209
10,39,408.946176203244,1,0,9758.35587231855,9759.40296228316,2,1,1,7,3,1180180,21300319,11901609,11700109,0,0,0,0,0,0,-1180180,0,0,0,0,0,0,0,0,0,0,21300319,0,0,0,11901609,0,0,0,0,0,0,0,11700109,0,0,0,0,0,0
10,40,418.559806283156,1,0,9760.83829885068,9761.88538997017,2,0,1,8,19,57482857,96424556,65433756,137944703,10000209,0,0,11200219,21701709,0,0,-4070111,10510609,0,0,0,41901409,0,11700809,21810619,0,21011719,30701019,12010709,0,0,11911619,0,0,10810409,0,11010219,10300119,40310719,0,31501119,11811109,11210309,0,21801109
10,41,408.024579661287,1,0,9763.32072615273,9764.36780880308,2,1,1,27,3,0,61511318,21931309,0,0,0,0,0,0,0,0,0,0,0,0,0,0,0,41100509,0,20410809,0,20901209,0,0,0,0,0,0,0,-1030100,0,0,0,0,0,0,0,0,0
10,42,411.720204887388,0,0,9765.90903119271,9766.95612269716,2,1,0,28,31,205177412,229055622,209249503,262039793,31410709,0,10611019,40010009,40111219,10511809,40710319,20101719,11710609,11910009,31010609,0,42001019,31000419,40710919,31011219,10510319,30901109,31402009,11402009,31311119,31510819,0,0,31810319,41001619,30811609,-4091061,21501509,31111919,21010109,40801019,40411019,21501919,41210719,40400519
10,43,435.158168043927,1,0,9768.53263753779,9769.57972365279,2,0,1,18,0,0,0,0,0,0,0,0,0,0,0,0,0,0,0,0,0,0,0,0,0,0,-20311291,0,0,0,0,0,0,0,0,0,0,0,0,0,0,0,0,0,0
10,44,377.980686413139,1,0,9771.17977269682,9772.22686227646,2,0,1,15,3,41611309,24151499,0,41601109,0,0,0,0,0,0,0,0,41611309,0,0,0,0,0,-3051190,21100309,0,0,0,0,0,0,0,0,0,0,0,41601109,0,0,0,0,0,0,0,0
10,45,746.828336572435,1,1,9773.67402561463,9774.72105129076,2,0,0,36,19,215426464,112624947,155614974,106225066,0,42000719,0,30410009,30201809,41200109,0,40101809,31512009,41201609,0,0,0,30211719,0,41211619,0,0,0,31511709,0,0,41800609,11200909,10000519,30301009,30800219,0,20211819,20301909,40600109,0,0,20911109,0,-4200120
10,46,443.613450594057,0,0,9776.47404416975,9777.52112951482,2,1,0,10,3,80812018,4010001,0,30711009,40010809,0,0,40801209,0,0,0,0,0,-4010001,0,0,0,0,0,0,0,0,0,0,0,0,0,0,0,0,0,0,0,0,0,0,0,30711009,0,0
10,47,476.204630522261,1,0,9779.01529158185,9780.06237731188,2,0,1,20,31,237436803,252126721,150426865,234369411,40610719,31401219,42000609,40210919,20201009,21501209,41511119,0,0,11210619,21001319,20310619,21601019,31700309,41900409,41101109,31801009,31500309,41911319,-2200081,21900809,11401209,11510719,30001619,31501109,0,0,21910409,31910209,11500319,42011409,10611909,21601109,21712019,31201409,41910619
10,48,418.321130488039,0,0,9781.72125878471,9782.76833489072,2,1,0,19,19,73314356,147715155,74725376,155936194,21500009,0,10111109,0,10601719,0,0,31101519,0,0,21800809,0,0,32000309,41901309,30300909,21711819,0,-2000130,0,10400909,11411819,0,0,30510609,20401909,0,20701819,21100009,0,21400919,10210919,41211219,0,41311309,0
10,49,398.363984342723,1,0,9784.33309648825,9785.38017567395,2,0,1,18,3,31901619,13212150,0,40312009,31901619,0,0,0,0,0,0,0,0,10201009,0,0,0,0,0,0,0,-3011141,0,0,0,0,0,0,0,0,0,40312009,0,0,0,0,0,0,0,0
10,50,522.557779848285,0,0,9786.79198612225,9787.83907531694,2,0,0,25,9,11000509,51611818,74514127,52833827,0,11000509,0,0,0,0,0,0,0,0,0,30900709,0,0,0,0,20711109,0,0,41801909,0,0,20801909,0,-1200200,0,10710109,0,0,20910009,21911909,0,0,10011909,0,0
10,51,579.234812232244,0,0,9789.53324539115,9790.58032650165,2,1,0,35,9,61912038,60601728,32802028,74282147,0,20800319,0,0,0,0,41111719,0,0,0,0,40400419,0,0,0,20201309,0,0,21500109,0,0,11301919,0,0,0,0,0,0,0,0,0,31001019,22000719,20100409,-1180000,0
10,52,1939.58752886283,1,0,9792.29803770856,9793.34511073489,2,1,1,34,19,134213456,115414455,165039184,76944126,0,0,31900109,31211309,30901119,40200919,0,0,0,31301309,0,11001509,21610109,20500519,0,0,0,31001009,40712009,0,21311009,0,0,40801719,41001509,10601319,10611619,30711609,0,21700209,0,11700709,11700509,-1131090,0,0
10,53,392.224241973963,1,0,9817.58111105209,9818.62819485733,3,1,1,21,31,227056422,229669621,151686124,196623593,20510719,40310009,30911919,21401019,20601309,21310619,42000319,30010509,0,31711909,30501909,30201919,21811419,30500119,20211409,31210319,22010209,11510409,21611009,10610919,-2031131,0,21210109,11811209,21400019,41511219,21500509,40010409,31600019,30400509,0,0,10301419,11400519,32010309,40900409
10,54,365.312391104453,0,0,9820.14588804806,9821.19297108337,3,1,0,19,19,73314356,147715155,74725376,155936194,21500009,0,10111109,0,10601719,0,0,31101519,0,0,21800809,0,0,32000309,41901309,30300909,21711819,0,-2000130,0,10400909,11411819,0,0,30510609,20401909,0,20701819,21100009,0,21400919,10210919,41211219,0,41311309,0
10,55,427.602539259169,1,0,9822.66360741614,9823.71069237625,3,0,1,32,19,177626975,85213757,137047194,96106156,0,40401409,0,0,0,11910909,41701819,41701519,41911319,11401519,0,0,0,31910219,0,0,0,41902019,31301019,0,20411919,11610309,40101919,22011719,11610309,0,0,0,11500519,20101219,10201719,-3081071,0,0,40410519,10811109
10,56,445.699939002225,0,0,9825.32252353545,9826.36959656178,3,1,0,34,19,134213456,115414455,165039184,76944126,0,0,31900109,31211309,30901119,40200919,0,0,0,31301309,0,11001509,21610109,20500519,0,0,0,31001009,40712009,0,21311009,0,0,40801719,41001509,10601319,10611619,30711609,0,21700209,0,11700709,11700509,-1131090,0,0
10,57,379.43275915859,0,0,9827.86377364228,9828.91084859341,3,1,0,9,19,86104567,125423965,103203147,156916103,31100219,0,0,0,20101919,0,10800009,21911309,-2191111,0,0,0,31201209,31600219,30311309,0,21410509,10900719,40201409,42000519,0,0,0,0,0,21001219,0,10400419,31800119,0,0,21500219,20501619,31001609,11600409,30111709
10,58,388.760748204732,0,0,9830.34618631581,9831.39333055991,3,0,0,3,9,33961440,10511309,103622127,103014756,0,0,-3050121,0,0,30911319,0,0,0,0,0,0,0,0,10511309,0,0,0,40610809,0,0,0,0,0,41701009,21310309,0,0,11000909,40800519,0,40301709,0,0,10911619,0
10,59,353.083336252894,1,0,9832.80508133927,9833.85216475954,3,1,1,10,3,80812018,4010001,0,30711009,40010809,0,0,40801209,0,0,0,0,0,-4010001,0,0,0,0,0,0,0,0,0,0,0,0,0,0,0,0,0,0,0,0,0,0,0,30711009,0,0
10,60,364.860061974468,1,0,9835.25227932392,9836.29929152641,3,0,1,18,3,0,3191141,31402328,10711119,0,0,0,0,0,0,0,0,0,0,0,0,0,0,0,0,0,-3191141,0,0,0,20900919,10501409,0,0,0,0,0,0,0,0,0,10711119,0,0,0
10,61,543.099681694002,0,0,9837.86405042921,9838.91112692019,3,1,0,31,31,266869351,248158511,167737793,167754044,10910819,21610119,10601419,41210509,41401519,30011519,30701209,40411619,40010619,20210509,31310009,40101319,41301909,20700209,21501209,21811109,10711219,40511019,30211909,31011309,0,11801009,11110409,40700119,21801219,21101819,0,30900009,11300019,31611609,-1130150,40710919,0,0,21601219,30500119
10,62,376.441612490453,0,1,9840.49942310607,9841.54650806618,3,0,1,7,0,0,0,0,0,0,0,0,0,0,0,-31810791,0,0,0,0,0,0,0,0,0,0,0,0,0,0,0,0,0,0,0,0,0,0,0,0,0,0,0,0,0
10,63,449.150729058601,0,0,9842.93478315621,9843.98186118702,3,1,0,27,3,0,61511318,21931309,0,0,0,0,0,0,0,0,0,0,0,0,0,0,0,41100509,0,20410809,0,20901209,0,0,0,0,0,0,0,-1030100,0,0,0,0,0,0,0,0,0
10,64,434.636545940521,1,0,9845.46427232071,9846.51135843571,3,0,1,36,9,71702028,82921118,41611028,72872588,0,0,0,40401719,0,0,0,31300309,0,41010909,0,0,41910209,0,0,0,0,0,0,0,0,0,0,30310519,11300509,0,0,20800719,20910409,0,0,0,30001419,0,0,-1160041
10,65,547.950959726222,1,0,9848.02904777683,9849.07616430374,3,0,1,25,31,179126003,197658842,221128444,207727121,32001609,30900219,21600619,0,11810009,41401219,30301719,0,11110609,21110519,21310719,21011909,30401219,20301619,20500919,21310619,41711319,0,41811509,41901709,0,31200919,11300209,21601709,-1091051,40210019,32011319,11800919,41300109,31310009,30701219,11800009,10500809,20301619,30000619,20011809
10,66,377.608044202134,0,0,9850.66441814392,9851.71150310404,3,0,0,8,19,94793478,122234746,154456265,187136313,21510219,0,0,30411509,40711719,0,0,-2160031,0,30311809,0,0,20512009,0,40900919,30510009,0,0,21511319,0,0,0,40210509,11611509,40611909,40511019,0,40911019,42000119,11101019,0,31010409,21601419,0,10001009,30511319
10,67,465.620898818088,0,0,9853.27625969707,9854.32334273238,3,0,0,4,19,116926016,93622637,144444084,156836084,0,0,40901119,-2100160,0,0,31410909,20501819,22012009,0,41600409,21011719,0,0,0,0,31010509,0,30100009,31111609,20210519,40310819,0,11810909,0,0,10900219,0,0,0,22001509,31810409,31411019,20001019,31411319,20200809
10,68,621.674063468163,0,0,9855.88811010432,9856.93520815311,3,1,0,35,9,61912038,60601728,32802028,74282147,0,20800319,0,0,0,0,41111719,0,0,0,0,40400419,0,0,0,20201309,0,0,21500109,0,0,11301919,0,0,0,0,0,0,0,0,0,31001019,22000719,20100409,-1180000,0
10,69,491.453704114974,0,1,9858.62935666951,9859.67644355442,3,0,1,20,3,0,0,13872620,32413628,0,0,0,0,0,0,0,0,0,0,0,0,0,0,0,0,0,0,0,-3071111,0,0,0,0,0,0,10801509,0,11301719,21111909,0,0,0,0,0,0
10,70,425.025225626086,1,0,9861.21766671398,9862.26474628465,3,0,1,26,9,20511809,10301609,67132818,94812566,0,20511809,0,0,0,0,0,0,0,10301609,0,0,0,0,0,0,0,0,0,21501409,31310809,0,0,10200409,0,-4120191,0,0,20901019,0,21300019,0,0,11601419,41010109,0
10,71,466.68647075785,1,0,9863.72362321494,9864.77070740513,3,0,1,13,31,179958612,178796043,267457831,168043884,20401809,12002019,41110109,11911709,12010019,0,21111809,41301019,20110119,41511509,10800709,11000019,-1060051,21000609,20610209,11911319,20000109,40901509,31900519,30311809,21410019,40000409,40011419,20510109,31501619,40710609,11101319,30710409,0,41710609,21511419,0,0,21200619,31200819,21710009
10,72,407.491793690497,0,0,9866.39428988263,9867.44137522771,3,0,0,15,3,0,22820609,43422728,0,0,0,0,0,0,0,0,0,0,0,0,0,0,0,-1120000,0,0,21700609,0,0,32010819,0,0,11411909,0,0,0,0,0,0,0,0,0,0,0,0
10,73,517.009722478178,0,0,9868.87671179522,9869.92379637038,3,1,0,12,9,74902846,94284557,20510719,30311209,22000609,21300719,0,21401309,0,0,0,0,10200209,0,0,-3050020,40711909,10410809,40111819,0,0,0,0,0,0,20510719,0,0,0,0,0,0,0,0,0,0,0,0,0,30311209
10,74,425.33126959097,1,0,9871.59444340506,9872.64152066595,3,0,1,29,31,188165693,269141612,227356912,240139852,31411509,0,31210919,31310009,10700109,32010209,31411919,20111019,0,31501219,31002009,0,31001209,40911409,31111109,40611219,31501619,31501819,30711109,40200119,20411009,0,41400719,42000319,11411209,30611709,10610719,41501119,-2191110,30710519,11411009,41910019,40901919,40701219,20501819,10311119
10,75,410.918331206631,0,0,9874.22981454207,9875.27689064809,3,1,0,7,3,1180180,21300319,11901609,11700109,0,0,0,0,0,0,-1180180,0,0,0,0,0,0,0,0,0,0,21300319,0,0,0,11901609,0,0,0,0,0,0,0,11700109,0,0,0,0,0,0
10,76,399.482680895744,1,0,9876.81811842718,9877.86520608202,3,1,1,14,0,0,0,0,0,0,0,0,0,0,0,0,0,0,0,0,0,0,-21601101,0,0,0,0,0,0,0,0,0,0,0,0,0,0,0,0,0,0,0,0,0,0
10,77,497.953000020061,0,0,9879.39465983011,9880.44174325038,3,1,0,1,9,24521700,73922437,0,115224655,-4010181,20511519,0,0,0,0,0,0,0,0,0,0,0,0,0,11700019,21511309,40711109,0,0,0,0,0,0,0,0,0,21401219,21200009,0,20901909,30511509,0,0,21210009,0
10,78,487.56482848512,1,0,9882.13596221464,9883.18300636889,3,1,1,28,31,205177412,229055622,209249503,262039793,31410709,0,10611019,40010009,40111219,10511809,40710319,20101719,11710609,11910009,31010609,0,42001019,31000419,40710919,31011219,10510319,30901109,31402009,11402009,31311119,31510819,0,0,31810319,41001619,30811609,-4091061,21501509,31111919,21010109,40801019,40411019,21501919,41210719,40400519
10,79,399.690174852367,0,0,9909.38377082437,9910.43086001905,4,0,0,26,3,0,84912037,2110031,0,0,0,0,0,0,0,0,0,0,31900319,11710809,0,41300909,0,0,0,0,0,0,0,0,0,0,0,0,-2110031,0,0,0,0,0,0,0,0,0,0
10,80,502.484760454536,0,0,9912.03090752323,9913.07799248335,4,1,0,28,31,205177412,229055622,209249503,262039793,31410709,0,10611019,40010009,40111219,10511809,40710319,20101719,11710609,11910009,31010609,0,42001019,31000419,40710919,31011219,10510319,30901109,31402009,11402009,31311119,31510819,0,0,31810319,41001619,30811609,-4091061,21501509,31111919,21010109,40801019,40411019,21501919,41210719,40400519
10,81,528.48579368947,0,0,9914.78393004422,9915.83100922992,4,1,0,31,31,266869351,248158511,167737793,167754044,10910819,21610119,10601419,41210509,41401519,30011519,30701209,40411619,40010619,20210509,31310009,40101319,41301909,20700209,21501209,21811109,10711219,40511019,30211909,31011309,0,11801009,11110409,40700119,21801219,21101819,0,30900009,11300019,31611609,-1130150,40710919,0,0,21601219,30500119
10,82,191.438613645005,1,0,9917.43106404836,9918.47814708367,4,0,1,20,31,229751821,207711131,157658034,240347513,21010109,21201119,30401509,10500619,21311309,41712009,10701919,41811309,31101919,21100919,10201509,10901609,30400819,11802019,40900809,10001619,41300009,31101819,20411509,-2010040,20601419,0,40800219,0,10311719,41611819,21911309,40501019,31810519,41810309,0,40500619,0,31802019,12011209,41911819
10,83,507.843417033655,0,0,9919.81936493077,9920.86645027584,4,0,0,18,9,93242236,2110131,10600709,135934456,41111209,0,0,10210009,0,30610009,0,0,11311009,0,0,0,0,0,0,0,0,-2110131,0,0,0,0,0,0,0,0,10600709,0,0,32011409,0,41710219,0,0,22001109,40211719
10,84,480.696739976338,1,1,9922.56062958912,9923.60770954474,4,1,0,35,9,61912038,60601728,32802028,74282147,0,20800319,0,0,0,0,41111719,0,0,0,0,40400419,0,0,0,20201309,0,0,21500109,0,0,11301919,0,0,0,0,0,0,0,0,0,31001019,22000719,20100409,-1180000,0
10,85,425.186524267701,0,0,9925.2430575841,9926.29014292917,4,1,0,19,19,73314356,147715155,74725376,155936194,21500009,0,10111109,0,10601719,0,0,31101519,0,0,21800809,0,0,32000309,41901309,30300909,21711819,0,-2000130,0,10400909,11411819,0,0,30510609,20401909,0,20701819,21100009,0,21400919,10210919,41211219,0,41311309,0
10,86,537.352599507358,1,0,9927.86645502463,9928.91375158402,4,0,1,4,31,179727633,275145602,177327412,214647302,0,10410509,21410609,-1191050,31001809,41201219,41400109,21411509,11700819,30011409,40301109,40000209,0,20310319,31210719,30810209,41101009,41400619,11600609,21411309,0,41501319,20910019,20400309,20201009,30301919,11000919,41301109,0,40811819,11010609,20300119,40010009,10111419,10601409,40500809
10,87,472.257625788188,1,0,9930.51380216789,9931.56088173855,4,0,1,13,19,145042655,135117636,144723075,105314546,0,31100609,0,0,11410819,20110809,41910309,40510109,0,0,21401409,40410719,-2181081,0,40401509,20111909,10611009,0,0,40110119,31400309,0,31701119,0,10900919,0,30610609,0,40601019,0,0,0,21811509,0,11701509,31200509
10,88,380.91254909159,1,0,9933.04335947048,9934.09043326673,4,1,1,27,3,0,61511318,21931309,0,0,0,0,0,0,0,0,0,0,0,0,0,0,0,41100509,0,20410809,0,20901209,0,0,0,0,0,0,0,-1030100,0,0,0,0,0,0,0,0,0
10,89,418.997891856634,1,0,9935.50218404608,9936.54929518354,4,1,1,9,19,86104567,125423965,103203147,156916103,31100219,0,0,0,20101919,0,10800009,21911309,-2191111,0,0,0,31201209,31600219,30311309,0,21410509,10900719,40201409,42000519,0,0,0,0,0,21001219,0,10400419,31800119,0,0,21500219,20501619,31001609,11600409,30111709
10,90,376.08667848508,1,0,9938.01989494502,9939.06698952916,4,0,1,29,3,53311028,0,41600419,1200010,0,0,0,0,0,11600709,0,0,41710319,0,0,0,0,0,0,0,0,0,41600419,0,0,0,0,0,0,0,0,0,-1200010,0,0,0,0,0,0,0
10,91,592.401631984103,1,0,9940.58467579059,9941.63176344544,4,0,1,25,9,94136065,21811509,32640209,62402428,0,32010109,20611609,10301519,0,20711919,10500909,0,0,21811509,0,0,0,0,0,0,0,0,0,0,31510009,0,0,0,-1130200,0,0,0,0,0,0,21901809,0,40500619,0,0
10,92,101.069797945456,0,0,9943.25534707782,9944.30243280786,4,1,0,7,3,1180180,21300319,11901609,11700109,0,0,0,0,0,0,-1180180,0,0,0,0,0,0,0,0,0,0,21300319,0,0,0,11901609,0,0,0,0,0,0,0,11700109,0,0,0,0,0,0
10,93,351.861470162476,0,0,9945.42018928617,9946.46720187362,4,1,0,14,0,0,0,0,0,0,0,0,0,0,0,0,0,0,0,0,0,0,-21601101,0,0,0,0,0,0,0,0,0,0,0,0,0,0,0,0,0,0,0,0,0,0
10,94,375.50076790103,0,0,9947.86730719894,9948.91439947331,4,1,0,21,31,227056422,229669621,151686124,196623593,20510719,40310009,30911919,21401019,20601309,21310619,42000319,30010509,0,31711909,30501909,30201919,21811419,30500119,20211409,31210319,22010209,11510409,21611009,10610919,-2031131,0,21210109,11811209,21400019,41511219,21500509,40010409,31600019,30400509,0,0,10301419,11400519,32010309,40900409
10,95,392.788209781429,1,0,9950.43202568084,9951.47914798217,4,0,1,3,3,35341739,31801419,11101119,0,0,0,-4130120,31211619,0,0,0,0,0,0,0,0,0,31801419,0,0,0,0,0,0,11101119,0,0,0,0,0,0,0,0,0,0,0,0,0,0,0
10,96,368.874049916485,1,0,9953.03213939831,9954.07924052678,4,1,1,10,3,80812018,4010001,0,30711009,40010809,0,0,40801209,0,0,0,0,0,-4010001,0,0,0,0,0,0,0,0,0,0,0,0,0,0,0,0,0,0,0,0,0,0,0,30711009,0,0
10,97,872.036504213611,1,0,9955.64394168544,9956.69102857036,4,0,1,36,31,239627092,180326493,224636192,199947633,30800319,41301709,11300519,31700109,40701609,40210909,0,32001409,11610509,11001919,0,31600719,21800619,21910109,31800009,0,42001509,20211609,41801309,11010719,30000009,30100609,30601209,20100719,30211609,0,30810009,21110109,21410209,11001619,40811509,32010919,31801119,30101919,10500119,-1200111
10,98,107.66841378063,0,0,9958.644084121,9959.69117755025,4,1,0,12,9,74902846,94284557,20510719,30311209,22000609,21300719,0,21401309,0,0,0,0,10200209,0,0,-3050020,40711909,10410809,40111819,0,0,0,0,0,0,20510719,0,0,0,0,0,0,0,0,0,0,0,0,0,30311209
10,99,372.614715575764,1,0,9960.83233426555,9961.87941807078,4,0,1,15,19,123914646,128636096,122623056,176225474,0,0,41001519,20501509,0,0,0,20810909,41600709,0,0,22010519,40301119,20402019,-4120201,20301219,0,21501019,0,21710419,0,0,40000709,30910819,0,0,30001109,21311109,41501009,40810809,0,0,0,20800609,11800619,40001319
10,100,402.41107892507,1,0,9963.43241102676,9964.47949406207,4,0,1,8,19,126194038,218344693,165036394,122122527,40300709,41001509,0,41701809,0,0,0,-3190011,0,0,41410509,0,21310619,31510619,11110709,41400509,31500719,40101009,41311519,10110219,41100109,0,30500709,30112019,0,0,11901819,0,0,41210009,0,0,40101409,0,0,40811109
10,101,411.989677559177,0,0,9965.97365959375,9967.0207372396,4,1,0,1,9,24521700,73922437,0,115224655,-4010181,20511519,0,0,0,0,0,0,0,0,0,0,0,0,0,11700019,21511309,40711109,0,0,0,0,0,0,0,0,0,21401219,21200009,0,20901909,30511509,0,0,21210009,0
10,102,570.418821260319,1,1,9968.58549537248,9969.63258456717,4,0,0,32,0,0,0,0,0,0,0,0,0,0,0,0,0,0,0,0,0,0,0,0,0,0,0,0,0,0,0,0,0,0,0,0,0,0,0,0,-10410301,0,0,0,0
10,103,568.143701981171,1,0,9971.29145680093,9972.33854676554,4,0,1,32,9,122427156,10600109,40322228,33562999,0,40111809,20412019,20801419,0,41101909,0,0,0,0,0,0,0,10600109,0,0,0,0,0,30211509,0,0,10110719,0,0,0,0,20801919,0,0,10700919,-2060161,0,0,0,0
10,104,501.204380298077,0,0,9974.09153887461,9975.13862152496,4,1,0,34,19,134213456,115414455,165039184,76944126,0,0,31900109,31211309,30901119,40200919,0,0,0,31301309,0,11001509,21610109,20500519,0,0,0,31001009,40712009,0,21311009,0,0,40801719,41001509,10601319,10611619,30711609,0,21700209,0,11700709,11700509,-1131090,0,0
10,105,678.143601890042,1,0,9998.2922371168,9999.33933555055,5,1,1,35,9,61912038,60601728,32802028,74282147,0,20800319,0,0,0,0,41111719,0,0,0,0,40400419,0,0,0,20201309,0,0,21500109,0,0,11301919,0,0,0,0,0,0,0,0,0,31001019,22000719,20100409,-1180000,0
10,106,647.680101195874,1,0,10001.0687969209,10002.1158788013,5,1,1,28,31,205177412,229055622,209249503,262039793,31410709,0,10611019,40010009,40111219,10511809,40710319,20101719,11710609,11910009,31010609,0,42001019,31000419,40710919,31011219,10510319,30901109,31402009,11402009,31311119,31510819,0,0,31810319,41001619,30811609,-4091061,21501509,31111919,21010109,40801019,40411019,21501919,41210719,40400519
10,107,407.389394076745,1,0,10003.8688805344,10004.915970114,5,1,1,10,3,80812018,4010001,0,30711009,40010809,0,0,40801209,0,0,0,0,0,-4010001,0,0,0,0,0,0,0,0,0,0,0,0,0,0,0,0,0,0,0,0,0,0,0,30711009,0,0
10,108,118.960088691892,0,1,10006.339596939,10007.3866303144,5,1,1,7,3,1180180,21300319,11901609,11700109,0,0,0,0,0,0,-1180180,0,0,0,0,0,0,0,0,0,0,21300319,0,0,0,11901609,0,0,0,0,0,0,0,11700109,0,0,0,0,0,0
10,109,441.885360838569,0,0,10008.5984312157,10009.6455673756,5,1,0,34,19,134213456,115414455,165039184,76944126,0,0,31900109,31211309,30901119,40200919,0,0,0,31301309,0,11001509,21610109,20500519,0,0,0,31001009,40712009,0,21311009,0,0,40801719,41001509,10601319,10611619,30711609,0,21700209,0,11700709,11700509,-1131090,0,0
10,110,604.672647579719,0,0,10011.233799273,10012.2808919323,5,0,0,25,31,157427613,216246302,227307592,208234982,20802009,21500419,11311909,22002019,0,31400219,0,20110919,30300119,31600519,21700919,40400109,20611209,10111309,40711619,20610309,30500309,0,30811219,21300219,10010009,21102019,30511709,40310609,-2141090,30210509,40910209,21300109,31310519,20111309,30300909,32011209,30500509,22000009,0,20700409
10,111,509.903728097925,1,0,10013.9515362723,10014.9986019843,5,0,1,3,3,3010051,62334047,0,0,0,0,-3010051,0,0,0,0,0,0,0,20311919,0,10211209,31810919,0,0,0,0,0,0,0,0,0,0,0,0,0,0,0,0,0,0,0,0,0,0
10,112,467.784764381577,1,0,10016.5516315116,10017.5986899094,5,1,1,19,19,73314356,147715155,74725376,155936194,21500009,0,10111109,0,10601719,0,0,31101519,0,0,21800809,0,0,32000309,41901309,30300909,21711819,0,-2000130,0,10400909,11411819,0,0,30510609,20401909,0,20701819,21100009,0,21400919,10210919,41211219,0,41311309,0
10,113,626.576926268172,0,0,10019.2575667627,10020.3046528777,5,1,0,31,31,266869351,248158511,167737793,167754044,10910819,21610119,10601419,41210509,41401519,30011519,30701209,40411619,40010619,20210509,31310009,40101319,41301909,20700209,21501209,21811109,10711219,40511019,30211909,31011309,0,11801009,11110409,40700119,21801219,21101819,0,30900009,11300019,31611609,-1130150,40710919,0,0,21601219,30500119
10,114,438.162403384922,1,0,10022.0341103984,10023.0811942037,5,0,1,26,9,30210709,103813637,44062939,101723547,30210709,0,0,0,0,0,0,0,0,20201609,41600419,0,0,0,0,42011609,0,0,21611509,0,0,0,0,0,20411309,-2040121,0,40910719,0,30310919,0,0,30501909,0,0,0
10,115,443.77051466472,0,0,10024.7165549467,10025.7636352873,5,0,0,15,19,125432985,108145745,75615666,154313685,0,21010119,41000109,11700619,10212019,0,41510119,0,0,30111909,30811909,11710119,0,0,-4001170,20910519,10600119,0,11710719,0,0,30901919,11001509,0,0,22001519,0,40000619,40300419,0,20411119,31600809,0,22000719,0,0
10,116,375.354097774107,0,0,10027.3989779372,10028.4460621274,5,1,0,14,0,0,0,0,0,0,0,0,0,0,0,0,0,0,0,0,0,0,-21601101,0,0,0,0,0,0,0,0,0,0,0,0,0,0,0,0,0,0,0,0,0,0
10,117,426.878042731914,0,0,10029.8343726338,10030.8814799217,5,1,0,21,31,227056422,229669621,151686124,196623593,20510719,40310009,30911919,21401019,20601309,21310619,42000319,30010509,0,31711909,30501909,30201919,21811419,30500119,20211409,31210319,22010209,11510409,21611009,10610919,-2031131,0,21210109,11811209,21400019,41511219,21500509,40010409,31600019,30400509,0,0,10301419,11400519,32010309,40900409
10,118,930.572128114363,1,1,10032.4814773809,10033.5285642659,5,0,0,18,31,126037004,209978763,196347741,188346812,20810019,21601619,0,0,11100519,0,10412019,41401619,20711209,40202009,10601309,31311609,41001319,30500819,10400609,11510119,31400819,-3050151,31400309,20010309,10000719,40200509,10811419,42001719,10110519,21711119,10101119,10700309,21600309,21810909,30710219,20701309,31511119,10910819,0,40401819
10,119,697.22958138118,1,0,10035.6227576687,10036.6698360845,5,0,1,36,31,176347393,306437931,248966922,202107534,10110019,11901009,40611819,0,30501209,40811209,11900319,0,30511809,11400819,21400309,40301509,40300019,40701219,40010719,40110609,41501509,30711219,20810319,10911019,41710719,41211819,31710209,30700819,31100309,0,40811709,11112019,20801509,41901309,21111319,31800619,0,40200009,31100719,-4080031
10,120,527.97841514257,1,0,10038.5051863566,10039.5522697769,5,0,1,4,9,46671959,0,126003256,83512137,0,0,10800919,-4061021,0,0,0,31810019,0,0,0,0,0,0,0,0,0,0,31501719,0,0,41500209,0,0,0,11901009,41100319,0,31201819,31810209,0,0,0,0,20500109,0
10,121,424.687999824528,0,0,10041.2582504534,10042.3052980723,5,0,0,8,9,67063599,0,105722456,63123447,0,21200609,0,0,41711819,0,0,-4151171,0,0,0,0,0,0,0,0,0,0,0,31800009,0,10310919,0,0,41700509,21911019,0,0,0,0,11802019,30710909,0,20610519,0,0
10,122,682.772372487307,0,0,10043.8229904931,10044.870264854,5,0,0,36,0,0,0,0,0,0,0,0,0,0,0,0,0,0,0,0,0,0,0,0,0,0,0,0,0,0,0,0,0,0,0,0,0,0,0,0,0,0,0,0,-10900091
10,123,570.550092948906,1,0,10046.5995449077,10047.6466237085,5,1,1,1,9,24521700,73922437,0,115224655,-4010181,20511519,0,0,0,0,0,0,0,0,0,0,0,0,0,11700019,21511309,40711109,0,0,0,0,0,0,0,0,0,21401219,21200009,0,20901909,30511509,0,0,21210009,0
10,124,558.757583827173,1,0,10049.3643260613,10050.4114102515,5,0,1,20,19,235453394,143037475,87153836,124833066,41600709,0,41810719,0,40810519,40310219,30510509,40410719,0,41111119,0,30402019,0,30111519,0,20201209,0,21211609,0,-4030170,20010919,0,10801219,10401019,0,41910509,0,0,0,30610519,0,31801819,30710109,31710619,0,0
10,125,396.287119956469,1,0,10052.046756751,10053.0938455607,5,0,1,29,3,0,11110719,32611028,4200050,0,0,0,0,0,0,0,0,0,0,0,11110719,0,0,0,0,0,0,10600319,0,0,0,0,22010709,0,0,0,0,-4200050,0,0,0,0,0,0,0
10,126,382.947067771966,0,0,10054.63512069,10055.6821606097,5,1,0,9,19,86104567,125423965,103203147,156916103,31100219,0,0,0,20101919,0,10800009,21911309,-2191111,0,0,0,31201209,31600219,30311309,0,21410509,10900719,40201409,42000519,0,0,0,0,0,21001219,0,10400419,31800119,0,0,21500219,20501619,31001609,11600409,30111709
10,127,372.776399179202,0,1,10057.0939622039,10058.1411006735,5,0,1,13,19,137536373,54894387,73015647,178425994,20311409,21001809,0,21300219,11310609,21000709,11010709,0,31600909,0,0,0,-2070160,20311909,0,20710509,11801809,0,0,0,0,0,11301819,41101809,0,0,20612019,22001019,0,42001019,0,40601819,31810009,0,31910209,10101919
10,128,418.639108242132,0,0,10059.5881681564,10060.635238873,5,1,0,27,3,0,61511318,21931309,0,0,0,0,0,0,0,0,0,0,0,0,0,0,0,41100509,0,20410809,0,20901209,0,0,0,0,0,0,0,-1030100,0,0,0,0,0,0,0,0,0
10,129,486.437277830191,0,0,10062.0823502414,10063.1294348166,5,0,0,32,3,41222218,11700709,0,2100011,0,0,20910609,0,0,0,0,20311609,0,0,0,0,0,0,0,0,11700709,0,0,0,0,0,0,0,0,0,0,0,0,0,0,-2100011,0,0,0,0
10,130,745.554115790583,0,0,10064.7412505773,10065.7883347675,5,1,0,12,9,74902846,94284557,20510719,30311209,22000609,21300719,0,21401309,0,0,0,0,10200209,0,0,-3050020,40711909,10410809,40111819,0,0,0,0,0,0,20510719,0,0,0,0,0,0,0,0,0,0,0,0,0,30311209
10,131,552.207473074304,0,0,10099.2363692724,10100.2834623167,6,0,0,4,19,52083608,43023947,198147193,166438203,0,0,0,-1061170,0,30810419,20212019,0,0,10510719,0,0,0,11311619,0,21201609,0,0,31200409,31301609,0,21210919,31910509,0,40511919,30911109,11100719,31701419,20701409,41600809,10011819,0,10610519,40800719,11011509,0
10,132,528.430744272555,0,0,10101.8599786971,10102.907065582,6,1,0,1,9,24521700,73922437,0,115224655,-4010181,20511519,0,0,0,0,0,0,0,0,0,0,0,0,0,11700019,21511309,40711109,0,0,0,0,0,0,0,0,0,21401219,21200009,0,20901909,30511509,0,0,21210009,0
10,133,479.47756861322,1,0,10104.4718202503,10105.5189079051,6,1,1,7,3,1180180,21300319,11901609,11700109,0,0,0,0,0,0,-1180180,0,0,0,0,0,0,0,0,0,0,21300319,0,0,0,11901609,0,0,0,0,0,0,0,11700109,0,0,0,0,0,0
10,134,534.80762259278,0,0,10107.1424923074,10108.1895976705,6,0,0,26,31,244240521,298428922,147667184,206725603,11510409,11900719,31300619,31601219,41111809,21400109,31612009,21901609,41902019,41411719,41400219,41001409,40600919,30601619,32001209,40201419,0,31210409,10611619,11200619,0,20701109,11411309,31210719,30510619,-2011171,30010019,41100219,41110709,11401909,30000119,30301209,0,0,41810419,11001019
10,135,514.095952961725,0,0,10109.8131562804,10110.8602408555,6,1,0,12,9,74902846,94284557,20510719,30311209,22000609,21300719,0,21401309,0,0,0,0,10200209,0,0,-3050020,40711909,10410809,40111819,0,0,0,0,0,0,20510719,0,0,0,0,0,0,0,0,0,0,0,0,0,30311209
10,136,421.583289671617,1,0,10112.4838264127,10113.5309044435,6,1,1,27,3,0,61511318,21931309,0,0,0,0,0,0,0,0,0,0,0,0,0,0,0,41100509,0,20410809,0,20901209,0,0,0,0,0,0,0,-1030100,0,0,0,0,0,0,0,0,0
10,137,491.520687321099,1,0,10114.9897713649,10116.0368632543,6,0,1,3,9,44700319,0,105417585,72913747,0,0,-3000000,0,0,41700319,0,0,0,0,0,0,0,0,0,0,0,0,11002019,0,21011819,41300819,21701219,0,0,10401709,0,10600909,0,0,0,31411719,30901119,0,0,0
10,138,436.243372994795,1,0,10117.6369099885,10118.6840018779,6,0,1,13,31,222468712,190506823,170048312,219448013,31611919,30600909,31711519,41300919,22010909,21811109,0,31810119,11611309,11800909,31010619,21810109,-1161111,21711719,10700209,20300919,31000819,41010409,0,10701019,31712019,10510909,11600809,21601009,11210619,41910209,30801719,32011419,30300919,0,0,41610019,32001819,21612019,21911109,40000709
10,139,447.347571915088,0,0,10120.2369886745,10121.2840747895,6,0,0,3,0,0,0,0,0,0,0,-30211891,0,0,0,0,0,0,0,0,0,0,0,0,0,0,0,0,0,0,0,0,0,0,0,0,0,0,0,0,0,0,0,0,0
10,140,597.568962964942,1,0,10122.9076599618,10123.9547406873,6,0,1,25,9,61111438,113534756,24201510,32121738,0,30800219,0,0,0,30311219,0,0,0,0,0,0,0,30610919,30611719,0,30701109,21611009,0,0,0,0,0,0,-4191001,0,20010509,0,0,10910619,0,0,0,0,21211119,0
10,141,532.321544706065,0,0,10125.6018562133,10126.6489407885,6,1,0,34,19,134213456,115414455,165039184,76944126,0,0,31900109,31211309,30901119,40200919,0,0,0,31301309,0,11001509,21610109,20500519,0,0,0,31001009,40712009,0,21311009,0,0,40801719,41001509,10601319,10611619,30711609,0,21700209,0,11700709,11700509,-1131090,0,0
10,142,421.642573659483,0,0,10128.3783994641,10129.425486734,6,1,0,9,19,86104567,125423965,103203147,156916103,31100219,0,0,0,20101919,0,10800009,21911309,-2191111,0,0,0,31201209,31600219,30311309,0,21410509,10900719,40201409,42000519,0,0,0,0,0,21001219,0,10400419,31800119,0,0,21500219,20501619,31001609,11600409,30111709
10,143,418.23220450533,1,1,10131.049073446,10132.0961526317,6,1,0,35,9,61912038,60601728,32802028,74282147,0,20800319,0,0,0,0,41111719,0,0,0,0,40400419,0,0,0,20201309,0,0,21500109,0,0,11301919,0,0,0,0,0,0,0,0,0,31001019,22000719,20100409,-1180000,0
10,144,479.046797297997,1,0,10133.7079780165,10134.7550610518,6,1,1,19,19,73314356,147715155,74725376,155936194,21500009,0,10111109,0,10601719,0,0,31101519,0,0,21800809,0,0,32000309,41901309,30300909,21711819,0,-2000130,0,10400909,11411819,0,0,30510609,20401909,0,20701819,21100009,0,21400919,10210919,41211219,0,41311309,0
10,145,390.650136603654,1,0,10136.2374606367,10137.2845417472,6,0,1,20,3,53012418,30202019,2070010,0,0,0,21211609,0,31800809,0,0,0,0,0,0,0,0,0,30202019,0,0,0,0,-2070010,0,0,0,0,0,0,0,0,0,0,0,0,0,0,0,0
10,146,930.345771070279,0,0,10138.7787072789,10139.8257914691,6,0,0,29,31,165045894,276768911,220325902,200850032,0,31000619,0,30211619,40211109,11111819,31010419,0,21500309,20011619,11511109,20400109,31000419,41610819,30111809,40901109,41011109,40210809,30702019,32000109,21301619,0,30910709,12001309,41300119,31810009,20300009,10310919,-3010190,41500819,22002019,21700219,20711909,30501019,40311019,10801919
10,147,531.302168081311,1,0,10141.7787996695,10142.8258827048,6,0,1,18,19,101923737,54711088,170437383,116524484,40411919,0,30101009,0,0,0,0,0,31410809,11000119,0,20700609,0,21810319,0,0,0,-1200041,11810609,31800019,31911019,10901309,0,41701109,21901509,0,20411809,31310309,41601219,11201809,0,0,11900519,10210609,10300019,0
10,148,495.736394806954,0,0,10144.4142285507,10145.4612499922,6,1,0,21,31,227056422,229669621,151686124,196623593,20510719,40310009,30911919,21401019,20601309,21310619,42000319,30010509,0,31711909,30501909,30201919,21811419,30500119,20211409,31210319,22010209,11510409,21611009,10610919,-2031131,0,21210109,11811209,21400019,41511219,21500509,40010409,31600019,30400509,0,0,10301419,11400519,32010309,40900409
10,149,406.099774856557,0,0,10147.1318943322,10148.1789769825,6,0,0,15,3,0,4041191,81602328,41510519,0,0,0,0,0,0,0,0,0,0,0,0,0,0,-4041191,0,0,0,40500719,0,0,41101609,0,0,0,0,0,0,0,0,0,0,41510519,0,0,0
10,150,395.624987104384,1,0,10149.661380417,10150.7084634523,6,1,1,14,0,0,0,0,0,0,0,0,0,0,0,0,0,0,0,0,0,0,-21601101,0,0,0,0,0,0,0,0,0,0,0,0,0,0,0,0,0,0,0,0,0,0
10,151,503.211181789084,1,0,10152.143808104,10153.1908857498,6,0,1,36,9,20300009,0,126134166,114644676,0,0,0,20300009,0,0,0,0,0,0,0,0,0,0,0,0,0,0,31611319,31210119,0,41501419,0,21811309,0,0,0,31110619,0,30101209,40810519,0,0,10511209,0,-2111120
10,152,434.198460367043,1,0,10154.7085808654,10155.7556685202,6,1,1,28,31,205177412,229055622,209249503,262039793,31410709,0,10611019,40010009,40111219,10511809,40710319,20101719,11710609,11910009,31010609,0,42001019,31000419,40710919,31011219,10510319,30901109,31402009,11402009,31311119,31510819,0,0,31810319,41001619,30811609,-4091061,21501509,31111919,21010109,40801019,40411019,21501919,41210719,40400519
10,153,470.965696802523,1,0,10157.3439600866,10158.3910958615,6,0,1,8,3,35102518,0,40201819,0,21600609,0,0,0,0,0,0,-3001000,10500909,0,0,0,0,0,0,0,0,0,0,0,0,0,0,0,40201819,0,0,0,0,0,0,0,0,0,0,0
10,154,715.219961977709,1,0,10159.9087359277,10160.9558239675,6,1,1,31,31,266869351,248158511,167737793,167754044,10910819,21610119,10601419,41210509,41401519,30011519,30701209,40411619,40010619,20210509,31310009,40101319,41301909,20700209,21501209,21811109,10711219,40511019,30211909,31011309,0,11801009,11110409,40700119,21801219,21101819,0,30900009,11300019,31611609,-1130150,40710919,0,0,21601219,30500119
10,155,668.957663436231,0,0,10162.7088268554,10163.7559002667,6,0,0,32,19,92023757,178947603,126035075,136882107,0,0,31011719,0,0,0,30401519,30610519,0,11410509,0,20602019,22000109,41200819,10110909,0,31711919,41911319,30601319,30810619,0,21910609,21101409,0,0,21611119,0,0,31210119,30710619,0,-4050041,0,30100009,40811319,0
10,156,461.925273591987,0,0,10165.5560208365,10166.6030449728,6,1,0,10,3,80812018,4010001,0,30711009,40010809,0,0,40801209,0,0,0,0,0,-4010001,0,0,0,0,0,0,0,0,0,0,0,0,0,0,0,0,0,0,0,0,0,0,0,30711009,0,0
10,157,417.470366764974,1,0,10188.4389830803,10189.4860680404,7,1,1,27,3,0,61511318,21931309,0,0,0,0,0,0,0,0,0,0,0,0,0,0,0,41100509,0,20410809,0,20901209,0,0,0,0,0,0,0,-1030100,0,0,0,0,0,0,0,0,0
10,158,542.999591845728,1,0,10190.9214123071,10191.9685053514,7,0,1,36,9,0,33114447,73423447,105542527,0,0,0,0,0,0,0,0,0,0,0,0,11601919,10911009,0,0,0,10601519,31001819,0,0,0,0,11710409,0,30711219,0,0,0,0,0,41910619,0,30010219,30510619,-3111070
10,159,584.792108666079,1,0,10193.6626654167,10194.7097492219,7,0,1,3,19,186924925,186417084,73323037,105015466,0,10500409,-2091041,31701109,30100909,0,42010219,40010619,30510619,30600909,0,0,31700409,41902009,20311819,0,40600419,21301519,21701919,0,0,0,0,10810409,40810709,0,0,40501309,0,0,11601419,31801919,0,21110819,0,0
10,160,389.891763508786,0,0,10196.4745161319,10197.5215964725,7,0,0,25,9,62922857,0,32801990,116035575,0,0,0,0,0,11400419,0,21211119,30311319,0,0,0,0,0,0,0,0,0,0,0,31711819,0,0,0,-1090171,0,0,21011519,21700509,20101919,0,31311419,0,21910209,0,0
10,161,435.722905773218,1,0,10199.0158220581,10200.0628450395,7,1,1,35,9,61912038,60601728,32802028,74282147,0,20800319,0,0,0,0,41111719,0,0,0,0,40400419,0,0,0,20201309,0,0,21500109,0,0,11301919,0,0,0,0,0,0,0,0,0,31001019,22000719,20100409,-1180000,0
10,162,568.475923289952,0,0,10201.7099640301,10202.7570439857,7,1,0,1,9,24521700,73922437,0,115224655,-4010181,20511519,0,0,0,0,0,0,0,0,0,0,0,0,0,11700019,21511309,40711109,0,0,0,0,0,0,0,0,0,21401219,21200009,0,20901909,30511509,0,0,21210009,0
10,163,604.73000676393,0,0,10204.4865138252,10205.5336445957,7,1,0,28,31,205177412,229055622,209249503,262039793,31410709,0,10611019,40010009,40111219,10511809,40710319,20101719,11710609,11910009,31010609,0,42001019,31000419,40710919,31011219,10510319,30901109,31402009,11402009,31311119,31510819,0,0,31810319,41001619,30811609,-4091061,21501509,31111919,21010109,40801019,40411019,21501919,41210719,40400519
10,164,591.940063792208,1,0,10207.1454099265,10208.1924948867,7,0,1,29,19,113621666,166747294,93433136,126666606,0,0,11900009,0,0,0,30310519,30300419,41110719,0,11811819,0,41111709,20300909,0,40011519,41500819,12010519,30000009,0,0,0,20110709,11511609,0,31810809,0,11411109,-2110141,41611219,20111809,0,21011609,0,0,30410719
10,165,391.063199713244,1,0,10209.8513759745,10210.8984532354,7,1,1,21,31,227056422,229669621,151686124,196623593,20510719,40310009,30911919,21401019,20601309,21310619,42000319,30010509,0,31711909,30501909,30201919,21811419,30500119,20211409,31210319,22010209,11510409,21611009,10610919,-2031131,0,21210109,11811209,21400019,41511219,21500509,40010409,31600019,30400509,0,0,10301419,11400519,32010309,40900409
10,166,500.410205835578,0,0,10212.4279204572,10213.4750042624,7,0,0,4,9,45086387,31211519,61201638,72520837,22002019,0,0,-2171140,10511719,10401509,0,0,0,0,0,0,31211519,0,0,0,0,0,0,0,0,30301319,0,0,0,0,30900319,0,11810119,0,0,0,0,0,40310409,20400309
10,167,537.588195615172,0,0,10215.1456505271,10216.1927343324,7,0,0,26,31,209016941,178047083,259286982,189855013,30601119,11300809,31311019,12000719,10101009,11101509,30200219,40700119,31700419,41200709,0,11011609,30400509,0,11611209,31611119,11901709,40310219,30711709,21111409,10711319,41800109,41310409,40200319,31600009,-1040090,40801609,21710509,31510519,21410619,0,0,11900219,21711809,40510019,41101319
10,168,407.658481786711,1,0,10217.8045527879,10218.8516408277,7,1,1,9,19,86104567,125423965,103203147,156916103,31100219,0,0,0,20101919,0,10800009,21911309,-2191111,0,0,0,31201209,31600219,30311309,0,21410509,10900719,40201409,42000519,0,0,0,0,0,21001219,0,10400419,31800119,0,0,21500219,20501619,31001609,11600409,30111709
10,169,420.232076699904,1,0,10220.2869716208,10221.3340619703,7,0,1,8,3,1080121,0,20301619,51611328,0,0,0,0,0,0,0,-1080121,0,0,0,0,0,0,0,0,0,0,0,0,0,0,20301619,0,0,0,0,0,0,0,0,0,11210119,0,40401209,0
10,170,591.807252259969,0,0,10222.8752882096,10223.9224312988,7,1,0,12,9,74902846,94284557,20510719,30311209,22000609,21300719,0,21401309,0,0,0,0,10200209,0,0,-3050020,40711909,10410809,40111819,0,0,0,0,0,0,20510719,0,0,0,0,0,0,0,0,0,0,0,0,0,30311209
10,171,448.899734512452,1,0,10225.6283122704,10226.6754380364,7,1,1,7,3,1180180,21300319,11901609,11700109,0,0,0,0,0,0,-1180180,0,0,0,0,0,0,0,0,0,0,21300319,0,0,0,11901609,0,0,0,0,0,0,0,11700109,0,0,0,0,0,0
10,172,1006.57227593911,0,0,10228.3225073671,10229.369584628,7,0,0,32,31,155736164,250619532,270477111,143049453,30301709,0,31610909,40500119,21611909,0,21510009,10201509,0,31701519,40702009,31600119,11801419,31401219,0,20601119,41600609,41211519,31811709,41810709,31311609,30610119,10200119,40511109,21100709,31210909,31910119,22011319,10701909,41910709,10501009,-2080041,11811109,11711319,10611719,21710319
10,173,646.559479837379,0,0,10231.4284767257,10232.4755620708,7,1,0,31,31,266869351,248158511,167737793,167754044,10910819,21610119,10601419,41210509,41401519,30011519,30701209,40411619,40010619,20210509,31310009,40101319,41301909,20700209,21501209,21811109,10711219,40511019,30211909,31011309,0,11801009,11110409,40700119,21801219,21101819,0,30900009,11300019,31611609,-1130150,40710919,0,0,21601219,30500119
10,174,410.96067691069,1,0,10234.2050280607,10235.2521141757,7,0,1,15,31,251057751,202396414,189928903,214560012,40511019,30500219,21900619,21101219,21611409,31510119,10510419,42001519,31411209,0,42000409,10610019,41000519,42011219,-4161101,10201019,30800219,21611909,0,31701209,32001309,10710719,0,11500919,31011219,31301619,41701909,0,40602019,20010309,20611519,40010209,10212019,30401909,31910409,20801619
10,175,411.200122629452,1,0,10236.7227501235,10237.7698339287,7,1,1,10,3,80812018,4010001,0,30711009,40010809,0,0,40801209,0,0,0,0,0,-4010001,0,0,0,0,0,0,0,0,0,0,0,0,0,0,0,0,0,0,0,0,0,0,0,30711009,0,0
10,176,369.129279033587,0,0,10239.2640002303,10240.3110801859,7,0,0,20,19,166236803,92835556,148675956,103403837,10801709,31811809,0,10600019,0,30600219,40711319,10310019,31401709,10911919,0,0,0,0,40010309,0,30702009,11211319,0,-4150181,10501709,10111819,40800219,41701219,0,0,41410809,0,0,0,0,21301909,0,41201219,0,40900709
10,177,362.585327655324,1,0,10241.8523160492,10242.8994252619,7,0,1,10,0,0,0,0,0,0,0,0,0,0,0,0,0,0,-11010291,0,0,0,0,0,0,0,0,0,0,0,0,0,0,0,0,0,0,0,0,0,0,0,0,0,0
10,178,369.483828078955,0,0,10244.2876818737,10245.3347622143,7,1,0,14,0,0,0,0,0,0,0,0,0,0,0,0,0,0,0,0,0,0,-21601101,0,0,0,0,0,0,0,0,0,0,0,0,0,0,0,0,0,0,0,0,0,0
10,179,451.125193827465,0,0,10246.723040384,10247.7701203397,7,1,0,19,19,73314356,147715155,74725376,155936194,21500009,0,10111109,0,10601719,0,0,31101519,0,0,21800809,0,0,32000309,41901309,30300909,21711819,0,-2000130,0,10400909,11411819,0,0,30510609,20401909,0,20701819,21100009,0,21400919,10210919,41211219,0,41311309,0
10,180,510.404947268398,0,0,10249.405468764,10250.4525629632,7,0,0,18,3,41700319,4191091,11502009,21110609,0,0,0,0,0,0,41700319,0,0,0,0,0,0,0,0,0,0,-4191091,0,0,0,0,0,0,0,11502009,0,0,0,0,0,0,0,0,21110609,0
10,181,392.036765984813,1,0,10251.9938396323,10253.0408741625,7,0,1,13,3,21101209,36091040,41110419,0,0,0,0,21101209,0,0,0,0,0,0,0,0,-4091021,0,0,0,0,32000019,0,0,0,0,41110419,0,0,0,0,0,0,0,0,0,0,0,0,0
10,182,615.358008977637,0,0,10254.4644413186,10255.511533208,7,1,0,34,19,134213456,115414455,165039184,76944126,0,0,31900109,31211309,30901119,40200919,0,0,0,31301309,0,11001509,21610109,20500519,0,0,0,31001009,40712009,0,21311009,0,0,40801719,41001509,10601319,10611619,30711609,0,21700209,0,11700709,11700509,-1131090,0,0
10,183,441.72483211878,0,0,10283.6417612666,10284.6888520011,8,0,0,32,9,0,81512428,118007065,24742319,0,0,0,0,0,0,0,0,0,0,40311909,0,0,0,0,0,41200519,0,31801609,12001409,31400609,0,0,0,31901519,10901919,0,0,0,0,0,-1130181,0,0,11911319,11700819
10,184,344.386683180346,1,0,10286.2183157582,10287.2653984085,8,1,1,10,3,80812018,4010001,0,30711009,40010809,0,0,40801209,0,0,0,0,0,-4010001,0,0,0,0,0,0,0,0,0,0,0,0,0,0,0,0,0,0,0,0,0,0,0,30711009,0,0
10,185,374.041765857328,1,0,10288.712509007,10289.7595905025,8,1,1,12,9,74902846,94284557,20510719,30311209,22000609,21300719,0,21401309,0,0,0,0,10200209,0,0,-3050020,40711909,10410809,40111819,0,0,0,0,0,0,20510719,0,0,0,0,0,0,0,0,0,0,0,0,0,30311209
10,186,505.737680576203,1,0,10291.1949305347,10292.2420154948,8,0,1,13,19,104304666,34523569,135722785,240867792,11301319,0,10900319,0,0,0,40801009,0,41302019,0,11510619,0,-1111041,21901909,0,0,0,0,31610919,0,0,0,0,21600709,10000619,41800119,30710419,41601109,41710809,30601409,21710009,21310119,0,30911919,11311309,41711109
10,187,479.104541442211,1,0,10293.8185422692,10294.8656160654,8,0,1,36,19,142822466,196747174,143437475,64615677,0,41101019,0,0,20100019,40210819,0,41410609,0,30111709,41400019,0,0,0,31812009,31801309,31211619,30410509,10802019,30011209,0,41111419,20900819,40612009,0,0,0,21601309,20300609,11711619,0,0,0,0,10002009,-1000131
10,188,434.223867790934,1,0,10296.5362627152,10297.58335037,8,0,1,4,3,55211539,40802019,0,0,0,0,0,-3010101,0,0,30501419,21700019,0,40802019,0,0,0,0,0,0,0,0,0,0,0,0,0,0,0,0,0,0,0,0,0,0,0,0,0,0
10,189,469.483597102226,1,0,10299.1598748347,10300.2069582549,8,0,1,8,19,25042129,165759293,145454284,74224856,0,10110919,11801209,0,0,0,0,-3130001,0,21912019,0,31610119,10301909,0,10811809,40001809,10211419,40910209,30411209,30910009,0,20110219,10910509,21901519,0,0,31210819,0,21210619,30911419,11600809,10502009,0,0,0,0
10,190,96.1911876856902,0,0,10301.8658366481,10302.9129185285,8,1,0,7,3,1180180,21300319,11901609,11700109,0,0,0,0,0,0,-1180180,0,0,0,0,0,0,0,0,0,0,21300319,0,0,0,11901609,0,0,0,0,0,0,0,11700109,0,0,0,0,0,0
10,191,401.869053892369,0,0,10304.0776691161,10305.1247733243,8,0,0,3,3,2031001,0,81722827,0,0,0,-2031001,0,0,0,0,0,0,0,0,0,0,0,0,0,0,0,0,0,0,0,0,30010509,0,30910609,20801709,0,0,0,0,0,0,0,0,0
10,192,718.018628163918,0,0,10306.7012712267,10307.748354262,8,1,0,31,31,266869351,248158511,167737793,167754044,10910819,21610119,10601419,41210509,41401519,30011519,30701209,40411619,40010619,20210509,31310009,40101319,41301909,20700209,21501209,21811109,10711219,40511019,30211909,31011309,0,11801009,11110409,40700119,21801219,21101819,0,30900009,11300019,31611609,-1130150,40710919,0,0,21601219,30500119
10,193,387.101566462661,1,0,10309.5013617695,10310.5484317161,8,1,1,21,31,227056422,229669621,151686124,196623593,20510719,40310009,30911919,21401019,20601309,21310619,42000319,30010509,0,31711909,30501909,30201919,21811419,30500119,20211409,31210319,22010209,11510409,21611009,10610919,-2031131,0,21210109,11811209,21400019,41511219,21500509,40010409,31600019,30400509,0,0,10301419,11400519,32010309,40900409
10,194,674.174654383023,0,0,10312.0661283715,10313.1132137166,8,0,0,26,31,160734232,206641792,150686003,220028912,0,21310119,11101509,11300319,40200419,31410519,11500609,12010319,21900419,10301719,10001909,40200809,21710409,0,41912009,10101819,41411509,31001609,11601619,0,21700219,20211109,11010419,21710519,40000719,-4050190,20401209,0,21901809,32000409,42010219,30701309,40900619,10701619,30101209,11711719
10,195,356.445200326561,0,0,10314.9250382544,10315.9721243694,8,1,0,14,0,0,0,0,0,0,0,0,0,0,0,0,0,0,0,0,0,0,-21601101,0,0,0,0,0,0,0,0,0,0,0,0,0,0,0,0,0,0,0,0,0,0
10,196,407.782054255222,1,0,10317.3604071587,10318.4075213758,8,1,1,9,19,86104567,125423965,103203147,156916103,31100219,0,0,0,20101919,0,10800009,21911309,-2191111,0,0,0,31201209,31600219,30311309,0,21410509,10900719,40201409,42000519,0,0,0,0,0,21001219,0,10400419,31800119,0,0,21500219,20501619,31001609,11600409,30111709
10,197,1169.12627633792,0,0,10320.0193071096,10321.0663843705,8,0,0,18,31,156947074,218898382,197147102,227667311,40611409,11910709,11611819,32001509,0,0,40400019,20411609,0,10501519,40501019,31200509,30810209,20601809,41410219,20910209,20911719,-2051170,40810119,11900009,0,30401519,10410709,30911609,10802019,20810909,41100209,31200209,30310319,10411309,21011509,30401019,31910809,21010009,21201219,30210909
10,198,552.345289099321,0,0,10323.3017487322,10324.3488348472,8,0,0,25,9,63422347,52811837,3101011,72312227,0,0,0,0,11301219,0,11910009,0,40211119,0,0,0,20500719,0,11810109,0,20501009,0,0,0,0,0,0,0,-3101011,0,0,30000409,0,0,0,11910109,30401709,0,0,0
10,199,894.776148183155,0,0,10325.9724450419,10327.0195469403,8,0,0,20,3,0,41911219,4151200,63201738,0,0,0,0,0,0,0,0,0,0,0,0,41911219,0,0,0,0,0,0,-4151200,0,0,0,0,0,0,0,21501319,0,0,0,0,0,0,0,41700419
10,200,444.95811923116,1,0,10328.9842737374,10330.0313486885,8,1,1,19,19,73314356,147715155,74725376,155936194,21500009,0,10111109,0,10601719,0,0,31101519,0,0,21800809,0,0,32000309,41901309,30300909,21711819,0,-2000130,0,10400909,11411819,0,0,30510609,20401909,0,20701819,21100009,0,21400919,10210919,41211219,0,41311309,0
10,201,660.089702738333,1,0,10331.6549369404,10332.7020203607,8,1,1,35,9,61912038,60601728,32802028,74282147,0,20800319,0,0,0,0,41111719,0,0,0,0,40400419,0,0,0,20201309,0,0,21500109,0,0,11301919,0,0,0,0,0,0,0,0,0,31001019,22000719,20100409,-1180000,0
10,202,491.24851992201,1,0,10334.5609048362,10335.6079897963,8,0,1,29,31,174545293,207048912,226737922,211087012,40010009,30301809,20610409,30600709,10801619,0,21810319,0,20410419,10710919,10511509,0,31800119,20910809,41900809,31001919,40211919,20000909,30301419,0,11510319,31710609,40000509,40411319,11001519,30301919,31500309,22010209,-1021180,11610719,21701119,20910519,41810009,40611319,10610819,40801119
10,203,418.607926405457,0,0,10337.1845111813,10338.2315953715,8,0,0,16,0,0,0,0,0,0,0,0,0,0,0,0,0,0,0,0,0,0,0,0,-20300301,0,0,0,0,0,0,0,0,0,0,0,0,0,0,0,0,0,0,0,0
10,204,569.789410088561,1,0,10339.702302922,10340.749320129,8,1,1,28,31,205177412,229055622,209249503,262039793,31410709,0,10611019,40010009,40111219,10511809,40710319,20101719,11710609,11910009,31010609,0,42001019,31000419,40710919,31011219,10510319,30901109,31402009,11402009,31311119,31510819,0,0,31810319,41001619,30811609,-4091061,21501509,31111919,21010109,40801019,40411019,21501919,41210719,40400519
10,205,489.249802611084,1,0,10342.4317215617,10343.4788053669,8,1,1,1,9,24521700,73922437,0,115224655,-4010181,20511519,0,0,0,0,0,0,0,0,0,0,0,0,0,11700019,21511309,40711109,0,0,0,0,0,0,0,0,0,21401219,21200009,0,20901909,30511509,0,0,21210009,0
10,206,528.547772404636,0,0,10345.1023889993,10346.1494762692,8,1,0,27,3,0,61511318,21931309,0,0,0,0,0,0,0,0,0,0,0,0,0,0,0,41100509,0,20410809,0,20901209,0,0,0,0,0,0,0,-1030100,0,0,0,0,0,0,0,0,0
10,207,565.084802185083,0,0,10347.878943029,10348.9260245244,8,1,0,34,19,134213456,115414455,165039184,76944126,0,0,31900109,31211309,30901119,40200919,0,0,0,31301309,0,11001509,21610109,20500519,0,0,0,31001009,40712009,0,21311009,0,0,40801719,41001509,10601319,10611619,30711609,0,21700209,0,11700709,11700509,-1131090,0,0
10,208,444.252485789548,0,0,10350.53784221,10351.5849264002,8,0,0,15,9,164024365,2181181,104336456,0,0,40310709,40302019,0,32011119,0,0,20400409,31000109,0,0,0,0,0,-2181181,0,0,0,41711319,0,0,0,0,30011909,11711719,0,20901509,0,0,0,0,0,0,0,0,0
10,209,388.19331574814,0,0,10373.0914345502,10374.1385310591,9,1,0,9,19,86104567,125423965,103203147,156916103,31100219,0,0,0,20101919,0,10800009,21911309,-2191111,0,0,0,31201209,31600219,30311309,0,21410509,10900719,40201409,42000519,0,0,0,0,0,21001219,0,10400419,31800119,0,0,21500219,20501619,31001609,11600409,30111709
10,210,594.011538723862,1,0,10375.5738626222,10376.6209491221,9,0,1,29,31,128578602,169816383,214938221,180877133,11310519,11100509,20211809,11111419,31711419,10911209,11011109,0,21210609,21400309,21501009,0,30701309,21301819,21810719,0,11101109,42000109,10500919,20001009,21211919,41000909,30010009,41311419,10100009,20800009,20002019,40510919,-4111130,11710509,30510919,0,20310509,20710109,41311419,11701619
10,211,468.656315995759,0,0,10378.3151249707,10379.3622091609,9,1,0,1,9,24521700,73922437,0,115224655,-4010181,20511519,0,0,0,0,0,0,0,0,0,0,0,0,0,11700019,21511309,40711109,0,0,0,0,0,0,0,0,0,21401219,21200009,0,20901909,30511509,0,0,21210009,0
10,212,396.002633808166,0,0,10380.9975745235,10382.0446329213,9,0,0,15,0,0,0,0,0,0,0,0,0,0,0,0,0,0,0,0,0,0,0,-20801091,0,0,0,0,0,0,0,0,0,0,0,0,0,0,0,0,0,0,0,0,0
10,213,461.729328462752,0,0,10383.5270421302,10384.5741294001,9,0,0,26,31,175856931,175024794,232729392,209051832,20110319,10300319,31300409,30800819,30211009,20710619,10811209,11010819,10601409,20400819,0,10210519,0,31601119,31401009,0,40210109,41201219,20611919,31402019,41111919,11400919,41510819,31110409,30210219,-4061160,21310009,41901819,31710909,31311209,20601719,10701519,40411119,0,11211819,21201719
10,214,96.9152992529416,1,0,10386.2448322541,10387.2918579303,9,0,1,18,19,148144384,55021408,187236213,81512957,22000009,0,41711019,0,20301209,21811419,31410709,0,10910019,32010019,0,0,0,0,11210119,0,10801219,-1000051,20011819,41400119,41510709,40000109,11911119,0,0,21802019,10600319,0,30101819,0,0,0,0,41200719,0,10210419
10,215,511.015495352694,0,0,10388.562484331,10389.609560437,9,1,0,35,9,61912038,60601728,32802028,74282147,0,20800319,0,0,0,0,41111719,0,0,0,0,40400419,0,0,0,20201309,0,0,21500109,0,0,11301919,0,0,0,0,0,0,0,0,0,31001019,22000719,20100409,-1180000,0
10,216,506.421756203054,1,0,10391.1390238092,10392.1861079994,9,0,1,3,9,96314727,72421638,71912028,33222618,21110219,0,-4191080,0,0,0,30901819,40111609,0,31111119,0,41310519,0,0,0,0,0,0,0,0,0,0,30001019,0,0,41911009,0,0,0,0,0,21411309,0,11811309,0,0
10,217,371.306618229937,0,0,10393.73910442,10394.7861990041,9,0,0,20,19,125133155,135214536,148356335,144937775,0,10110219,31301509,0,30410209,11610609,41700609,0,0,0,0,41711109,20702009,31300509,0,0,41500909,0,0,-3031160,41610419,11901009,0,30700819,0,20902019,40210909,30911919,0,0,0,20711919,41700009,20101919,31512009,0
10,218,475.787717801722,1,0,10396.3038864204,10397.3509675309,9,0,1,15,19,155346004,134482126,142745865,114413546,0,11611019,0,41400809,20010419,41010919,10901519,0,30411319,31701219,0,0,41100309,0,-1060160,20010119,40610319,0,0,20512009,30211909,0,0,21111119,40000019,30910809,0,31101209,0,11300209,0,0,40300109,0,0,31712019
10,219,393.494998106689,0,0,10398.9981042298,10400.0451637825,9,0,0,32,3,0,11800709,0,25203508,0,0,0,0,0,0,0,0,0,0,0,0,0,0,0,0,11800709,0,0,0,0,0,0,0,0,0,0,0,0,0,0,-4190180,10901909,0,0,10111419
10,220,439.269166146914,1,0,10401.4452044344,10402.4922928591,9,0,1,36,9,40900619,52334057,142603756,14312999,0,0,0,0,0,0,0,0,40900619,0,20811719,0,20912019,0,0,0,0,10610319,0,30300219,40701119,0,0,30401209,0,0,41201209,0,0,0,0,0,0,11211819,0,-3101180
10,221,385.321122019377,0,0,10403.9982262624,10405.045316612,9,1,0,34,19,134213456,115414455,165039184,76944126,0,0,31900109,31211309,30901119,40200919,0,0,0,31301309,0,11001509,21610109,20500519,0,0,0,31001009,40712009,0,21311009,0,0,40801719,41001509,10601319,10611619,30711609,0,21700209,0,11700709,11700509,-1131090,0,0
10,222,462.046151335016,1,0,10406.5865363069,10407.6336297362,9,1,1,28,31,205177412,229055622,209249503,262039793,31410709,0,10611019,40010009,40111219,10511809,40710319,20101719,11710609,11910009,31010609,0,42001019,31000419,40710919,31011219,10510319,30901109,31402009,11402009,31311119,31510819,0,0,31810319,41001619,30811609,-4091061,21501509,31111919,21010109,40801019,40411019,21501919,41210719,40400519
10,223,692.99616569333,1,0,10409.1513179224,10410.198398648,9,1,1,31,31,266869351,248158511,167737793,167754044,10910819,21610119,10601419,41210509,41401519,30011519,30701209,40411619,40010619,20210509,31310009,40101319,41301909,20700209,21501209,21811109,10711219,40511019,30211909,31011309,0,11801009,11110409,40700119,21801219,21101819,0,30900009,11300019,31611609,-1130150,40710919,0,0,21601219,30500119
10,224,365.646152258705,1,0,10411.9278738769,10412.9749561423,9,0,1,8,3,21791250,10701109,11101309,0,0,0,0,20611209,0,0,0,-1180041,0,0,0,10701109,0,0,0,0,0,0,0,0,0,0,0,0,0,0,11101309,0,0,0,0,0,0,0,0,0
10,225,338.116054084821,0,0,10414.4573561121,10415.5044337579,9,1,0,19,19,73314356,147715155,74725376,155936194,21500009,0,10111109,0,10601719,0,0,31101519,0,0,21800809,0,0,32000309,41901309,30300909,21711819,0,-2000130,0,10400909,11411819,0,0,30510609,20401909,0,20701819,21100009,0,21400919,10210919,41211219,0,41311309,0
10,226,295.159415316448,1,0,10416.9750820245,10418.0221623651,9,1,1,21,31,227056422,229669621,151686124,196623593,20510719,40310009,30911919,21401019,20601309,21310619,42000319,30010509,0,31711909,30501909,30201919,21811419,30500119,20211409,31210319,22010209,11510409,21611009,10610919,-2031131,0,21210109,11811209,21400019,41511219,21500509,40010409,31600019,30400509,0,0,10301419,11400519,32010309,40900409
10,227,387.313679953877,1,0,10419.4339758931,10420.4810612381,9,1,1,10,3,80812018,4010001,0,30711009,40010809,0,0,40801209,0,0,0,0,0,-4010001,0,0,0,0,0,0,0,0,0,0,0,0,0,0,0,0,0,0,0,0,0,0,0,30711009,0,0
10,228,387.45881023533,1,0,10421.9516960311,10422.9987717521,9,1,1,27,3,0,61511318,21931309,0,0,0,0,0,0,0,0,0,0,0,0,0,0,0,41100509,0,20410809,0,20901209,0,0,0,0,0,0,0,-1030100,0,0,0,0,0,0,0,0,0
10,229,359.176113384819,1,0,10424.4811836557,10425.5282551422,9,1,1,14,0,0,0,0,0,0,0,0,0,0,0,0,0,0,0,0,0,0,-21601101,0,0,0,0,0,0,0,0,0,0,0,0,0,0,0,0,0,0,0,0,0,0
10,230,409.505909437939,0,0,10426.9636047984,10428.0106878337,9,0,0,25,3,30200419,22011019,34123060,0,0,0,30200419,0,0,0,0,0,0,0,22011019,0,0,0,0,0,0,0,0,0,0,0,0,0,-3021151,31101909,0,0,0,0,0,0,0,0,0,0
10,231,358.80693582294,1,1,10429.4342592243,10430.481348804,9,1,0,12,9,74902846,94284557,20510719,30311209,22000609,21300719,0,21401309,0,0,0,0,10200209,0,0,-3050020,40711909,10410809,40111819,0,0,0,0,0,0,20510719,0,0,0,0,0,0,0,0,0,0,0,0,0,30311209
10,232,396.16893694074,0,0,10431.8460923853,10432.8931777304,9,0,0,13,31,235767812,193097473,248648522,229648103,21311509,30311719,41610509,20200509,41310119,30701219,30211709,20110519,0,10801919,21810419,21800109,-2060041,21611319,21311919,31701409,40300119,21700219,0,30200309,20111319,30810619,41711019,31201419,21401319,41700909,31511609,21101419,40310519,41211519,31711809,31901609,0,0,21610419,41800809
10,233,416.425582716329,1,0,10434.3167575902,10435.3638490946,9,0,1,4,9,96473158,51811518,84023747,41211509,0,0,0,-3160111,21410919,41200919,0,30701209,0,0,0,0,10410409,0,0,0,41401109,0,0,0,0,40010719,32011409,0,12001619,0,0,0,0,0,0,0,0,0,0,41211509
10,234,398.580717363075,0,0,10436.9874758426,10438.0345019037,9,1,0,7,3,1180180,21300319,11901609,11700109,0,0,0,0,0,0,-1180180,0,0,0,0,0,0,0,0,0,0,21300319,0,0,0,11901609,0,0,0,0,0,0,0,11700109,0,0,0,0,0,0
10,235,411.740992780324,0,0,10456.2703393824,10457.3174251125,10,1,0,9,19,86104567,125423965,103203147,156916103,31100219,0,0,0,20101919,0,10800009,21911309,-2191111,0,0,0,31201209,31600219,30311309,0,21410509,10900719,40201409,42000519,0,0,0,0,0,21001219,0,10400419,31800119,0,0,21500219,20501619,31001609,11600409,30111709
10,236,428.228870743624,1,0,10458.7527709191,10459.7998501048,10,1,1,35,9,61912038,60601728,32802028,74282147,0,20800319,0,0,0,0,41111719,0,0,0,0,40400419,0,0,0,20201309,0,0,21500109,0,0,11301919,0,0,0,0,0,0,0,0,0,31001019,22000719,20100409,-1180000,0
10,237,359.932176712391,1,1,10461.3528442156,10462.3999210916,10,1,0,10,3,80812018,4010001,0,30711009,40010809,0,0,40801209,0,0,0,0,0,-4010001,0,0,0,0,0,0,0,0,0,0,0,0,0,0,0,0,0,0,0,0,0,0,0,30711009,0,0
10,238,546.046172892602,0,0,10463.8117430887,10464.8588249691,10,0,0,29,9,31210219,30710409,61102447,46155777,0,0,0,0,0,0,0,0,31210219,0,0,30710409,0,0,0,0,0,0,0,0,0,30001319,0,0,20900419,0,10200709,11411119,-4030011,10201619,0,10401309,0,0,0,10111719
10,239,470.227726638768,1,0,10466.5176948931,10467.5647860126,10,0,1,3,9,66504806,10312019,51411728,71901328,0,0,-4071140,20210519,10200619,0,20011419,12011109,0,0,0,0,0,0,0,0,10312019,0,0,0,0,0,30511519,0,20900209,0,0,0,0,40000319,0,0,0,0,31901009,0
10,240,440.740871901653,0,1,10469.059013138,10470.1060368894,10,1,1,12,9,74902846,94284557,20510719,30311209,22000609,21300719,0,21401309,0,0,0,0,10200209,0,0,-3050020,40711909,10410809,40111819,0,0,0,0,0,0,20510719,0,0,0,0,0,0,0,0,0,0,0,0,0,30311209
10,241,568.160640263159,1,0,10471.7296143624,10472.7766997074,10,0,1,26,31,220147222,228651421,210027694,157328303,41210819,0,22010619,11301819,41301609,21801219,40510009,10600019,31411109,21611219,20701509,11200119,40501409,31411309,11001019,20711709,40001619,31511509,40410319,0,10501609,11601709,40700809,41501519,41910219,-2091191,21310319,10410319,11810609,41101609,21701319,0,0,20901319,20701209,30701919
10,242,511.16101059597,1,0,10474.3885216276,10475.4356000434,10,1,1,1,9,24521700,73922437,0,115224655,-4010181,20511519,0,0,0,0,0,0,0,0,0,0,0,0,0,11700019,21511309,40711109,0,0,0,0,0,0,0,0,0,21401219,21200009,0,20901909,30511509,0,0,21210009,0
10,243,375.413766723796,0,0,10477.1062432284,10478.1533304983,10,0,0,15,3,30100819,35200399,0,30010519,0,0,0,0,0,0,30100819,0,0,0,0,0,0,31110219,-4090180,0,0,0,0,0,0,0,0,0,0,0,0,0,0,0,0,30010519,0,0,0,0
10,244,631.807775807829,0,0,10479.6239699108,10480.6710529461,10,1,0,28,31,205177412,229055622,209249503,262039793,31410709,0,10611019,40010009,40111219,10511809,40710319,20101719,11710609,11910009,31010609,0,42001019,31000419,40710919,31011219,10510319,30901109,31402009,11402009,31311119,31510819,0,0,31810319,41001619,30811609,-4091061,21501509,31111919,21010109,40801019,40411019,21501919,41210719,40400519
10,245,539.572669369591,1,0,10482.4240427454,10483.4711319401,10,1,1,7,3,1180180,21300319,11901609,11700109,0,0,0,0,0,0,-1180180,0,0,0,0,0,0,0,0,0,0,21300319,0,0,0,11901609,0,0,0,0,0,0,0,11700109,0,0,0,0,0,0
10,246,446.031390390999,1,0,10485.1535318329,10486.2006175629,10,0,1,8,19,150500594,116134655,195025984,72821528,22010919,31711809,0,21811819,0,11311619,40611919,-1031100,22011409,0,0,0,0,31800809,11510409,31700809,20910909,20211719,0,40010919,30201919,41810509,0,30501109,21100709,31400819,0,0,0,31910609,40910919,0,0,0,0,0
10,247,629.43526140225,0,0,10487.8242061998,10488.8712838457,10,0,0,4,31,252066733,162437083,194856302,238848732,40300009,21311619,30501019,-4030131,30201009,12010109,41101219,31711009,40900609,41511719,30001809,0,10010809,0,40200509,10111509,10100519,20500209,10010109,10910409,30211409,20100719,0,31301919,41600109,20110119,30611509,10411719,40311919,41601009,31800219,0,31802009,41610719,10211119,31100019
10,248,524.712791309867,1,0,10490.5419297255,10491.5890119909,10,0,1,32,3,41101928,11400819,0,2080000,10500809,0,0,0,0,0,0,0,30601119,0,11400819,0,0,0,0,0,0,0,0,0,0,0,0,0,0,0,0,0,0,0,0,-2080000,0,0,0,0
10,249,575.984586836057,1,0,10493.212598318,10494.2596790435,10,1,1,31,31,266869351,248158511,167737793,167754044,10910819,21610119,10601419,41210509,41401519,30011519,30701209,40411619,40010619,20210509,31310009,40101319,41301909,20700209,21501209,21811109,10711219,40511019,30211909,31011309,0,11801009,11110409,40700119,21801219,21101819,0,30900009,11300019,31611609,-1130150,40710919,0,0,21601219,30500119
10,250,388.765367739325,0,0,10496.0126819315,10497.0597618871,10,1,0,27,3,0,61511318,21931309,0,0,0,0,0,0,0,0,0,0,0,0,0,0,0,41100509,0,20410809,0,20901209,0,0,0,0,0,0,0,-1030100,0,0,0,0,0,0,0,0,0
10,251,398.208460113892,0,0,10498.6362813473,10499.6833709269,10,0,0,13,3,31820738,34951770,0,0,0,0,0,20910619,0,0,10910119,0,0,0,0,30910619,-4041151,0,0,0,0,0,0,0,0,0,0,0,0,0,0,0,0,0,0,0,0,0,0,0
10,252,406.773071577845,0,0,10501.271704839,10502.3187393692,10,0,0,20,9,155324456,61912738,75553728,11900719,41111609,41410619,41902009,0,0,0,0,0,30900219,0,0,30500919,0,31411819,0,0,0,0,31601719,-2040100,0,0,0,0,0,0,41911909,0,0,0,0,0,0,0,11900719,0
10,253,894.687222202265,0,0,10503.8717611973,10504.9188122808,10,0,0,36,31,190566512,225058492,229858831,169413575,41910519,12010119,30201019,21811009,0,21210809,31711509,20700009,11011519,41011209,30410409,30510819,0,30501019,11701109,40001609,20711109,20211209,21511509,42000819,10111619,11600519,30211819,31610709,20700509,30610819,31500509,11510309,22010019,11711019,41910819,0,0,40200809,41010409,-1060191
10,254,438.139305726509,0,0,10506.8953492952,10507.9424315606,10,1,0,14,0,0,0,0,0,0,0,0,0,0,0,0,0,0,0,0,0,0,-21601101,0,0,0,0,0,0,0,0,0,0,0,0,0,0,0,0,0,0,0,0,0,0
10,255,343.201388381203,1,0,10509.5542434717,10510.6013376709,10,1,1,21,31,227056422,229669621,151686124,196623593,20510719,40310009,30911919,21401019,20601309,21310619,42000319,30010509,0,31711909,30501909,30201919,21811419,30500119,20211409,31210319,22010209,11510409,21611009,10610919,-2031131,0,21210109,11811209,21400019,41511219,21500509,40010409,31600019,30400509,0,0,10301419,11400519,32010309,40900409
10,256,370.574422480786,0,0,10512.024904827,10513.0719932517,10,0,0,25,19,122135156,136335175,138276695,134626155,0,0,40410609,0,40601909,0,0,31110819,10011819,21911209,0,0,40601109,0,11010819,41911219,20900819,0,31101209,0,30611719,0,21310909,31200819,-3151130,20900909,0,0,0,31212019,21301709,0,20601309,40811009,0,20700109
10,257,355.359995375693,0,1,10514.5661649428,10515.6132460533,10,1,1,19,19,73314356,147715155,74725376,155936194,21500009,0,10111109,0,10601719,0,0,31101519,0,0,21800809,0,0,32000309,41901309,30300909,21711819,0,-2000130,0,10400909,11411819,0,0,30510609,20401909,0,20701819,21100009,0,21400919,10210919,41211219,0,41311309,0
10,258,551.676226947166,1,0,10517.1427051908,10518.1897940006,10,0,1,18,19,154423885,136415985,82335175,104114166,31200309,40610519,40000119,0,11311519,0,31301419,0,0,0,0,31701619,31210419,0,20111609,30300019,20011209,-3081110,10200609,0,0,10210519,0,0,20711219,30002019,11210809,0,21401519,0,30901119,0,11801009,40010519,0,0
10,259,398.178818120869,0,0,10519.7780770978,10520.8251693721,10,0,0,31,0,0,0,0,0,0,0,0,0,0,0,0,0,0,0,0,0,0,0,0,0,0,0,0,0,0,0,0,0,0,0,0,0,0,0,-31701591,0,0,0,0,0
10,260,431.369382264165,1,0,10522.2369705814,10523.284060161,10,1,1,34,19,134213456,115414455,165039184,76944126,0,0,31900109,31211309,30901119,40200919,0,0,0,31301309,0,11001509,21610109,20500519,0,0,0,31001009,40712009,0,21311009,0,0,40801719,41001509,10601319,10611619,30711609,0,21700209,0,11700709,11700509,-1131090,0,0
10,261,439.865470676523,1,0,10539.3551139455,10540.4021989056,11,1,1,34,19,134213456,115414455,165039184,76944126,0,0,31900109,31211309,30901119,40200919,0,0,0,31301309,0,11001509,21610109,20500519,0,0,0,31001009,40712009,0,21311009,0,0,40801719,41001509,10601319,10611619,30711609,0,21700209,0,11700709,11700509,-1131090,0,0
10,262,361.157892411939,0,0,10542.0257875425,10543.072868268,11,0,0,20,9,10710819,71931957,93994548,63410818,10710819,0,0,0,0,0,0,0,0,0,30210319,0,0,0,21210019,0,20511619,0,0,-1071101,0,20211509,0,41201919,31510019,0,0,22010109,0,0,0,0,0,0,41400709,0
10,263,331.697984940547,1,0,10544.5552770919,10545.6024194112,11,1,1,28,31,205177412,229055622,209249503,262039793,31410709,0,10611019,40010009,40111219,10511809,40710319,20101719,11710609,11910009,31010609,0,42001019,31000419,40710919,31011219,10510319,30901109,31402009,11402009,31311119,31510819,0,0,31810319,41001619,30811609,-4091061,21501509,31111919,21010109,40801019,40411019,21501919,41210719,40400519
10,264,427.132116965367,1,0,10547.072986066,10548.1200683314,11,1,1,12,9,74902846,94284557,20510719,30311209,22000609,21300719,0,21401309,0,0,0,0,10200209,0,0,-3050020,40711909,10410809,40111819,0,0,0,0,0,0,20510719,0,0,0,0,0,0,0,0,0,0,0,0,0,30311209
10,265,353.467142331283,0,0,10549.6965981855,10550.7436789111,11,0,0,13,3,21201109,1080040,10210819,20901719,0,0,0,0,0,0,21201109,0,0,0,0,0,-1080040,0,0,0,0,0,10210819,0,0,0,0,0,0,0,0,0,0,20901719,0,0,0,0,0,0
10,266,402.897284620849,1,0,10552.1790224079,10553.2260988989,11,1,1,7,3,1180180,21300319,11901609,11700109,0,0,0,0,0,0,-1180180,0,0,0,0,0,0,0,0,0,0,21300319,0,0,0,11901609,0,0,0,0,0,0,0,11700109,0,0,0,0,0,0
10,267,401.328953665143,0,0,10554.6496856879,10555.6967660285,11,1,0,1,9,24521700,73922437,0,115224655,-4010181,20511519,0,0,0,0,0,0,0,0,0,0,0,0,0,11700019,21511309,40711109,0,0,0,0,0,0,0,0,0,21401219,21200009,0,20901909,30511509,0,0,21210009,0
10,268,496.816980225049,1,1,10557.237990343,10558.2850806925,11,1,0,35,9,61912038,60601728,32802028,74282147,0,20800319,0,0,0,0,41111719,0,0,0,0,40400419,0,0,0,20201309,0,0,21500109,0,0,11301919,0,0,0,0,0,0,0,0,0,31001019,22000719,20100409,-1180000,0
10,269,439.97402966852,1,0,10559.8498303563,10560.8969160863,11,0,1,25,31,246276612,280850611,117694205,263657211,0,20110419,41510409,40310409,31610609,20811309,30301419,21610919,40011119,41211309,41601609,10901909,40410119,21000709,31101809,21901219,41310509,31411419,31500409,0,0,0,11600219,11800219,-1081120,20510219,41202019,21111009,31711119,41900109,21210409,32000109,11310109,41410819,21301709,41701819
10,270,464.502202266885,0,0,10562.4734355465,10563.5205220464,11,1,0,10,3,80812018,4010001,0,30711009,40010809,0,0,40801209,0,0,0,0,0,-4010001,0,0,0,0,0,0,0,0,0,0,0,0,0,0,0,0,0,0,0,0,0,0,0,30711009,0,0
10,271,424.699163690093,1,0,10565.1441006743,10566.1911887141,11,1,1,21,31,227056422,229669621,151686124,196623593,20510719,40310009,30911919,21401019,20601309,21310619,42000319,30010509,0,31711909,30501909,30201919,21811419,30500119,20211409,31210319,22010209,11510409,21611009,10610919,-2031131,0,21210109,11811209,21400019,41511219,21500509,40010409,31600019,30400509,0,0,10301419,11400519,32010309,40900409
10,272,418.950156697974,1,0,10567.8147723465,10568.8618526871,11,0,1,15,19,213536484,141654786,135542365,91421747,40201119,0,21410519,31301719,40111309,0,0,40411809,40100009,32000219,11201809,0,21010619,31900509,-4041011,0,41500619,0,0,0,20610009,11810409,31301719,30610209,0,41210019,0,40001019,0,0,0,10510009,40910719,0,0,0
10,273,404.480244093065,1,0,10570.3913152893,10571.4384006344,11,0,1,11,0,0,0,0,0,0,0,0,0,0,0,0,0,0,0,-11210301,0,0,0,0,0,0,0,0,0,0,0,0,0,0,0,0,0,0,0,0,0,0,0,0,0
10,274,351.611630498155,0,1,10572.9090535204,10573.9561250069,11,0,1,32,3,32512028,0,0,45131589,0,11400209,0,0,0,0,0,0,21111819,0,0,0,0,0,0,0,0,0,0,0,0,0,0,0,0,0,0,41010509,0,0,0,-4121080,0,0,0,0
10,275,607.624143269277,1,0,10575.3561671987,10576.4032560084,11,0,1,36,31,258260451,186658012,202535874,181060242,40700709,31411619,30501819,20310219,31110619,10011419,41611409,31201319,21401319,31001509,21101019,30311909,10310709,30100619,0,11011519,21110309,31710419,10300719,0,30211309,40111219,40211309,0,40100309,41601009,0,10511219,20211419,11910209,21511609,40511509,11400609,31500519,31402019,-2101130
10,276,497.283552909721,0,0,10578.0503630652,10579.0974499502,11,1,0,19,19,73314356,147715155,74725376,155936194,21500009,0,10111109,0,10601719,0,0,31101519,0,0,21800809,0,0,32000309,41901309,30300909,21711819,0,-2000130,0,10400909,11411819,0,0,30510609,20401909,0,20701819,21100009,0,21400919,10210919,41211219,0,41311309,0
10,277,546.894626848371,0,0,10580.732793755,10581.7799179811,11,1,0,27,3,0,61511318,21931309,0,0,0,0,0,0,0,0,0,0,0,0,0,0,0,41100509,0,20410809,0,20901209,0,0,0,0,0,0,0,-1030100,0,0,0,0,0,0,0,0,0
10,278,409.647575072086,0,0,10583.5328993112,10584.5799661782,11,1,0,14,0,0,0,0,0,0,0,0,0,0,0,0,0,0,0,0,0,0,-21601101,0,0,0,0,0,0,0,0,0,0,0,0,0,0,0,0,0,0,0,0,0,0
10,279,678.359564990387,1,0,10586.0623638382,10587.1094437939,11,0,1,4,19,114166085,154515165,164315785,124524966,0,10702009,0,-1151130,40800019,0,30501609,20300609,10710709,30701909,40901719,21410009,41200409,0,20301119,0,0,0,31801819,20111719,0,0,30901309,0,41000219,0,40500719,0,0,0,20911509,41600919,0,20711919,41300619,0
10,280,369.372574361478,0,0,10588.8153921337,10589.8624674697,11,0,0,8,9,24600950,102624256,52502038,31810738,21410909,0,0,0,0,0,0,-3190041,0,0,40011509,30400519,0,0,0,0,22000409,10211819,10801619,0,41700419,0,0,0,0,0,0,0,0,0,0,10600419,0,0,21210319,0
10,281,564.756815445435,0,0,10591.3919312268,10592.4390111824,11,1,0,9,19,86104567,125423965,103203147,156916103,31100219,0,0,0,20101919,0,10800009,21911309,-2191111,0,0,0,31201209,31600219,30311309,0,21410509,10900719,40201409,42000519,0,0,0,0,0,21001219,0,10400419,31800119,0,0,21500219,20501619,31001609,11600409,30111709
10,282,458.194616918263,0,0,10594.1802477386,10595.2273315439,11,0,0,3,19,44845168,136316974,163515065,74326575,0,0,-2141131,0,0,20401909,10701109,0,11601019,0,42001509,22001009,0,10101919,30301219,11910609,0,20000709,0,0,41111619,30401219,0,40200609,10101409,41700209,0,0,11001519,10901809,0,10800819,0,10010619,31611809,0
10,283,526.197585737464,0,0,10596.8744443752,10597.9215204812,11,0,0,29,9,10300619,62401418,104224156,46463938,0,0,0,0,0,0,0,10300619,0,41301409,0,0,0,0,0,0,0,21100009,0,0,0,10601409,41111219,0,10710219,0,41801309,0,-4151120,31011609,0,0,0,0,0,11301209
10,284,636.274477838015,1,0,10599.5921675159,10600.6392586353,11,0,1,18,3,73412528,2130160,11511519,0,41502019,0,0,0,0,0,0,0,31910509,0,0,0,0,0,0,0,0,-2130160,0,0,0,0,0,0,0,0,11511519,0,0,0,0,0,0,0,0,0
10,285,420.65129918592,0,0,10602.4628402659,10603.5099302305,11,0,0,26,31,220790211,230060831,200725973,145045964,11710619,41000909,10311909,11210209,40311419,31611019,31911009,20911909,21811209,21110619,22011919,40911619,31600909,30701119,11912009,10811209,30100309,30901119,20911309,30411819,40900209,32010109,31801109,20500509,0,-4190000,20000909,11801809,20010309,0,0,20401709,0,41411209,30110109,21310819
10,286,743.823578692172,1,0,10604.968795612,10606.015670906,11,1,1,31,31,266869351,248158511,167737793,167754044,10910819,21610119,10601419,41210509,41401519,30011519,30701209,40411619,40010619,20210509,31310009,40101319,41301909,20700209,21501209,21811109,10711219,40511019,30211909,31011309,0,11801009,11110409,40700119,21801219,21101819,0,30900009,11300019,31611609,-1130150,40710919,0,0,21601219,30500119
10,287,431.079891623085,0,0,10617.8632866667,10618.9103735516,12,1,0,10,3,80812018,4010001,0,30711009,40010809,0,0,40801209,0,0,0,0,0,-4010001,0,0,0,0,0,0,0,0,0,0,0,0,0,0,0,0,0,0,0,0,0,0,0,30711009,0,0
10,288,383.820159231618,1,0,10620.4045456276,10621.4516228885,12,1,1,14,0,0,0,0,0,0,0,0,0,0,0,0,0,0,0,0,0,0,-21601101,0,0,0,0,0,0,0,0,0,0,0,0,0,0,0,0,0,0,0,0,0,0
10,289,428.816321171325,0,0,10623.0046385572,10624.0516900257,12,0,0,8,19,187045504,104144255,73224147,125016265,20300719,0,30001609,31000919,41210119,0,31300219,-2021010,31210909,0,0,0,0,31701109,20010319,10710909,31710109,10011809,0,0,0,41601919,0,10411319,21210909,0,0,0,0,20801409,30501909,31901109,0,10811019,0,31000819
10,290,456.018047643738,0,0,10625.6752859768,10626.722360543,12,0,0,25,31,200848272,205155602,148777374,207637812,21610109,20810709,20402009,41700809,41511909,21000309,12010609,21801809,0,20110109,10400209,31110709,0,41510219,40100419,40311409,11011909,10600619,20101619,30400319,11011719,0,31011119,20700019,-4141051,21400909,10010619,40000719,31001409,32011709,0,20100309,11501819,20500119,30611109,21910619
10,291,433.821968546908,0,0,10628.2753596583,10629.3224430786,12,0,0,3,9,93233778,21621328,81821337,40810609,40500709,0,-2011031,0,0,0,0,20611919,30110119,0,10311009,0,0,0,0,0,0,11310319,0,0,0,10300009,31311109,0,0,40210219,0,0,0,40810609,0,0,0,0,0,0
10,292,413.119153019579,1,0,10630.8871989017,10631.9342842468,12,1,1,21,31,227056422,229669621,151686124,196623593,20510719,40310009,30911919,21401019,20601309,21310619,42000319,30010509,0,31711909,30501909,30201919,21811419,30500119,20211409,31210319,22010209,11510409,21611009,10610919,-2031131,0,21210109,11811209,21400019,41511219,21500509,40010409,31600019,30400509,0,0,10301419,11400519,32010309,40900409
10,293,460.416996545973,1,0,10633.4637518535,10634.5108268046,12,1,1,35,9,61912038,60601728,32802028,74282147,0,20800319,0,0,0,0,41111719,0,0,0,0,40400419,0,0,0,20201309,0,0,21500109,0,0,11301919,0,0,0,0,0,0,0,0,0,31001019,22000719,20100409,-1180000,0
10,294,598.684964790664,1,0,10636.1815084858,10637.228553025,12,1,1,12,9,74902846,94284557,20510719,30311209,22000609,21300719,0,21401309,0,0,0,0,10200209,0,0,-3050020,40711909,10410809,40111819,0,0,0,0,0,0,20510719,0,0,0,0,0,0,0,0,0,0,0,0,0,30311209
10,295,101.029377045052,0,1,10638.9698434757,10640.0168745413,12,0,1,32,3,0,11300519,31010819,41321010,0,0,0,0,0,0,0,0,0,0,11300519,0,0,0,0,0,0,0,0,0,31010819,0,0,0,0,0,0,40300009,0,0,0,-1021001,0,0,0,0
10,296,170.259216447448,0,0,10641.2639725131,10642.3110543935,12,1,0,19,19,73314356,147715155,74725376,155936194,21500009,0,10111109,0,10601719,0,0,31101519,0,0,21800809,0,0,32000309,41901309,30300909,21711819,0,-2000130,0,10400909,11411819,0,0,30510609,20401909,0,20701819,21100009,0,21400919,10210919,41211219,0,41311309,0
10,297,422.084123883906,0,0,10643.569919852,10644.617005582,12,1,0,1,9,24521700,73922437,0,115224655,-4010181,20511519,0,0,0,0,0,0,0,0,0,0,0,0,0,11700019,21511309,40711109,0,0,0,0,0,0,0,0,0,21401219,21200009,0,20901909,30511509,0,0,21210009,0
10,298,394.019314933757,1,0,10646.111168034,10647.1582687775,12,1,1,7,3,1180180,21300319,11901609,11700109,0,0,0,0,0,0,-1180180,0,0,0,0,0,0,0,0,0,0,21300319,0,0,0,11901609,0,0,0,0,0,0,0,11700109,0,0,0,0,0,0
10,299,390.585463161187,1,0,10648.6053651325,10649.6524435483,12,1,1,9,19,86104567,125423965,103203147,156916103,31100219,0,0,0,20101919,0,10800009,21911309,-2191111,0,0,0,31201209,31600219,30311309,0,21410509,10900719,40201409,42000519,0,0,0,0,0,21001219,0,10400419,31800119,0,0,21500219,20501619,31001609,11600409,30111709
10,300,1170.74118757046,0,0,10651.1701482878,10652.2172340179,12,1,0,28,31,205177412,229055622,209249503,262039793,31410709,0,10611019,40010009,40111219,10511809,40710319,20101719,11710609,11910009,31010609,0,42001019,31000419,40710919,31011219,10510319,30901109,31402009,11402009,31311119,31510819,0,0,31810319,41001619,30811609,-4091061,21501509,31111919,21010109,40801019,40411019,21501919,41210719,40400519
10,301,417.933089838698,0,0,10654.5349484584,10655.5820318787,12,0,0,26,19,167155784,122823337,138007736,115033985,0,41210519,40612019,31011209,12000309,12010819,0,30310909,0,41800619,0,0,0,0,0,41010909,0,40011809,21710109,41401809,21901809,0,31901809,20012019,0,-1080181,0,41200019,0,21701219,0,10711319,0,0,10810509,30610919
10,302,424.602923450948,1,0,10657.1232592728,10658.1703426931,12,0,1,4,3,2040090,11800309,0,23022018,0,0,0,-2040090,0,0,0,0,0,0,0,0,11800309,0,0,0,0,0,0,0,0,0,0,0,0,0,0,0,0,11211609,0,11810409,0,0,0,0
10,303,416.772047579798,0,0,10659.6880397335,10660.7351358574,12,0,0,21,0,0,0,0,0,0,0,0,0,0,0,0,0,0,0,0,0,0,0,0,0,0,0,0,0,-31212001,0,0,0,0,0,0,0,0,0,0,0,0,0,0,0
10,304,357.490369337029,1,0,10662.2175273581,10663.264614243,12,0,1,15,31,207359292,166948253,176645602,245869492,40310309,0,21601409,41810819,21101309,20302009,20711019,31210909,10311509,10100019,20012009,41111609,0,21810919,-2100160,40311809,11301509,20200219,31110119,10310409,40000819,21910409,20011409,10100409,11202019,0,32000009,30711409,40901219,10010809,41511109,40310809,0,10811619,41001809,30610709
10,305,489.729463968615,1,0,10664.6999485008,10665.7470823509,12,0,1,13,3,0,34941310,61911818,0,0,0,0,0,0,0,0,0,0,0,0,0,-4141101,0,30800209,0,0,0,0,0,0,40301209,0,21610609,0,0,0,0,0,0,0,0,0,0,0,0
10,306,445.33538097312,0,0,10667.3235610052,10668.3706336466,12,0,0,20,9,71601938,133124956,3010011,93914737,31300619,0,0,0,0,0,0,0,40301319,30810319,41201309,0,31011509,30101819,0,0,0,0,0,-3010011,0,0,0,0,0,0,0,20801909,31701509,0,0,0,0,0,41411319,0
10,307,693.755308706386,0,0,10669.9589286776,10671.0060367354,12,0,0,36,9,104533356,40200309,82513027,35150789,0,30010019,0,0,0,22010819,0,41001309,11511209,40200309,0,0,0,0,0,0,0,0,11411109,0,0,30101009,0,0,0,0,41000909,0,0,0,0,0,31100609,0,0,-4050180
10,308,655.404342878683,0,0,10672.735475008,10673.7825680523,12,0,0,29,31,251070321,167240403,146371042,179595443,40911409,31301309,31911919,11910409,20101709,11310909,31011819,31500419,41110419,21601319,20711319,30811819,11502009,0,20601409,30410619,0,31601909,10911519,30012019,21611919,0,11401219,21200719,10910509,10011619,30311519,20500919,-4050040,31100609,20200109,11411209,40711019,31010119,0,20611419
10,309,600.203635782236,0,0,10675.5826243336,10676.6297073689,12,0,0,18,19,94912846,108402885,134035885,143436165,0,0,0,10901209,0,41701009,0,20510509,21800119,11600209,20600609,0,20900909,0,41710009,11401119,0,-2190030,10711119,0,0,40411619,11110109,40601019,0,31202019,0,20701919,31010809,0,0,20100819,31111309,0,40511309,0
10,310,216.531523972662,1,0,10678.3121091866,10679.3591979963,12,1,1,27,3,0,61511318,21931309,0,0,0,0,0,0,0,0,0,0,0,0,0,0,0,41100509,0,20410809,0,20901209,0,0,0,0,0,0,0,-1030100,0,0,0,0,0,0,0,0,0
10,311,521.149207692361,1,0,10680.7474769359,10681.7945588164,12,1,1,34,19,134213456,115414455,165039184,76944126,0,0,31900109,31211309,30901119,40200919,0,0,0,31301309,0,11001509,21610109,20500519,0,0,0,31001009,40712009,0,21311009,0,0,40801719,41001509,10601319,10611619,30711609,0,21700209,0,11700709,11700509,-1131090,0,0
10,312,522.742561110135,1,0,10683.5240417445,10684.5711140009,12,1,1,31,31,266869351,248158511,167737793,167754044,10910819,21610119,10601419,41210509,41401519,30011519,30701209,40411619,40010619,20210509,31310009,40101319,41301909,20700209,21501209,21811109,10711219,40511019,30211909,31011309,0,11801009,11110409,40700119,21801219,21101819,0,30900009,11300019,31611609,-1130150,40710919,0,0,21601219,30500119
10,313,352.844660457777,1,0,10702.5128132032,10703.5598954686,13,1,1,14,0,0,0,0,0,0,0,0,0,0,0,0,0,0,0,0,0,0,-21601101,0,0,0,0,0,0,0,0,0,0,0,0,0,0,0,0,0,0,0,0,0,0
10,314,492.638228990472,0,0,10704.9717594264,10706.0187924168,13,1,0,28,31,205177412,229055622,209249503,262039793,31410709,0,10611019,40010009,40111219,10511809,40710319,20101719,11710609,11910009,31010609,0,42001019,31000419,40710919,31011219,10510319,30901109,31402009,11402009,31311119,31510819,0,0,31810319,41001619,30811609,-4091061,21501509,31111919,21010109,40801019,40411019,21501919,41210719,40400519
10,315,351.038808588783,1,0,10707.5482604085,10708.5953434438,13,1,1,12,9,74902846,94284557,20510719,30311209,22000609,21300719,0,21401309,0,0,0,0,10200209,0,0,-3050020,40711909,10410809,40111819,0,0,0,0,0,0,20510719,0,0,0,0,0,0,0,0,0,0,0,0,0,30311209
10,316,518.86176966218,1,0,10710.1366308918,10711.1836523334,13,1,1,1,9,24521700,73922437,0,115224655,-4010181,20511519,0,0,0,0,0,0,0,0,0,0,0,0,0,11700019,21511309,40711109,0,0,0,0,0,0,0,0,0,21401219,21200009,0,20901909,30511509,0,0,21210009,0
10,317,400.763061052203,0,0,10712.736648754,10713.7837417983,13,1,0,9,19,86104567,125423965,103203147,156916103,31100219,0,0,0,20101919,0,10800009,21911309,-2191111,0,0,0,31201209,31600219,30311309,0,21410509,10900719,40201409,42000519,0,0,0,0,0,21001219,0,10400419,31800119,0,0,21500219,20501619,31001609,11600409,30111709
10,318,435.065007492085,0,0,10715.3131855374,10716.3602681878,13,0,0,4,3,44602999,10710609,0,0,10001109,0,0,-4190181,0,30411709,0,0,0,0,0,0,10710609,0,0,0,0,0,0,0,0,0,0,0,0,0,0,0,0,0,0,0,0,0,0,0
10,319,435.981984501268,0,0,10717.9603226212,10719.0074021919,13,1,0,21,31,227056422,229669621,151686124,196623593,20510719,40310009,30911919,21401019,20601309,21310619,42000319,30010509,0,31711909,30501909,30201919,21811419,30500119,20211409,31210319,22010209,11510409,21611009,10610919,-2031131,0,21210109,11811209,21400019,41511219,21500509,40010409,31600019,30400509,0,0,10301419,11400519,32010309,40900409
10,320,415.211030884166,1,0,10720.5722403967,10721.6192518292,13,0,1,15,19,123923365,110204807,113145456,97254984,31810019,0,0,10900009,0,0,10611709,30500719,40100909,21611419,0,0,0,21501819,-4180051,0,21901009,41010509,0,10612009,0,40211719,0,0,41811609,0,20510119,0,0,20810109,10501219,11810709,21411209,0,21710819,11010919
10,321,683.695508872916,0,0,10723.1487109668,10724.1957978517,13,1,0,35,9,61912038,60601728,32802028,74282147,0,20800319,0,0,0,0,41111719,0,0,0,0,40400419,0,0,0,20201309,0,0,21500109,0,0,11301919,0,0,0,0,0,0,0,0,0,31001019,22000719,20100409,-1180000,0
10,322,471.889603108139,0,0,10725.9723307085,10727.0194664835,13,0,0,3,31,234578082,234235822,190747382,159056903,31811019,21600409,-2140170,21901119,20000709,41811719,41910819,31700109,21702009,40301619,30010009,10700819,10301009,40010519,0,40501419,41200009,21210419,21410809,32000719,31410809,21010409,21900609,10901709,40611609,0,11500709,0,11901709,31710119,40011809,0,21310919,21910619,11101419,21110309
10,323,1287.95448596975,0,0,10728.5841634076,10729.6312395136,13,1,0,27,3,0,61511318,21931309,0,0,0,0,0,0,0,0,0,0,0,0,0,0,0,41100509,0,20410809,0,20901209,0,0,0,0,0,0,0,-1030100,0,0,0,0,0,0,0,0,0
10,324,588.692148163318,0,0,10731.9725297333,10733.0195785071,13,0,0,13,9,51202338,35733278,101912927,31121538,0,0,40501219,10701119,0,0,0,0,0,0,0,0,-3120040,22012019,0,10601219,0,0,0,30101109,0,0,0,0,0,40000209,31811609,0,0,0,0,10710319,20411219,0,0,0
10,325,101.955978077967,1,0,10734.7961071293,10735.8431913195,13,0,1,6,0,0,0,0,0,0,0,0,0,0,-31011991,0,0,0,0,0,0,0,0,0,0,0,0,0,0,0,0,0,0,0,0,0,0,0,0,0,0,0,0,0,0
10,326,381.869000255392,1,0,10736.9844169428,10738.031282652,13,0,1,8,19,137628985,114322746,42513928,203836313,10512009,0,10811319,41200609,40101819,20801509,0,-4190011,10011709,0,21902009,0,0,0,30810209,21000519,0,40610009,0,0,20801919,0,0,0,0,21712009,0,10210219,30411409,0,0,40501219,10101519,40601719,41610019,30400209
10,327,572.955329034812,0,0,10739.5021286117,10740.5492108771,13,0,0,18,9,10211909,78555167,51812727,72013028,0,0,0,10211909,0,0,0,0,0,0,0,41101719,21801919,0,0,11511419,0,-4140110,0,0,30401109,0,10910509,0,0,0,10501109,0,0,41811119,0,30201909,0,0,0,0
10,328,396.858786984012,1,0,10742.1493230547,10743.1963483459,13,1,1,10,3,80812018,4010001,0,30711009,40010809,0,0,40801209,0,0,0,0,0,-4010001,0,0,0,0,0,0,0,0,0,0,0,0,0,0,0,0,0,0,0,0,0,0,0,30711009,0,0
10,329,690.956257560174,0,1,10744.6669835238,10745.7140688688,13,0,1,36,31,307448811,198347823,163546373,224780233,40110809,30310219,41901309,41700809,40701809,20811409,40100319,21611619,30200509,31810419,10901309,41710719,10011519,30601019,0,0,41400919,31911919,41810409,10001709,0,10311419,40300409,0,20810809,30210709,10100909,20000119,30701809,11701419,31300419,41911919,41701519,11911009,31401909,-4150111
10,330,809.077678866743,1,0,10747.5729491098,10748.6200294504,13,0,1,20,3,20301219,0,12292040,11910319,0,0,0,0,0,0,0,20301219,0,0,0,0,0,0,0,0,0,0,0,-2181031,0,0,0,10111009,0,0,0,0,0,0,11910319,0,0,0,0,0
10,331,445.871246631214,0,0,10750.5612805581,10751.6083659032,13,0,0,25,3,0,10910219,12551029,21710209,0,0,0,0,0,0,0,0,0,0,0,0,0,0,0,0,0,10910219,0,0,0,10400019,0,0,-2151010,0,0,0,0,0,21710209,0,0,0,0,0
10,332,388.647184721776,1,0,10753.1613496201,10754.2084322705,13,1,1,34,19,134213456,115414455,165039184,76944126,0,0,31900109,31211309,30901119,40200919,0,0,0,31301309,0,11001509,21610109,20500519,0,0,0,31001009,40712009,0,21311009,0,0,40801719,41001509,10601319,10611619,30711609,0,21700209,0,11700709,11700509,-1131090,0,0
10,333,840.229489760532,1,0,10755.6908333952,10756.7379248996,13,1,1,31,31,266869351,248158511,167737793,167754044,10910819,21610119,10601419,41210509,41401519,30011519,30701209,40411619,40010619,20210509,31310009,40101319,41301909,20700209,21501209,21811109,10711219,40511019,30211909,31011309,0,11801009,11110409,40700119,21801219,21101819,0,30900009,11300019,31611609,-1130150,40710919,0,0,21601219,30500119
10,334,656.492627515036,1,0,10758.620329335,10759.6674135252,13,0,1,32,19,167258004,95416955,153557514,46172188,0,22012019,31200509,0,31011319,10810919,0,30412019,41811219,0,20101319,0,31701909,0,10701209,21110909,11801609,0,30611919,31311319,0,0,40411219,0,20000019,20511519,10711519,0,10810909,0,0,-4161060,0,0,31200219,0
10,335,531.82148041742,0,0,10761.3380578651,10762.3851405155,13,1,0,7,3,1180180,21300319,11901609,11700109,0,0,0,0,0,0,-1180180,0,0,0,0,0,0,0,0,0,0,21300319,0,0,0,11901609,0,0,0,0,0,0,0,11700109,0,0,0,0,0,0
10,336,388.441230608805,1,0,10764.1263763017,10765.1734620318,13,0,1,29,31,156764673,188128792,198561231,209587384,20811209,31211209,10310319,21010309,0,0,21100809,21310209,31010609,30002009,31600819,10200309,12011109,21500619,31201209,10401809,0,41210909,41010919,10210409,11212019,30511609,10001919,10900119,21802009,42001519,20910709,11201819,-3151181,31200209,20910809,40700109,21411819,40110719,0,40900719
10,337,379.150967733949,1,1,10766.6676229439,10767.7147067492,13,0,0,26,9,52111738,82824747,103273488,41202009,0,0,0,0,40501519,11610219,0,0,0,0,0,30311319,31511619,0,0,0,21001809,0,0,0,0,0,40711619,0,31201419,-1050131,30310319,0,0,0,0,0,0,0,41202009,0
10,338,408.543891997397,0,0,10769.244192834,10770.2912535415,13,1,0,19,19,73314356,147715155,74725376,155936194,21500009,0,10111109,0,10601719,0,0,31101519,0,0,21800809,0,0,32000309,41901309,30300909,21711819,0,-2000130,0,10400909,11411819,0,0,30510609,20401909,0,20701819,21100009,0,21400919,10210919,41211219,0,41311309,0
10,339,407.879449378015,1,0,10804.8687284748,10805.9158184394,14,1,1,9,19,86104567,125423965,103203147,156916103,31100219,0,0,0,20101919,0,10800009,21911309,-2191111,0,0,0,31201209,31600219,30311309,0,21410509,10900719,40201409,42000519,0,0,0,0,0,21001219,0,10400419,31800119,0,0,21500219,20501619,31001609,11600409,30111709
10,340,468.545447240103,0,0,10807.4688098556,10808.5158940458,14,1,0,1,9,24521700,73922437,0,115224655,-4010181,20511519,0,0,0,0,0,0,0,0,0,0,0,0,0,11700019,21511309,40711109,0,0,0,0,0,0,0,0,0,21401219,21200009,0,20901909,30511509,0,0,21210009,0
10,341,468.456521259213,1,0,10810.0100522632,10811.0571441526,14,0,1,8,3,1161071,60912218,41610009,0,0,0,0,0,0,0,0,-1161071,0,0,0,0,30800509,0,30111709,0,0,0,0,0,0,0,0,41610009,0,0,0,0,0,0,0,0,0,0,0,0
10,342,611.906833961257,0,0,10812.5983757813,10813.6454534271,14,0,0,25,31,198442821,209359502,157724435,191768612,10200819,31511609,40402009,30101619,21802009,11801319,20011319,11900509,20711609,21810909,41201109,12001709,30611619,30210209,31501719,21710719,20311509,0,11210409,30010019,0,31400719,20600719,40901719,-2000141,0,21600709,20900319,31111809,11910119,41810909,22011909,41710619,11711809,10601119,0
10,343,356.351269852894,1,1,10815.3160950724,10816.3631873467,14,0,0,15,3,31000009,34711109,22011209,0,31000009,0,0,0,0,0,0,0,0,31601009,0,0,0,0,-3110100,0,0,0,0,0,0,0,0,0,0,0,22011209,0,0,0,0,0,0,0,0,0
10,344,367.634090660431,0,0,10817.8338179051,10818.8809036351,14,0,0,20,31,268539512,210236612,158736044,188839522,31411919,10700819,41711119,40301909,0,40900109,31201119,41311509,31001009,31500819,21310619,31210209,31800509,21501419,10510319,30601409,31801309,0,11110519,-2011051,40200109,30910319,0,12001109,10301909,31100909,21100119,31610709,11301509,20501219,30211119,21411709,40000419,22000919,0,11801919
10,345,569.637735470678,1,0,10820.3397728662,10821.3868547466,14,1,1,34,19,134213456,115414455,165039184,76944126,0,0,31900109,31211309,30901119,40200919,0,0,0,31301309,0,11001509,21610109,20500519,0,0,0,31001009,40712009,0,21311009,0,0,40801719,41001509,10601319,10611619,30711609,0,21700209,0,11700709,11700509,-1131090,0,0
10,346,381.633196011535,0,0,10823.1045663385,10824.1516416746,14,0,0,25,0,0,0,0,0,0,0,0,0,0,0,0,0,0,0,0,0,0,0,0,0,0,0,0,0,0,0,0,0,-41510801,0,0,0,0,0,0,0,0,0,0,0
10,347,396.885349289732,0,0,10825.7164032721,10826.763490542,14,0,0,26,9,73712738,63122247,116832517,40302019,42001919,0,0,0,0,31710819,0,0,0,0,0,11411119,31301019,0,0,0,0,20410109,0,0,30111309,0,0,40910319,41810809,-4000080,0,0,0,0,0,0,0,40302019,0,0
10,348,512.203484879137,1,0,10828.2341230252,10829.2812076003,14,0,1,32,9,20711709,134735065,11710909,55441728,0,0,0,0,0,0,0,0,20711709,41601219,30610309,0,0,20111909,11610319,0,30801309,0,0,0,0,11710909,0,0,0,0,0,0,0,0,0,-2020000,21610309,31811419,0,0
10,349,837.170974926266,1,0,10830.9871840422,10832.0342193424,14,0,1,4,19,105954226,74934456,146637784,145435845,0,31801219,0,-1041160,10810019,0,0,40901609,21400219,11700009,31111619,21410909,0,0,0,0,0,10711919,30610719,21301319,20801809,0,0,41111409,20801509,12011019,0,21601309,21110909,0,42012009,0,30600109,0,0,30111509
