sub_id,Trial,RT,Resp,Error,Fix_onset,Disp_onset,block,repeat,tid,tloc,d_setsize,quad1,quad2,quad3,quad4,loc1,loc2,loc3,loc4,loc5,loc6,loc7,loc8,loc9,loc10,loc11,loc12,loc13,loc14,loc15,loc16,loc17,loc18,loc19,loc20,loc21,loc22,loc23,loc24,loc25,loc26,loc27,loc28,loc29,loc30,loc31,loc32,loc33,loc34,loc35,loc36
27,1,539.526218664832,1,0,599852.52019262,599853.567250814,1,1,1,35,9,103823955,21611209,40220628,15982219,11300009,11211809,0,0,40701709,0,0,30500309,10110119,0,0,0,0,0,0,0,0,21611209,0,0,0,0,0,10110209,30110419,0,0,0,0,0,0,0,0,11801219,-4181000,0
27,2,804.863892379217,0,0,599855.179018885,599856.22606707,1,1,0,17,19,95424936,156817244,83622547,186726464,0,0,20811709,41401809,11601309,0,0,21610109,0,20811009,11100909,0,20012019,30410419,31110319,40211409,-3161160,0,31411419,0,0,0,0,40900209,11310919,0,0,41801209,0,40701309,0,40610719,31600209,20401209,0,11611809
27,3,444.645680254325,0,0,599858.084875935,599859.131983019,1,1,0,20,9,21900609,53924657,46600888,72213937,0,0,0,0,0,0,0,21900609,0,20312019,0,11701119,0,21911519,0,0,0,0,0,-4080050,0,21610419,0,0,20910419,0,0,0,20511509,0,21601019,0,0,0,30101409,0
27,4,361.267819534987,1,0,599860.614287065,599861.66133371,1,0,1,36,3,0,30910309,0,43953218,0,0,0,0,0,0,0,0,0,0,0,0,0,0,0,0,0,30910309,0,0,0,0,0,0,0,0,0,0,0,0,0,0,21212019,21701009,0,-1040190
27,5,491.017871187069,1,0,599863.04956025,599864.096611515,1,0,1,10,19,146512165,154557896,62221527,149634594,0,0,0,42001209,0,41800419,10600109,41400009,10710419,-1031031,0,21601409,20011319,0,41702009,30000409,40211719,0,0,0,0,0,0,21010009,0,11000409,30211109,0,0,21200719,41801119,11610319,11910909,31701509,0,31410019
27,6,419.568456709385,0,0,599865.673077375,599866.720129024,1,1,0,32,3,31211419,40710109,40800909,1150160,0,0,0,0,0,0,31211419,0,0,0,0,0,0,40710109,0,0,0,0,0,0,0,0,0,40800909,0,0,0,0,0,0,0,-1150160,0,0,0,0
27,7,397.697585518472,0,0,599868.178953056,599869.225986228,1,0,0,26,3,32302528,0,36191979,0,0,0,0,0,21401509,0,10901019,0,0,0,0,0,0,0,0,0,0,0,0,0,0,32000909,0,0,0,-4191070,0,0,0,0,0,0,0,0,0,0
27,8,365.761871100403,0,0,599870.673053122,599871.720107466,1,0,0,15,3,10900919,41970190,20100019,0,0,0,0,0,0,0,10900919,0,0,0,0,0,0,40800009,-1170181,0,0,0,0,0,0,0,20100019,0,0,0,0,0,0,0,0,0,0,0,0,0
27,9,419.226995087229,1,0,599873.26127381,599874.30832161,1,0,1,34,9,122313357,72712538,62901438,53421978,41401019,40110319,0,0,0,0,0,40802019,0,0,0,0,41010519,0,0,0,31702019,0,0,0,0,0,0,21100119,41801319,0,0,0,30310419,0,0,0,0,-2011150,21100409,0
27,10,637.193885282613,1,0,599875.908324074,599876.955374184,1,1,1,2,19,104521847,103123346,156747283,61624436,0,-1010001,0,30300409,31100009,0,0,31300209,10811219,0,0,0,0,10601509,11710019,0,40801609,40010209,0,30510009,30911509,21210709,31910319,10201509,21501909,10501319,0,10010209,0,0,0,10701709,0,20902009,20010509,0
27,11,460.499588632956,1,0,599878.614193519,599879.661243244,1,0,1,11,9,61326236,54902159,71621228,40901419,0,20001809,0,10612009,0,20001809,0,0,10710609,0,-4090021,30801119,0,0,0,0,20011019,0,0,30010209,0,0,0,0,0,0,41611019,40901419,0,0,0,0,0,0,0,0
27,12,492.424138938077,1,0,599881.261235699,599882.308276185,1,0,1,30,19,154925165,105723436,117564203,83281747,30310119,20901509,20801809,0,0,0,0,42011409,40900319,0,0,11310609,0,0,41200009,21711009,0,31501809,11510019,11810909,20200419,10710119,0,41710409,10812019,10810309,0,0,40310209,-1160010,0,30801009,11010519,0,0,0
27,13,459.051359910518,0,1,599883.849457542,599884.896511886,1,1,1,19,31,188149632,247562922,169866853,219027602,31511219,20311519,0,20001109,10311709,30501219,11901319,32000319,31611219,0,40812019,40601109,40412019,30411619,21810909,31602019,10311419,31601809,-4030070,20300109,31001809,0,40400709,10310619,21812009,21511319,20500209,40011719,41800419,32000809,40401309,11011319,11700209,21800109,0,20301709
27,14,686.856350162998,1,0,599886.484752208,599887.531790769,1,1,1,4,3,2161090,0,0,51624857,0,0,0,-2161090,0,0,0,0,0,0,0,0,0,0,0,0,0,0,0,0,0,0,0,0,0,0,0,0,0,0,0,10911819,30102019,10611019,0,0
27,15,814.845968503505,0,0,599889.37884981,599890.42589453,1,1,0,1,31,231787442,165926093,188437421,204935003,-2140140,21501109,30910409,20401509,41301109,41610819,21900319,31210709,20811319,21300009,0,40010719,0,20801109,31310519,11501009,30401419,10601309,20311409,11501809,20900619,10200619,11200009,40711109,41210019,11301309,21100519,0,0,31900109,30310719,41000809,10310909,40701619,30400219,20310619
27,16,648.418235243298,1,0,599892.308245003,599893.355301272,1,1,1,16,3,51222738,3110111,40901009,0,0,0,0,20011919,0,0,0,0,31210819,0,0,0,0,0,0,-3110111,0,0,0,40901009,0,0,0,0,0,0,0,0,0,0,0,0,0,0,0,0
27,17,534.604473854415,1,0,599895.120005682,599896.167050403,1,1,1,9,9,44241547,0,93313646,41820518,10300319,0,20800019,0,0,0,0,12000119,-1141090,0,0,0,0,0,0,0,0,0,0,40000819,11600109,0,31702009,0,0,0,10010709,0,0,0,10210509,0,0,0,31610009,0
27,18,697.061704588123,0,0,599897.743513953,599898.790605254,1,0,0,7,31,213205874,227638012,178838822,247359202,41810609,21211009,11911109,32000009,0,42000609,-1161091,31211419,31900019,20211919,0,20701109,41510919,31901309,40500009,21401719,41410209,10000819,10701909,21101509,22010919,21010619,31702019,10101219,20600019,41610609,0,0,41610409,40901509,31211119,11401509,30710819,10612009,40010019,40901809
27,19,600.32564715948,0,0,599900.555269243,599901.602319353,1,0,0,28,31,281326422,208460341,183825484,182849803,31400119,31200409,40800919,21401119,41401319,0,31410319,42001709,41710509,30001719,10911709,21000619,31100819,30310009,22011219,21111619,20001419,22011209,0,40301509,30301019,0,41200719,31510309,20011219,0,20500709,-4200001,21401009,21301909,10611919,30611419,11710109,22001609,40911509,20100319
27,20,594.380672089756,0,0,599903.367017219,599904.414066944,1,1,0,27,0,0,0,0,0,0,0,0,0,0,0,0,0,0,0,0,0,0,0,0,0,0,0,0,0,0,0,0,0,0,0,-21001891,0,0,0,0,0,0,0,0,0
27,21,491.988746449351,0,0,599906.049361994,599907.096398631,1,0,0,21,0,0,0,0,0,0,0,0,0,0,0,0,0,0,0,0,0,0,0,0,0,0,0,0,0,-31100091,0,0,0,0,0,0,0,0,0,0,0,0,0,0,0
27,22,670.588607201353,0,0,599908.778758419,599909.825804295,1,0,0,24,31,230945612,194844292,127297855,199458621,21500319,32000119,0,40611119,32010309,20110209,31800119,41211509,11701909,10000019,0,21611509,20210209,40400009,10301019,21810309,40310309,30200909,10401409,10511919,12011309,40000209,41001619,-3160081,0,10211309,0,11100309,31401019,11201309,10710319,40612019,10410609,41901319,11810909,30310809
27,23,543.241106322967,1,0,599911.602270078,599912.649320957,1,0,1,6,9,95374257,114435566,11011509,10900509,41501619,0,0,0,0,-1151110,31811219,0,20910309,0,41301619,12011509,20710919,40411519,0,0,0,0,0,0,0,0,0,11011509,0,0,0,10900509,0,0,0,0,0,0,0,0
27,24,707.124237786047,0,0,599914.249319187,599915.296366602,1,0,0,18,19,195235184,88245447,135514385,152713466,20701319,41400509,40311709,0,30510009,40811519,0,21500119,0,0,0,0,11701809,0,31412009,20700509,20410919,-4020201,0,41801119,11802019,30900119,0,0,30810719,20200409,0,0,0,0,0,41301519,40000519,41200409,30211019,0
27,25,504.527743207291,0,0,599917.025771496,599918.07282815,1,1,0,21,31,218534593,196867231,130976694,287740621,10900719,41510119,22010309,31400409,30900609,0,40300719,41511709,0,21400619,20701919,21011319,10010119,10211019,10610409,40311509,31510009,31100309,31510809,21300919,-2050090,11701819,21601319,21600019,21211719,0,0,41001409,30301909,21700019,40201419,30310819,11701309,41100109,40911609,30512019
27,26,476.679560029879,1,0,599919.625765875,599920.672819835,1,1,1,12,19,114733956,189673596,144343294,125731966,0,30310409,0,40700119,0,11911809,0,0,31811619,20700009,0,-4140121,41011719,40710119,41500909,41610719,0,0,20210309,21200119,0,40011219,11000219,0,41810509,10110919,0,0,31800019,0,0,20710109,0,41410519,31811319,0
27,27,611.771735479124,1,0,599935.943395308,599936.990383438,2,0,1,10,9,20001209,117276127,22213728,51722518,0,0,0,0,0,0,0,20001209,0,-2141181,40811209,31510909,0,0,0,22001419,20811409,0,0,0,0,0,0,10402019,11811709,0,0,0,0,0,0,0,30411509,0,21311009,0
27,28,673.78764518071,0,0,599938.79038852,599939.837430545,2,0,0,6,31,163847353,164935033,239930111,238948502,12011119,0,21600619,11210009,20900219,-3111130,21711419,31801319,41501519,22002019,41200719,31010619,10100119,30000519,0,20010319,10610719,0,30000019,30101019,21401509,31610209,11802019,40511909,11301409,21900609,41301409,41800019,41201009,10611709,21501409,11102009,0,41911519,30610009,40210819
27,29,590.935643180273,0,0,599941.637491831,599942.684476113,2,1,0,35,9,103823955,21611209,40220628,15982219,11300009,11211809,0,0,40701709,0,0,30500309,10110119,0,0,0,0,0,0,0,0,21611209,0,0,0,0,0,10110209,30110419,0,0,0,0,0,0,0,0,11801219,-4181000,0
27,30,607.18567785807,1,0,599944.46094382,599945.50799393,2,1,1,2,19,104521847,103123346,156747283,61624436,0,-1010001,0,30300409,31100009,0,0,31300209,10811219,0,0,0,0,10601509,11710019,0,40801609,40010209,0,30510009,30911509,21210709,31910319,10201509,21501909,10501319,0,10010209,0,0,0,10701709,0,20902009,20010509,0
27,31,596.136485808529,1,0,599947.260929654,599948.307972834,2,0,1,26,9,71103647,72402118,61281089,62513018,0,20600219,20101509,0,0,30401919,0,0,0,41500509,0,0,30901609,0,0,0,0,0,0,0,0,0,0,40010319,0,-1070161,20200609,0,40512009,0,0,22001009,0,0,0,0
27,32,541.720119654201,0,0,599950.084447856,599951.131511825,2,0,0,23,0,0,0,0,0,0,0,0,0,0,0,0,0,0,0,0,0,0,0,0,0,0,0,0,0,0,0,-41411201,0,0,0,0,0,0,0,0,0,0,0,0,0
27,33,584.366259048693,0,0,599952.872663463,599953.919720117,2,1,0,16,3,51222738,3110111,40901009,0,0,0,0,20011919,0,0,0,0,31210819,0,0,0,0,0,0,-3110111,0,0,0,40901009,0,0,0,0,0,0,0,0,0,0,0,0,0,0,0,0
27,34,482.16835455969,0,0,599955.660891004,599956.707942268,2,1,0,32,3,31211419,40710109,40800909,1150160,0,0,0,0,0,0,31211419,0,0,0,0,0,0,40710109,0,0,0,0,0,0,0,0,0,40800909,0,0,0,0,0,0,0,-1150160,0,0,0,0
27,35,622.993775526993,0,0,599958.390295513,599959.437338308,2,0,0,30,3,0,31611519,20201909,25221050,0,0,0,0,0,0,0,0,0,0,0,0,0,31611519,0,0,0,0,0,0,0,0,20201909,0,0,0,0,0,0,-4010041,0,0,0,21211009,0,0
27,36,505.050907144323,0,0,599961.107921711,599962.15498029,2,0,0,34,3,0,30500709,30012019,42612909,0,0,0,0,0,0,0,0,0,0,0,0,0,0,0,30500709,0,0,0,30012019,0,0,0,0,0,0,0,0,0,40411719,0,0,0,-2201190,0,0
27,37,590.978758991696,1,0,599963.790261867,599964.837313132,2,0,1,36,3,62011738,42011519,0,4031070,0,0,41900919,0,0,0,20110819,0,0,0,42011519,0,0,0,0,0,0,0,0,0,0,0,0,0,0,0,0,0,0,0,0,0,0,0,0,-4031070
27,38,641.836917377077,1,0,599966.449064649,599967.496132082,2,1,1,12,19,114733956,189673596,144343294,125731966,0,30310409,0,40700119,0,11911809,0,0,31811619,20700009,0,-4140121,41011719,40710119,41500909,41610719,0,0,20210309,21200119,0,40011219,11000219,0,41810509,10110919,0,0,31800019,0,0,20710109,0,41410519,31811319,0
27,39,543.921334901825,0,0,599969.190244005,599970.237284106,2,0,0,28,31,156456683,183047711,269569531,98908885,0,0,21510009,31010909,40311609,10410119,30401819,11811709,11000509,11701619,32010309,11101809,11810109,30800509,12011019,21010809,11500209,41101319,21101619,30811819,20410319,11410709,30201209,41210009,32011319,41201119,41211409,-4180191,20701519,10601519,30101509,0,11802019,10211519,0,11310609
27,40,598.043974721804,1,0,599971.849078739,599972.896160801,2,1,1,9,9,44241547,0,93313646,41820518,10300319,0,20800019,0,0,0,0,12000119,-1141090,0,0,0,0,0,0,0,0,0,0,40000819,11600109,0,31702009,0,0,0,10010709,0,0,0,10210509,0,0,0,31610009,0
27,41,634.041427751072,0,0,599974.696096974,599975.743162867,2,1,0,4,3,2161090,0,0,51624857,0,0,0,-2161090,0,0,0,0,0,0,0,0,0,0,0,0,0,0,0,0,0,0,0,0,0,0,0,0,0,0,0,10911819,30102019,10611019,0,0
27,42,884.322065394372,1,0,599977.507839945,599978.554890825,2,0,1,7,19,119316347,105124665,114122776,205419494,0,21801509,0,12001309,0,41301609,-2201201,0,42010719,20911409,0,11700219,20801309,0,21301009,30410719,0,0,0,0,0,11510819,41101619,0,21010219,0,40500119,42011519,41302009,30201809,0,10201619,0,41001619,40700919,0
27,43,594.679787871428,1,0,599980.57841665,599981.625472149,2,0,1,18,9,20910209,114336046,31801309,101722327,0,20910209,0,0,0,0,0,0,0,0,0,10501109,40311409,0,0,30001409,30511009,-3011110,0,0,0,0,0,0,0,0,31801309,0,40211509,31510709,0,0,0,0,30000109,0
27,44,758.775803726166,1,0,599983.28428648,599984.33133274,2,1,1,1,31,231787442,165926093,188437421,204935003,-2140140,21501109,30910409,20401509,41301109,41610819,21900319,31210709,20811319,21300009,0,40010719,0,20801109,31310519,11501009,30401419,10601309,20311409,11501809,20900619,10200619,11200009,40711109,41210019,11301309,21100519,0,0,31900109,30310719,41000809,10310909,40701619,30400219,20310619
27,45,508.306534495205,1,0,599986.213689373,599987.260735248,2,1,1,20,9,21900609,53924657,46600888,72213937,0,0,0,0,0,0,0,21900609,0,20312019,0,11701119,0,21911519,0,0,0,0,0,-4080050,0,21610419,0,0,20910419,0,0,0,20511509,0,21601019,0,0,0,30101409,0
27,46,506.049884599634,1,0,599988.896075339,599989.943071939,2,0,1,11,31,197936131,171207865,164415283,250947721,11600409,20300309,10810419,21400119,30000919,10700009,40701419,11611619,40810909,30302019,-4170181,40210309,21901619,31400919,21510909,21711909,0,0,30010519,20401219,40900309,10101509,0,0,21001609,20200009,21800109,41311319,30101219,21700309,11300009,42000309,11910019,20911619,30711509,41001409
27,47,408.860726398416,1,0,599991.637193871,599992.684243595,2,1,1,21,31,218534593,196867231,130976694,287740621,10900719,41510119,22010309,31400409,30900609,0,40300719,41511709,0,21400619,20701919,21011319,10010119,10211019,10610409,40311509,31510009,31100309,31510809,21300919,-2050090,11701819,21601319,21600019,21211719,0,0,41001409,30301909,21700019,40201419,30310819,11701309,41100109,40911609,30512019
27,48,432.549005374312,1,0,599994.178356365,599995.2254007,2,1,1,27,0,0,0,0,0,0,0,0,0,0,0,0,0,0,0,0,0,0,0,0,0,0,0,0,0,0,0,0,0,0,0,-21001891,0,0,0,0,0,0,0,0,0
27,49,502.351550501771,0,0,599996.672452196,599997.71950808,2,1,0,19,31,188149632,247562922,169866853,219027602,31511219,20311519,0,20001109,10311709,30501219,11901319,32000319,31611219,0,40812019,40601109,40412019,30411619,21810909,31602019,10311419,31601809,-4030070,20300109,31001809,0,40400709,10310619,21812009,21511319,20500209,40011719,41800419,32000809,40401309,11011319,11700209,21800109,0,20301709
27,50,567.421752144583,0,0,599999.378362062,600000.42537637,2,0,0,24,19,239888591,105135155,73135058,61102128,40310609,22010809,40910709,21610909,40210709,31611409,11400709,10010719,21812009,11501819,0,0,11010609,30910909,21010909,0,0,30700909,41401119,20411209,0,0,0,-1011121,0,10311609,0,0,0,0,30600519,0,0,0,0,30501609
27,51,503.163436311297,0,0,600002.201846773,600003.248892648,2,1,0,17,19,95424936,156817244,83622547,186726464,0,0,20811709,41401809,11601309,0,0,21610109,0,20811009,11100909,0,20012019,30410419,31110319,40211409,-3161160,0,31411419,0,0,0,0,40900209,11310919,0,0,41801209,0,40701309,0,40610719,31600209,20401209,0,11611809
27,52,456.747744581662,0,0,600004.94301458,600005.990064689,2,0,0,15,19,125315675,105203177,184815765,116736575,21900419,0,41500709,31502019,10410619,0,0,20001909,0,40111109,0,11600309,0,0,-1180131,21810809,0,30500819,41601819,41000809,0,31111119,0,0,40900909,0,30201109,21611519,0,0,32001519,11111209,0,31010709,21001619,0
27,53,594.038825365715,1,0,600021.260575488,600022.307626368,3,0,1,34,9,63610538,82614556,20300419,63631908,0,41800419,0,0,0,0,21810119,0,0,0,10601019,40401909,0,0,20110819,0,0,11500809,0,0,0,0,0,0,0,20300419,0,0,0,0,0,0,20010709,-3121180,0,40500019
27,54,453.924815054052,0,0,600023.942984553,600024.989991546,3,1,0,27,0,0,0,0,0,0,0,0,0,0,0,0,0,0,0,0,0,0,0,0,0,0,0,0,0,0,0,0,0,0,0,-21001891,0,0,0,0,0,0,0,0,0
27,55,1117.57388943806,1,1,600026.625268504,600027.672313609,3,1,0,1,31,231787442,165926093,188437421,204935003,-2140140,21501109,30910409,20401509,41301109,41610819,21900319,31210709,20811319,21300009,0,40010719,0,20801109,31310519,11501009,30401419,10601309,20311409,11501809,20900619,10200619,11200009,40711109,41210019,11301309,21100519,0,0,31900109,30310719,41000809,10310909,40701619,30400219,20310619
27,56,815.215917420574,0,0,600029.907622673,600030.954639675,3,1,0,19,31,188149632,247562922,169866853,219027602,31511219,20311519,0,20001109,10311709,30501219,11901319,32000319,31611219,0,40812019,40601109,40412019,30411619,21810909,31602019,10311419,31601809,-4030070,20300109,31001809,0,40400709,10310619,21812009,21511319,20500209,40011719,41800419,32000809,40401309,11011319,11700209,21800109,0,20301709
27,57,484.871560824104,0,0,600032.84875845,600033.89580856,3,0,0,26,3,0,83211747,4010200,0,0,0,0,0,0,0,0,0,0,21111109,0,0,21900319,40200319,0,0,0,0,0,0,0,0,0,0,0,-4010200,0,0,0,0,0,0,0,0,0,0
27,58,558.117594919167,0,0,600035.554621351,600036.601676466,3,1,0,21,31,218534593,196867231,130976694,287740621,10900719,41510119,22010309,31400409,30900609,0,40300719,41511709,0,21400619,20701919,21011319,10010119,10211019,10610409,40311509,31510009,31100309,31510809,21300919,-2050090,11701819,21601319,21600019,21211719,0,0,41001409,30301909,21700019,40201419,30310819,11701309,41100109,40911609,30512019
27,59,839.316876139492,1,0,600038.272266028,600039.319309593,3,1,1,2,19,104521847,103123346,156747283,61624436,0,-1010001,0,30300409,31100009,0,0,31300209,10811219,0,0,0,0,10601509,11710019,0,40801609,40010209,0,30510009,30911509,21210709,31910319,10201509,21501909,10501319,0,10010209,0,0,0,10701709,0,20902009,20010509,0
27,60,648.678854689933,0,0,600041.342893163,600042.389882063,3,1,0,20,9,21900609,53924657,46600888,72213937,0,0,0,0,0,0,0,21900609,0,20312019,0,11701119,0,21911519,0,0,0,0,0,-4080050,0,21610419,0,0,20910419,0,0,0,20511509,0,21601019,0,0,0,30101409,0
27,61,612.003867747262,1,0,600044.201649287,600045.248750982,3,0,1,24,31,126348493,281849651,120419504,250749002,12011609,30401019,0,11300819,10811409,31001719,20210909,0,10611009,31800519,10811519,41111019,41110219,21811709,11900119,40700619,40602009,42001919,11301919,20011019,21001619,22011109,0,-2181111,22010109,10601509,11301109,31010819,11710909,41401219,21601019,40011809,21300709,0,41810809,41901709
27,62,684.985817642882,0,0,600046.907516808,600047.954559218,3,1,0,16,3,51222738,3110111,40901009,0,0,0,0,20011919,0,0,0,0,31210819,0,0,0,0,0,0,-3110111,0,0,0,40901009,0,0,0,0,0,0,0,0,0,0,0,0,0,0,0,0
27,63,571.284465375356,0,0,600049.766327982,600050.813373087,3,1,0,9,9,44241547,0,93313646,41820518,10300319,0,20800019,0,0,0,0,12000119,-1141090,0,0,0,0,0,0,0,0,0,0,40000819,11600109,0,31702009,0,0,0,10010709,0,0,0,10210509,0,0,0,31610009,0
27,64,559.862244757824,1,0,600052.401605324,600053.448695855,3,0,1,6,19,179365175,167824455,103911876,111833666,0,30410219,11900619,41510319,30111719,-4110181,0,41310309,20011809,0,0,21700409,0,41910119,0,30911609,31601609,41700709,0,30600119,0,42000219,0,10400019,0,0,20911519,10900819,0,40711119,40011309,0,0,20210419,0,0
27,65,499.175225384533,0,0,600055.119239607,600056.166292797,3,0,0,13,0,0,0,0,0,0,0,0,0,0,0,0,0,0,0,0,0,-20411491,0,0,0,0,0,0,0,0,0,0,0,0,0,0,0,0,0,0,0,0,0,0,0
27,66,575.056327390485,1,0,600057.778051628,600058.825103663,3,0,1,7,3,4070201,31911709,31412728,0,0,0,0,0,0,0,-4070201,0,0,0,0,0,0,0,31911709,0,0,0,0,0,0,20401809,0,0,0,11010919,0,0,0,0,0,0,0,0,0,0
27,67,498.38412750978,1,0,600060.530975033,600061.578026298,3,1,1,35,9,103823955,21611209,40220628,15982219,11300009,11211809,0,0,40701709,0,0,30500309,10110119,0,0,0,0,0,0,0,0,21611209,0,0,0,0,0,10110209,30110419,0,0,0,0,0,0,0,0,11801219,-4181000,0
27,68,625.861745793372,1,0,600063.142732325,600064.189785515,3,0,1,36,19,82933337,74420756,157044474,178505314,30910919,0,0,0,41610409,0,0,0,10412009,0,10500119,11310019,21610109,31000509,0,0,0,0,0,31001219,0,11410909,21210619,40910109,21301609,0,31210009,0,20501019,10410209,0,41311109,41210409,31411419,31611019,-2050130
27,69,519.091642345302,1,0,600065.860371612,600066.907417487,3,0,1,11,3,42912628,44411489,0,0,0,0,0,0,0,0,20910909,0,22001719,0,-4010070,0,40401419,0,0,0,0,0,0,0,0,0,0,0,0,0,0,0,0,0,0,0,0,0,0,0
27,70,431.644728640094,1,0,600068.589766882,600069.636819687,3,1,1,12,19,114733956,189673596,144343294,125731966,0,30310409,0,40700119,0,11911809,0,0,31811619,20700009,0,-4140121,41011719,40710119,41500909,41610719,0,0,20210309,21200119,0,40011219,11000219,0,41810509,10110919,0,0,31800019,0,0,20710109,0,41410519,31811319,0
27,71,540.55868787691,0,0,600071.189749713,600072.236799438,3,0,0,10,19,93623937,86334926,103834336,260931712,0,21101519,0,0,32010409,0,0,40512009,0,-3020060,0,0,0,40511919,11101519,0,20401309,11300119,0,0,0,0,41312009,10400909,0,21511409,30610009,41500419,42001809,10102019,40701809,41402019,31600509,0,41811509,11811619
27,72,591.492298990488,0,0,600073.836804981,600074.883855091,3,0,0,30,9,32722538,84312566,70123328,42920700,0,11611019,0,0,0,0,0,0,21111519,20600209,11700519,0,11610819,0,0,0,40401019,0,30111609,0,0,0,0,0,40011719,0,0,0,0,-2020191,0,0,0,0,0,40900509
27,73,529.397856793366,1,0,600076.53090805,600077.577954695,3,1,1,4,3,2161090,0,0,51624857,0,0,0,-2161090,0,0,0,0,0,0,0,0,0,0,0,0,0,0,0,0,0,0,0,0,0,0,0,0,0,0,0,10911819,30102019,10611019,0,0
27,74,598.190645338036,0,0,600079.260290616,600080.307361899,3,1,0,17,19,95424936,156817244,83622547,186726464,0,0,20811709,41401809,11601309,0,0,21610109,0,20811009,11100909,0,20012019,30410419,31110319,40211409,-3161160,0,31411419,0,0,0,0,40900209,11310919,0,0,41801209,0,40701309,0,40610719,31600209,20401209,0,11611809
27,75,497.887910925783,1,0,600081.98970013,600083.036749855,3,0,1,15,9,40300019,109983567,51922928,62711718,0,0,0,40300019,0,0,0,0,0,0,31510609,0,21810019,0,-4161001,21300819,31201119,0,0,31411009,0,0,20511919,0,0,0,0,0,0,0,31300009,0,0,31411709,0,0
27,76,502.442016615532,1,0,600084.730861392,600085.777912657,3,1,1,32,3,31211419,40710109,40800909,1150160,0,0,0,0,0,0,31211419,0,0,0,0,0,0,40710109,0,0,0,0,0,0,0,0,0,40800909,0,0,0,0,0,0,0,-1150160,0,0,0,0
27,77,795.627103419974,1,0,600087.342620609,600088.389670334,3,0,1,18,31,208065513,159609043,199428721,217458022,30710919,11510909,40300219,0,11910019,42011819,0,40011519,31610109,40801509,21801809,11211109,41311219,10512009,21100719,10710509,0,-2160160,10200619,30801309,20901319,21600819,21801409,42000609,10510419,11000409,30611809,40011309,21101719,11711409,20100719,0,41311319,10510109,42001219,30710219
27,78,495.974647579715,0,0,600090.201451416,600091.248483433,3,0,0,28,31,190151531,237176722,128047484,168636643,31601919,10810609,10201419,21901509,11700109,11612019,40700819,40311409,11311719,40610609,20110819,40310119,41211019,0,31111009,21811409,31100819,10910919,0,20611819,41801909,0,11401919,11810819,20810409,21610609,0,-1180021,30310719,20400619,20800819,11302009,10810619,11910809,21210219,40710809
27,79,707.053019781597,1,0,600096.307274512,600097.354325007,4,0,1,10,19,168548093,56884427,111443776,94432846,41410909,10410419,0,22011809,21901909,20401819,0,21811219,30600009,-3061071,20111109,0,11201119,0,0,0,11801119,10710009,40012019,30810519,0,10410419,0,30210819,0,0,0,20511219,0,0,0,0,10710209,0,31501209,31710209
27,80,622.636915417388,0,0,600099.083735676,600100.130788865,4,0,0,36,3,0,32901118,0,12682379,0,0,0,0,0,0,0,0,0,11800009,0,0,0,21101109,0,0,0,0,0,0,0,0,0,0,0,0,0,0,11501319,0,0,0,0,0,0,-1181060
27,81,515.575395314954,0,0,600101.836668705,600102.88371612,4,1,0,4,3,2161090,0,0,51624857,0,0,0,-2161090,0,0,0,0,0,0,0,0,0,0,0,0,0,0,0,0,0,0,0,0,0,0,0,0,0,0,0,10911819,30102019,10611019,0,0
27,82,481.783777009696,0,0,600104.58958595,600105.636641064,4,1,0,21,31,218534593,196867231,130976694,287740621,10900719,41510119,22010309,31400409,30900609,0,40300719,41511709,0,21400619,20701919,21011319,10010119,10211019,10610409,40311509,31510009,31100309,31510809,21300919,-2050090,11701819,21601319,21600019,21211719,0,0,41001409,30301909,21700019,40201419,30310819,11701309,41100109,40911609,30512019
27,83,491.432475741021,1,0,600107.177819342,600108.224863677,4,1,1,27,0,0,0,0,0,0,0,0,0,0,0,0,0,0,0,0,0,0,0,0,0,0,0,0,0,0,0,0,0,0,0,-21001891,0,0,0,0,0,0,0,0,0
27,84,844.003408914432,1,0,600109.84839851,600110.895457859,4,0,1,26,31,176226194,210250011,235866152,197860312,0,40611819,32000909,41501319,20110319,30600609,0,11401219,0,21501219,12001409,31411119,31700709,41510009,10201809,20810309,10301519,30811909,40300219,20110309,30801819,10301919,41811119,10500019,40300619,-1140010,40600119,20511519,0,40301119,10701709,31810119,21501519,31511809,11112009,30410509
27,85,555.133366025984,0,0,600112.86013563,600113.90719036,4,1,0,35,9,103823955,21611209,40220628,15982219,11300009,11211809,0,0,40701709,0,0,30500309,10110119,0,0,0,0,0,0,0,0,21611209,0,0,0,0,0,10110209,30110419,0,0,0,0,0,0,0,0,11801219,-4181000,0
27,86,550.719386665151,0,0,600115.636597179,600116.683646519,4,1,0,32,3,31211419,40710109,40800909,1150160,0,0,0,0,0,0,31211419,0,0,0,0,0,0,40710109,0,0,0,0,0,0,0,0,0,40800909,0,0,0,0,0,0,0,-1150160,0,0,0,0
27,87,504.528719116934,0,0,600118.389529438,600119.436754884,4,0,0,34,19,111613147,133128084,123856585,147364765,40410819,0,40200709,0,0,0,0,0,31001619,10101219,10110219,0,30701909,20001109,40711719,0,21501909,0,0,0,11210809,0,40311019,11111919,21211219,0,40011619,0,40801219,21511109,30211009,40600309,0,-4031110,0,10210009
27,88,520.93869203236,1,0,600121.048401898,600122.095407352,4,0,1,14,0,0,0,0,0,0,0,0,0,0,0,0,0,0,0,0,0,0,-11311601,0,0,0,0,0,0,0,0,0,0,0,0,0,0,0,0,0,0,0,0,0,0
27,89,556.143892463297,1,0,600123.718909848,600124.765962268,4,0,1,6,31,238220102,187857322,138044903,199625602,41501919,30011219,30111319,10700819,21010719,-1060060,41311309,31311519,31201219,10511909,30100009,21701619,32010219,11610119,30810709,20611719,0,30501019,30610919,21911719,11300119,0,11811309,20000619,0,31900209,10510009,20110209,11901519,20700209,40700019,40700109,0,11901019,31800709,21811809
27,90,574.091996415518,1,0,600126.507129305,600127.554184804,4,1,1,2,19,104521847,103123346,156747283,61624436,0,-1010001,0,30300409,31100009,0,0,31300209,10811219,0,0,0,0,10601509,11710019,0,40801609,40010209,0,30510009,30911509,21210709,31910319,10201509,21501909,10501319,0,10010209,0,0,0,10701709,0,20902009,20010509,0
27,91,819.368122261949,0,0,600129.330643657,600130.377702237,4,1,0,19,31,188149632,247562922,169866853,219027602,31511219,20311519,0,20001109,10311709,30501219,11901319,32000319,31611219,0,40812019,40601109,40412019,30411619,21810909,31602019,10311419,31601809,-4030070,20300109,31001809,0,40400709,10310619,21812009,21511319,20500209,40011719,41800419,32000809,40401309,11011319,11700209,21800109,0,20301709
27,92,514.394330559298,1,0,600132.271810232,600133.318857647,4,1,1,12,19,114733956,189673596,144343294,125731966,0,30310409,0,40700119,0,11911809,0,0,31811619,20700009,0,-4140121,41011719,40710119,41500909,41610719,0,0,20210309,21200119,0,40011219,11000219,0,41810509,10110919,0,0,31800019,0,0,20710109,0,41410519,31811319,0
27,93,586.364984046668,0,0,600134.930628798,600135.97765966,4,1,0,9,9,44241547,0,93313646,41820518,10300319,0,20800019,0,0,0,0,12000119,-1141090,0,0,0,0,0,0,0,0,0,0,40000819,11600109,0,31702009,0,0,0,10010709,0,0,0,10210509,0,0,0,31610009,0
27,94,469.568918808363,1,0,600137.695321275,600138.742368305,4,0,1,28,9,0,62103037,42311518,107422717,0,0,0,0,0,0,0,0,0,0,0,30200809,0,10000819,0,0,0,21901409,0,0,0,0,31910809,0,0,10400709,0,-4020061,0,40101719,0,11800209,11100619,0,40400109,0
27,95,444.684946443886,1,0,600140.43650063,600141.483532647,4,0,1,30,3,20600309,0,21900719,34571129,0,0,0,0,0,20600309,0,0,0,0,0,0,0,0,0,0,0,0,0,0,0,0,0,0,0,21900719,0,0,0,-4160110,0,0,0,0,0,30411019
27,96,496.505895745941,1,0,600142.989402169,600144.036459978,4,1,1,16,3,51222738,3110111,40901009,0,0,0,0,20011919,0,0,0,0,31210819,0,0,0,0,0,0,-3110111,0,0,0,40901009,0,0,0,0,0,0,0,0,0,0,0,0,0,0,0,0
27,97,473.384666489437,0,0,600145.683507162,600146.730564971,4,1,0,17,19,95424936,156817244,83622547,186726464,0,0,20811709,41401809,11601309,0,0,21610109,0,20811009,11100909,0,20012019,30410419,31110319,40211409,-3161160,0,31411419,0,0,0,0,40900209,11310919,0,0,41801209,0,40701309,0,40610719,31600209,20401209,0,11611809
27,98,495.998515281826,1,0,600148.365851553,600149.412900508,4,0,1,24,9,93313156,52411338,53364369,11411719,0,21000219,30810909,10700619,0,0,0,0,30801409,0,12010719,0,0,0,0,0,0,40400619,0,0,20411519,0,31801719,-1151131,0,0,0,0,0,0,0,0,11411719,0,0,0
27,99,484.940469148569,0,0,600151.048239444,600152.095237584,4,0,0,15,9,40201209,129497216,85432347,21001519,0,40201209,0,0,0,0,0,0,0,42011919,0,21412009,30611309,0,-4150160,0,31311819,0,0,0,0,11810219,0,0,41610619,32011509,0,0,0,0,0,0,0,21001519,0,0
27,100,639.428592170589,0,0,600153.683467896,600154.730526475,4,0,0,18,19,146024575,135995265,135146384,92423847,40000719,0,41500409,31811719,0,11511309,0,0,21200419,0,30301509,20810009,41011009,21000619,0,21711119,0,-1161000,10510709,30510709,0,41001619,0,11101819,11010809,31010719,0,0,0,0,30702019,0,0,30710219,31011609,0
27,101,605.406381422654,0,0,600156.530517313,600157.577563958,4,0,0,7,3,2101171,10600809,52111438,0,0,0,0,0,0,0,-2101171,0,0,0,0,0,0,0,10600809,0,0,0,10400719,0,0,0,0,41710719,0,0,0,0,0,0,0,0,0,0,0,0
27,102,536.620137165301,0,0,600159.283442642,600160.330493522,4,0,0,11,31,295939421,150596475,208359702,209255092,40811319,40000709,31711119,21501609,40101009,40900919,20610009,20100819,40201909,0,-4040171,11210019,0,30211819,21711719,11800019,30110819,41511909,11012009,41401009,0,21010019,31001519,41200009,10411909,41111609,11211619,41510419,10900009,41910709,21301009,10610219,30410309,41501809,11110609,0
27,103,584.279642556794,1,0,600161.930489826,600162.977540321,4,1,1,20,9,21900609,53924657,46600888,72213937,0,0,0,0,0,0,0,21900609,0,20312019,0,11701119,0,21911519,0,0,0,0,0,-4080050,0,21610419,0,0,20910419,0,0,0,20511509,0,21601019,0,0,0,30101409,0
27,104,671.360456966795,1,0,600164.671645699,600165.718707358,4,1,1,1,31,231787442,165926093,188437421,204935003,-2140140,21501109,30910409,20401509,41301109,41610819,21900319,31210709,20811319,21300009,0,40010719,0,20801109,31310519,11501009,30401419,10601309,20311409,11501809,20900619,10200619,11200009,40711109,41210019,11301309,21100519,0,0,31900109,30310719,41000809,10310909,40701619,30400219,20310619
27,105,534.530561068095,0,0,600184.68332007,600185.730372105,5,0,0,15,9,83813127,75502698,62823147,30610819,31901309,31901009,0,0,20010809,0,0,0,0,0,0,30110919,41201709,0,-4190070,0,0,0,11701019,0,0,20711009,0,0,30411119,0,0,0,0,0,30610819,0,0,0,0,0
27,106,585.462247137912,0,0,600187.342126702,600188.389181432,5,1,0,1,31,231787442,165926093,188437421,204935003,-2140140,21501109,30910409,20401509,41301109,41610819,21900319,31210709,20811319,21300009,0,40010719,0,20801109,31310519,11501009,30401419,10601309,20311409,11501809,20900619,10200619,11200009,40711109,41210019,11301309,21100519,0,0,31900109,30310719,41000809,10310909,40701619,30400219,20310619
27,107,554.499332909472,0,0,600189.989175426,600191.036230156,5,1,0,2,19,104521847,103123346,156747283,61624436,0,-1010001,0,30300409,31100009,0,0,31300209,10811219,0,0,0,0,10601509,11710019,0,40801609,40010209,0,30510009,30911509,21210709,31910319,10201509,21501909,10501319,0,10010209,0,0,0,10701709,0,20902009,20010509,0
27,108,500.509120174684,0,0,600192.683280804,600193.730327834,5,1,0,4,3,2161090,0,0,51624857,0,0,0,-2161090,0,0,0,0,0,0,0,0,0,0,0,0,0,0,0,0,0,0,0,0,0,0,0,0,0,0,0,10911819,30102019,10611019,0,0
27,109,463.675528648309,1,0,600195.247981442,600196.295023468,5,1,1,17,19,95424936,156817244,83622547,186726464,0,0,20811709,41401809,11601309,0,0,21610109,0,20811009,11100909,0,20012019,30410419,31110319,40211409,-3161160,0,31411419,0,0,0,0,40900209,11310919,0,0,41801209,0,40701309,0,40610719,31600209,20401209,0,11611809
27,110,551.450815284625,0,0,600197.836196356,600198.8832507,5,0,0,24,31,237871011,175736864,262046932,226628002,10301709,20901719,41411709,41201309,11410909,31110709,40111119,21310609,20111219,30701919,0,31510409,20800609,20512009,41010809,0,31201109,0,40210909,20710509,21601909,32000819,31310409,-2180120,40211219,31910619,41910419,10201309,10300119,0,40900109,31401809,30001719,31711209,30801509,41310219
27,111,560.167519957758,1,0,600200.459711171,600201.506807476,5,1,1,32,3,31211419,40710109,40800909,1150160,0,0,0,0,0,0,31211419,0,0,0,0,0,0,40710109,0,0,0,0,0,0,0,0,0,40800909,0,0,0,0,0,0,0,-1150160,0,0,0,0
27,112,522.162102744915,1,0,600203.165580616,600204.212624567,5,1,1,16,3,51222738,3110111,40901009,0,0,0,0,20011919,0,0,0,0,31210819,0,0,0,0,0,0,-3110111,0,0,0,40901009,0,0,0,0,0,0,0,0,0,0,0,0,0,0,0,0
27,113,705.794577603228,1,0,600205.859752593,600206.90677537,5,1,1,20,9,21900609,53924657,46600888,72213937,0,0,0,0,0,0,0,21900609,0,20312019,0,11701119,0,21911519,0,0,0,0,0,-4080050,0,21610419,0,0,20910419,0,0,0,20511509,0,21601019,0,0,0,30101409,0
27,114,508.271117927507,1,0,600208.671443979,600209.71848485,5,1,1,12,19,114733956,189673596,144343294,125731966,0,30310409,0,40700119,0,11911809,0,0,31811619,20700009,0,-4140121,41011719,40710119,41500909,41610719,0,0,20210309,21200119,0,40011219,11000219,0,41810509,10110919,0,0,31800019,0,0,20710109,0,41410519,31811319,0
27,115,389.151804265566,0,0,600211.2714245,600212.31846999,5,0,0,28,3,32001009,42312328,0,3041120,0,0,0,0,32001009,0,0,0,0,0,10501519,0,0,0,0,0,0,31810809,0,0,0,0,0,0,0,0,0,-3041120,0,0,0,0,0,0,0,0
27,116,494.762015878223,0,0,600213.753810543,600214.80083871,5,0,0,34,9,95032537,71503118,10211709,54761397,0,0,21410919,0,31611209,0,42010409,0,0,0,0,0,0,0,40701109,0,0,30802009,0,0,0,0,0,0,0,0,10211709,0,0,0,0,10600619,0,-3050150,20010419,21100209
27,117,540.234549669549,0,0,600216.318459211,600217.365501622,5,0,0,11,31,166658002,161459002,127416584,189359531,41110119,40911719,11800019,0,10001909,20701609,10410209,21111709,10610709,11501419,-4021080,10010019,21601319,20410619,20601809,11400709,31400819,30511209,31602009,30401709,0,10711919,0,11400509,31300019,0,12000419,30510809,10610719,21610919,11201609,21300409,11401119,40801809,30910219,11011919
27,118,546.240348601714,1,0,600218.930212654,600219.977258144,5,1,1,21,31,218534593,196867231,130976694,287740621,10900719,41510119,22010309,31400409,30900609,0,40300719,41511709,0,21400619,20701919,21011319,10010119,10211019,10610409,40311509,31510009,31100309,31510809,21300919,-2050090,11701819,21601319,21600019,21211719,0,0,41001409,30301909,21700019,40201419,30310819,11701309,41100109,40911609,30512019
27,119,625.81632018555,0,0,600221.612539336,600222.659605614,5,0,0,6,9,23621579,64022447,61911937,41712138,0,0,0,0,20601519,-3020060,0,0,0,21110719,11810119,0,0,0,0,31101609,0,0,41210219,0,0,0,10700309,10001409,0,0,0,0,0,0,30010919,0,0,0,11701219,0
27,120,546.263061463833,1,0,600224.330189402,600225.377234122,5,0,1,36,31,216767213,268950621,238559722,126650933,40110309,22011919,31811509,30410819,40311919,41700119,0,10410619,0,41201209,20900019,40211319,31611509,30311809,11800219,11711109,40802009,40401419,40010219,31300709,0,31710609,21511419,41201919,21201619,30311719,21311509,10501919,11311609,0,11112019,10111419,30610409,40711809,10110619,-2181130
27,121,594.041905249469,1,0,600226.96546328,600228.012518009,5,0,1,7,3,21762480,40600219,40201609,0,20701309,0,0,0,0,0,-1061171,0,0,0,0,0,0,0,0,40600219,0,0,0,0,0,0,40201609,0,0,0,0,0,0,0,0,0,0,0,0,0
27,122,463.002614327706,0,0,600229.765447573,600230.812496913,5,0,0,10,19,175414765,116006847,96314385,145036485,30801709,0,0,30801019,0,41900109,0,40900909,31011019,-3181081,21201519,0,30400809,0,20011919,0,0,41211519,10210509,41500319,11701819,0,0,11501719,0,0,21400019,11911319,0,0,41611919,31301819,0,30211009,0,30000419
27,123,540.255337487906,1,0,600232.377201015,600233.424249585,5,0,1,31,0,0,0,0,0,0,0,0,0,0,0,0,0,0,0,0,0,0,0,0,0,0,0,0,0,0,0,0,0,0,0,0,0,0,0,-40201491,0,0,0,0,0
27,124,586.63484279532,0,0,600234.988951378,600236.036006492,5,1,0,27,0,0,0,0,0,0,0,0,0,0,0,0,0,0,0,0,0,0,0,0,0,0,0,0,0,0,0,0,0,0,0,-21001891,0,0,0,0,0,0,0,0,0
27,125,550.419116043486,1,0,600237.741884022,600238.788931437,5,0,1,30,19,175726494,113424956,103715646,77223276,11311409,0,11111419,0,41101109,40300119,30501819,0,41400619,10911019,32001509,0,40210809,0,30301619,0,0,0,21010509,0,0,0,31101909,10401409,0,0,41201819,21710009,10700219,-2201111,10600009,21500119,10511809,0,0,0
27,126,545.946622267365,1,0,600240.506579193,600241.553677038,5,0,1,18,19,146327493,121623637,55325356,114614185,11900009,11200019,30601309,10801719,0,30801519,10311109,0,40711809,0,0,40111319,40110119,40212009,0,0,0,-1190190,0,11811519,0,0,0,20801709,11001909,11710219,0,31300319,11801909,10100919,21400219,0,0,40010819,0,0
27,127,553.036090685055,1,0,600243.224203852,600244.271256271,5,0,1,26,3,30310519,0,1090101,61413428,0,0,0,0,0,0,0,30310519,0,0,0,0,0,0,0,0,0,0,0,0,0,0,0,0,0,-1090101,0,30901909,30511519,0,0,0,0,0,0,0
27,128,515.784044982865,1,0,600245.906545163,600246.953644548,5,1,1,35,9,103823955,21611209,40220628,15982219,11300009,11211809,0,0,40701709,0,0,30500309,10110119,0,0,0,0,0,0,0,0,21611209,0,0,0,0,0,10110209,30110419,0,0,0,0,0,0,0,0,11801219,-4181000,0
27,129,445.330143440515,0,0,600248.48304182,600249.530049584,5,1,0,19,31,188149632,247562922,169866853,219027602,31511219,20311519,0,20001109,10311709,30501219,11901319,32000319,31611219,0,40812019,40601109,40412019,30411619,21810909,31602019,10311419,31601809,-4030070,20300109,31001809,0,40400709,10310619,21812009,21511319,20500209,40011719,41800419,32000809,40401309,11011319,11700209,21800109,0,20301709
27,130,632.588194566779,0,0,600251.141816885,600252.18885968,5,1,0,9,9,44241547,0,93313646,41820518,10300319,0,20800019,0,0,0,0,12000119,-1141090,0,0,0,0,0,0,0,0,0,0,40000819,11600109,0,31702009,0,0,0,10010709,0,0,0,10210509,0,0,0,31610009,0
27,131,470.772696309723,1,0,600280.600482697,600281.647540506,6,1,1,35,9,103823955,21611209,40220628,15982219,11300009,11211809,0,0,40701709,0,0,30500309,10110119,0,0,0,0,0,0,0,0,21611209,0,0,0,0,0,10110209,30110419,0,0,0,0,0,0,0,0,11801219,-4181000,0
27,132,629.600501037203,1,0,600283.141657125,600284.188700691,6,1,1,19,31,188149632,247562922,169866853,219027602,31511219,20311519,0,20001109,10311709,30501219,11901319,32000319,31611219,0,40812019,40601109,40412019,30411619,21810909,31602019,10311419,31601809,-4030070,20300109,31001809,0,40400709,10310619,21812009,21511319,20500209,40011719,41800419,32000809,40401309,11011319,11700209,21800109,0,20301709
27,133,717.781538143754,1,0,600285.965162624,600287.012275483,6,1,1,2,19,104521847,103123346,156747283,61624436,0,-1010001,0,30300409,31100009,0,0,31300209,10811219,0,0,0,0,10601509,11710019,0,40801609,40010209,0,30510009,30911509,21210709,31910319,10201509,21501909,10501319,0,10010209,0,0,0,10701709,0,20902009,20010509,0
27,134,552.788174827583,0,0,600288.847505398,600289.894554737,6,1,0,1,31,231787442,165926093,188437421,204935003,-2140140,21501109,30910409,20401509,41301109,41610819,21900319,31210709,20811319,21300009,0,40010719,0,20801109,31310519,11501009,30401419,10601309,20311409,11501809,20900619,10200619,11200009,40711109,41210019,11301309,21100519,0,0,31900109,30310719,41000809,10310909,40701619,30400219,20310619
27,135,502.792332437821,0,0,600291.56514045,600292.612245994,6,1,0,4,3,2161090,0,0,51624857,0,0,0,-2161090,0,0,0,0,0,0,0,0,0,0,0,0,0,0,0,0,0,0,0,0,0,0,0,0,0,0,0,10911819,30102019,10611019,0,0
27,136,560.038172523491,1,0,600294.271007971,600295.318055771,6,1,1,16,3,51222738,3110111,40901009,0,0,0,0,20011919,0,0,0,0,31210819,0,0,0,0,0,0,-3110111,0,0,0,40901009,0,0,0,0,0,0,0,0,0,0,0,0,0,0,0,0
27,137,560.839279438369,0,0,600296.965116813,600298.012158069,6,0,0,11,9,135213556,12700679,82923318,51602628,40301209,0,0,41501309,0,42000419,0,0,11410619,0,-2090160,0,0,0,0,10610519,0,0,0,0,41011409,0,0,41911909,0,0,0,0,0,0,30901419,0,0,20701209,0,0
27,138,800.75672804378,1,0,600299.64745235,600300.694507849,6,0,1,26,19,93132847,73923337,110694776,215657122,21410519,0,41111209,0,0,0,30611119,0,0,0,21810609,12011709,0,0,0,40101019,0,0,11700409,12011619,0,10211419,41700009,0,0,-4071001,31000319,31811319,30311019,0,20411619,10010719,20601509,20500309,40110619,41900009
27,139,532.282380387187,0,0,600302.635667109,600303.682724533,6,0,0,18,3,0,35452779,12011519,0,0,0,0,0,0,0,0,0,0,0,0,0,20701219,0,10710519,0,0,-4041041,0,0,0,0,0,12011519,0,0,0,0,0,0,0,0,0,0,0,0
27,140,583.807678543963,0,0,600305.365065459,600306.412117879,6,0,0,6,3,31542040,40110119,0,31610209,0,0,0,0,0,-1131031,0,0,30411009,0,0,0,0,0,0,40110119,0,0,0,0,0,0,0,0,0,0,0,0,0,0,31610209,0,0,0,0,0
27,141,540.245713549666,0,0,600308.035645398,600309.082692043,6,1,0,12,19,114733956,189673596,144343294,125731966,0,30310409,0,40700119,0,11911809,0,0,31811619,20700009,0,-4140121,41011719,40710119,41500909,41610719,0,0,20210309,21200119,0,40011219,11000219,0,41810509,10110919,0,0,31800019,0,0,20710109,0,41410519,31811319,0
27,142,478.081593289971,0,0,600310.776810125,600311.82385523,6,0,0,6,0,0,0,0,0,0,0,0,0,0,-20100691,0,0,0,0,0,0,0,0,0,0,0,0,0,0,0,0,0,0,0,0,0,0,0,0,0,0,0,0,0,0
27,143,451.375978649594,1,0,600313.329737071,600314.376783331,6,0,1,28,31,221247812,240024502,249650191,119457284,11511019,31701309,40810519,31700119,0,22001209,31211009,40901919,11410709,32010609,41510519,22001409,41700509,20000119,42000409,10300709,0,30500219,20400609,41710109,11710409,20211409,41301809,11701609,21611519,40101209,40901509,-3110080,0,0,10910719,30511819,31811119,20700019,11911719,10501809
27,144,514.422817854211,0,0,600316.035604976,600317.082654316,6,0,0,7,9,75132088,31911109,105736046,81921918,0,30600519,0,0,41510409,0,-3021160,0,0,0,0,31911109,0,0,0,0,0,0,0,0,41411609,0,0,30401609,0,21910919,12011909,0,0,0,0,0,0,0,40110209,41811709
27,145,472.185508464463,1,0,600318.670881549,600319.717936278,6,0,1,36,3,0,32923128,0,25981299,0,0,0,0,0,0,0,0,0,0,0,0,0,20911209,12011919,0,0,0,0,0,0,0,0,0,0,0,0,0,0,0,0,0,0,21911119,0,-4070180
27,146,457.131937029772,0,0,600321.329691645,600322.376757924,6,1,0,20,9,21900609,53924657,46600888,72213937,0,0,0,0,0,0,0,21900609,0,20312019,0,11701119,0,21911519,0,0,0,0,0,-4080050,0,21610419,0,0,20910419,0,0,0,20511509,0,21601019,0,0,0,30101409,0
27,147,474.85252819024,1,0,600323.964979767,600325.012062213,6,1,1,21,31,218534593,196867231,130976694,287740621,10900719,41510119,22010309,31400409,30900609,0,40300719,41511709,0,21400619,20701919,21011319,10010119,10211019,10610409,40311509,31510009,31100309,31510809,21300919,-2050090,11701819,21601319,21600019,21211719,0,0,41001409,30301909,21700019,40201419,30310819,11701309,41100109,40911609,30512019
27,148,522.046228987165,1,0,600326.61203619,600327.65908014,6,1,1,9,9,44241547,0,93313646,41820518,10300319,0,20800019,0,0,0,0,12000119,-1141090,0,0,0,0,0,0,0,0,0,0,40000819,11600109,0,31702009,0,0,0,10010709,0,0,0,10210509,0,0,0,31610009,0
27,149,496.845047688112,1,0,600329.212035959,600330.259062586,6,1,1,27,0,0,0,0,0,0,0,0,0,0,0,0,0,0,0,0,0,0,0,0,0,0,0,0,0,0,0,0,0,0,0,-21001891,0,0,0,0,0,0,0,0,0
27,150,589.165200828575,0,0,600331.882577401,600332.929627511,6,0,0,30,19,155564694,106133446,126724174,64120877,0,30711319,21411009,31610119,0,30010719,0,20010309,21811219,21910709,0,31310309,41211409,0,0,0,11701019,0,0,10001319,12010009,11700809,40600209,21101119,0,0,31310709,21100209,30900209,-1010140,11110319,0,0,0,0,0
27,151,450.69844473619,0,0,600334.659045109,600335.706117546,6,0,0,34,19,187533374,43303537,123325246,207328015,31711009,41110319,0,41310319,30400009,0,31600809,0,11400909,0,0,11101509,0,0,20500519,11701509,0,0,0,40701509,31401309,0,0,0,10012009,41210419,0,0,10601409,40110909,40601509,40910009,30011909,-4181151,40911119,0
27,152,529.535673325881,0,0,600337.188438146,600338.235487486,6,1,0,32,3,31211419,40710109,40800909,1150160,0,0,0,0,0,0,31211419,0,0,0,0,0,0,40710109,0,0,0,0,0,0,0,0,0,40800909,0,0,0,0,0,0,0,-1150160,0,0,0,0
27,153,507.249042624608,1,0,600339.835470317,600340.882526586,6,1,1,17,19,95424936,156817244,83622547,186726464,0,0,20811709,41401809,11601309,0,0,21610109,0,20811009,11100909,0,20012019,30410419,31110319,40211409,-3161160,0,31411419,0,0,0,0,40900209,11310919,0,0,41801209,0,40701309,0,40610719,31600209,20401209,0,11611809
27,154,683.281203964725,0,0,600342.576645053,600343.623693623,6,0,0,24,31,220538042,278538411,266848804,179367883,41601519,21100219,10911519,21000319,31511309,21310019,31301619,0,41801519,20302009,40210309,31010509,40500609,11800119,30900319,30700919,31611909,41501709,40210309,30600619,0,30901309,41411309,-1201001,40711019,41711619,40101619,20411319,0,42010309,0,10811209,31702009,21710209,40711709,12011119
27,155,630.861638113856,1,0,600345.45904865,600346.506056414,6,0,1,15,9,21011309,52531379,103825456,71121838,0,0,0,21011309,0,0,0,0,0,0,0,0,0,0,-1131051,0,31200319,20200009,0,40111519,31501819,20301909,0,11910209,0,0,0,0,0,0,31110019,40011819,0,0,0,0
27,156,568.179358262569,1,0,600348.235442445,600349.282484086,6,0,1,10,31,137132055,200137882,256057231,236651041,0,32000409,10810109,0,0,42010219,0,11500309,40811009,-4181160,20901009,31610209,20611719,10911909,40100219,20010019,40410419,11401219,20711109,11100919,31110819,40310909,21500619,40511819,20400209,30300819,40110009,40110619,41301719,11711819,10701119,30800809,40100309,10310909,30111819,21501919
27,157,531.45625104662,0,0,600380.035270444,600381.082319784,7,0,0,28,31,199641032,190071321,145154913,230649534,21211319,12011509,21001519,40800719,30501819,0,21400519,41401809,11311819,31511209,11410519,30400319,10711709,30712009,21011019,11811509,21401109,21101919,10110319,30011319,10610209,0,21910709,20610819,30300519,0,21601019,-4091131,40111419,21910319,0,40701119,31611409,41112009,20011109,31101019
27,158,571.898865397088,1,0,600382.717616374,600383.764702286,7,0,1,26,9,41411909,33201838,34133548,125503456,0,0,0,0,0,41411909,0,0,0,0,0,0,0,11701719,0,21500119,0,0,0,11111619,0,0,0,0,22011909,-1010020,0,0,0,0,0,0,31601109,11500219,41401119,41001009
27,159,534.084395971149,0,0,600385.517594894,600386.564445971,7,1,0,9,9,44241547,0,93313646,41820518,10300319,0,20800019,0,0,0,0,12000119,-1141090,0,0,0,0,0,0,0,0,0,0,40000819,11600109,0,31702009,0,0,0,10010709,0,0,0,10210509,0,0,0,31610009,0
27,160,468.470620922744,1,0,600388.199937744,600389.246987469,7,1,1,17,19,95424936,156817244,83622547,186726464,0,0,20811709,41401809,11601309,0,0,21610109,0,20811009,11100909,0,20012019,30410419,31110319,40211409,-3161160,0,31411419,0,0,0,0,40900209,11310919,0,0,41801209,0,40701309,0,40610719,31600209,20401209,0,11611809
27,161,613.658051355742,1,0,600390.894038503,600391.941086303,7,0,1,7,31,174488535,209057302,184271721,248249102,20311919,0,40811419,20411419,0,40300519,-2051121,20500219,30101919,0,21011119,21501619,21900409,42010609,30310719,11411809,20800909,40110109,20411809,11511009,30301309,10311819,40410109,31211809,10000419,10111619,20001819,40811709,30410009,41700809,40210319,11601809,20901609,21601519,41011319,0
27,162,496.581348474137,0,0,600393.646962677,600394.694022796,7,0,0,24,31,266858511,115424104,131066534,204540131,31012009,31201509,21611119,40110609,10600719,30600209,30111609,30900709,40710019,10411219,0,0,10502019,31010109,20900019,31200119,0,11400619,0,11200709,12000119,11710609,21811419,-2031141,40000509,10601409,21710619,11311819,20100109,30101819,20301419,20300709,21300809,20500209,20011319,40611919
27,163,467.56711404305,0,0,600396.246953207,600397.293998313,7,1,0,27,0,0,0,0,0,0,0,0,0,0,0,0,0,0,0,0,0,0,0,0,0,0,0,0,0,0,0,0,0,0,0,-21001891,0,0,0,0,0,0,0,0,0
27,164,560.12709881179,0,0,600398.764609895,600399.811639602,7,0,0,30,3,0,31300109,0,55593538,0,0,0,0,0,0,0,0,0,0,0,0,0,0,31300109,0,0,0,0,0,0,0,0,0,0,0,0,0,11211619,-4170010,0,0,0,0,40211909,0
27,165,709.866710240021,1,0,600401.564368252,600402.611625435,7,1,1,20,9,21900609,53924657,46600888,72213937,0,0,0,0,0,0,0,21900609,0,20312019,0,11701119,0,21911519,0,0,0,0,0,-4080050,0,21610419,0,0,20910419,0,0,0,20511509,0,21601019,0,0,0,30101409,0
27,166,486.884529469535,1,0,600404.36459927,600405.411619738,7,1,1,16,3,51222738,3110111,40901009,0,0,0,0,20011919,0,0,0,0,31210819,0,0,0,0,0,0,-3110111,0,0,0,40901009,0,0,0,0,0,0,0,0,0,0,0,0,0,0,0,0
27,167,441.127893398516,0,0,600407.082196211,600408.129235927,7,1,0,4,3,2161090,0,0,51624857,0,0,0,-2161090,0,0,0,0,0,0,0,0,0,0,0,0,0,0,0,0,0,0,0,0,0,0,0,0,0,0,0,10911819,30102019,10611019,0,0
27,168,520.789711619727,0,0,600409.717535917,600410.764530977,7,1,0,12,19,114733956,189673596,144343294,125731966,0,30310409,0,40700119,0,11911809,0,0,31811619,20700009,0,-4140121,41011719,40710119,41500909,41610719,0,0,20210309,21200119,0,40011219,11000219,0,41810509,10110919,0,0,31800019,0,0,20710109,0,41410519,31811319,0
27,169,487.196348956786,0,0,600412.423341844,600413.470391569,7,1,0,21,31,218534593,196867231,130976694,287740621,10900719,41510119,22010309,31400409,30900609,0,40300719,41511709,0,21400619,20701919,21011319,10010119,10211019,10610409,40311509,31510009,31100309,31510809,21300919,-2050090,11701819,21601319,21600019,21211719,0,0,41001409,30301909,21700019,40201419,30310819,11701309,41100109,40911609,30512019
27,170,491.933696903288,0,0,600414.964513577,600416.011574466,7,0,0,15,3,0,1121181,63121728,21811709,0,0,0,0,0,0,0,0,0,0,0,0,0,0,-1121181,0,0,0,0,0,41911109,0,0,0,0,0,21210619,0,0,0,0,0,0,0,21811709,0
27,171,370.655898703262,1,0,600417.564493328,600418.611597333,7,0,1,17,0,0,0,0,0,0,0,0,0,0,0,0,0,0,0,0,0,0,0,0,0,-31310701,0,0,0,0,0,0,0,0,0,0,0,0,0,0,0,0,0,0,0
27,172,453.867070609704,1,0,600420.117473784,600421.164467305,7,0,1,6,9,44241510,40610619,62703047,75013246,0,0,0,0,0,-3030001,41211509,0,0,40610619,0,0,0,0,0,0,0,0,0,0,40701719,0,0,10200519,0,11800809,0,0,30701809,20700909,11610109,0,0,0,12000419,0
27,173,603.752582799643,1,0,600422.752699927,600423.799748497,7,1,1,1,31,231787442,165926093,188437421,204935003,-2140140,21501109,30910409,20401509,41301109,41610819,21900319,31210709,20811319,21300009,0,40010719,0,20801109,31310519,11501009,30401419,10601309,20311409,11501809,20900619,10200619,11200009,40711109,41210019,11301309,21100519,0,0,31900109,30310719,41000809,10310909,40701619,30400219,20310619
27,174,463.73173315078,1,0,600425.56447947,600426.611558067,7,0,1,11,3,30311419,2030011,10111819,20900819,0,0,0,0,0,0,30311419,0,0,0,-2030011,0,0,0,0,0,0,0,0,0,0,0,10111819,0,0,0,0,0,0,0,0,0,0,20900819,0,0
27,175,673.47236094065,0,0,600428.093842095,600429.140896824,7,0,0,36,19,125216865,115044965,83023447,127915875,0,11200109,0,10001209,40501809,0,0,41711919,21801819,31211809,41201209,20710709,0,11210019,0,10711219,0,0,0,0,0,0,31211209,11411819,0,40400419,0,20011419,41411209,20410509,11210509,11411019,0,21411019,0,-2050191
27,176,425.735555123538,1,0,600431.011478225,600432.058526025,7,0,1,18,9,54322957,35602140,0,114425175,11911919,0,0,0,0,22000319,20410719,0,0,0,31412019,0,0,0,0,0,0,-4190121,0,0,0,0,0,0,0,0,0,30700109,0,0,11911119,11101319,40411909,0,20300719,0
27,177,471.67735802941,1,0,600433.599704688,600434.646754798,7,1,1,35,9,103823955,21611209,40220628,15982219,11300009,11211809,0,0,40701709,0,0,30500309,10110119,0,0,0,0,0,0,0,0,21611209,0,0,0,0,0,10110209,30110419,0,0,0,0,0,0,0,0,11801219,-4181000,0
27,178,404.434428201057,0,0,600436.199687904,600437.246738398,7,1,0,32,3,31211419,40710109,40800909,1150160,0,0,0,0,0,0,31211419,0,0,0,0,0,0,40710109,0,0,0,0,0,0,0,0,0,40800909,0,0,0,0,0,0,0,-1150160,0,0,0,0
27,179,564.638858777471,0,0,600438.705560891,600439.752602146,7,1,0,2,19,104521847,103123346,156747283,61624436,0,-1010001,0,30300409,31100009,0,0,31300209,10811219,0,0,0,0,10601509,11710019,0,40801609,40010209,0,30510009,30911509,21210709,31910319,10201509,21501909,10501319,0,10010209,0,0,0,10701709,0,20902009,20010509,0
27,180,467.501285369508,1,0,600441.399654335,600442.446703675,7,0,1,34,19,156627794,195737384,111513357,56075026,11011709,21801219,0,31601619,0,30900919,40001709,21310619,0,0,31710909,10712019,30710309,0,40501009,41701819,40401319,0,0,0,0,40810619,30101119,0,0,0,40601619,10111819,0,0,11310219,11601509,0,-2050160,0,21001319
27,181,430.470978142694,1,0,600443.999648329,600445.046691895,7,0,1,10,19,116544464,114644777,101934237,146428684,0,10500509,10810309,11000909,41811319,11910009,0,0,30511409,-1120141,0,40300909,41201709,0,0,10210909,0,21811109,0,0,0,0,0,30311609,31310919,0,40311709,11112019,41501409,41101009,0,31601719,0,10700619,0,10411909
27,182,475.363758392632,0,0,600446.646692819,600447.693740234,7,1,0,19,31,188149632,247562922,169866853,219027602,31511219,20311519,0,20001109,10311709,30501219,11901319,32000319,31611219,0,40812019,40601109,40412019,30411619,21810909,31602019,10311419,31601809,-4030070,20300109,31001809,0,40400709,10310619,21812009,21511319,20500209,40011719,41800419,32000809,40401309,11011319,11700209,21800109,0,20301709
27,183,460.196623113006,1,0,600452.587831676,600453.634881016,8,0,1,34,9,42812428,31211928,63303827,65581978,0,0,0,11702019,0,0,0,0,31110409,0,0,20301819,0,0,0,0,10910109,0,0,12001709,0,30600909,0,0,0,20701209,0,0,40700519,0,0,0,0,-3081140,21800319,0
27,184,502.033186494373,0,0,600455.117272064,600456.164275208,8,1,0,4,3,2161090,0,0,51624857,0,0,0,-2161090,0,0,0,0,0,0,0,0,0,0,0,0,0,0,0,0,0,0,0,0,0,0,0,0,0,0,0,10911819,30102019,10611019,0,0
27,185,486.908012186177,1,0,600457.811344335,600458.858384821,8,0,1,7,3,12151639,0,20211109,20800319,0,10101609,0,0,0,0,-2050030,0,0,0,0,0,0,0,0,0,0,0,0,0,0,20211109,0,0,0,0,0,0,0,0,0,0,0,0,0,20800319
27,186,489.773672539741,1,0,600460.411333325,600461.458369962,8,1,1,2,19,104521847,103123346,156747283,61624436,0,-1010001,0,30300409,31100009,0,0,31300209,10811219,0,0,0,0,10601509,11710019,0,40801609,40010209,0,30510009,30911509,21210709,31910319,10201509,21501909,10501319,0,10010209,0,0,0,10701709,0,20902009,20010509,0
27,187,408.539282856509,1,0,600463.152491893,600464.199530839,8,1,1,20,9,21900609,53924657,46600888,72213937,0,0,0,0,0,0,0,21900609,0,20312019,0,11701119,0,21911519,0,0,0,0,0,-4080050,0,21610419,0,0,20910419,0,0,0,20511509,0,21601019,0,0,0,30101409,0
27,188,539.223638246767,0,0,600465.72893889,600466.775985535,8,1,0,1,31,231787442,165926093,188437421,204935003,-2140140,21501109,30910409,20401509,41301109,41610819,21900319,31210709,20811319,21300009,0,40010719,0,20801109,31310519,11501009,30401419,10601309,20311409,11501809,20900619,10200619,11200009,40711109,41210019,11301309,21100519,0,0,31900109,30310719,41000809,10310909,40701619,30400219,20310619
27,189,411.554308608174,1,0,600468.505402363,600469.552447468,8,1,1,17,19,95424936,156817244,83622547,186726464,0,0,20811709,41401809,11601309,0,0,21610109,0,20811009,11100909,0,20012019,30410419,31110319,40211409,-3161160,0,31411419,0,0,0,0,40900209,11310919,0,0,41801209,0,40701309,0,40610719,31600209,20401209,0,11611809
27,190,517.062120372429,0,0,600471.175972677,600472.223014703,8,0,0,28,19,134314756,119234174,94435056,154646666,0,0,10801819,0,41510119,0,40101509,41901309,0,0,0,11700409,21611019,22000009,11811009,41901309,0,10210419,0,31901219,0,20811919,10510109,0,31211809,0,0,-1031191,0,0,40800419,30701719,0,10701909,30010119,41401309
27,191,372.307772515342,1,0,600473.893613504,600474.94065707,8,0,1,24,19,85323456,82734475,117454845,105114785,0,0,0,21300109,0,32011219,21810919,10201209,0,0,11201119,20410619,31010019,0,0,10011109,10101609,0,0,0,0,21010009,40811719,-3111090,20710709,11110909,20700409,20211519,0,12000009,0,22001019,20501319,0,30400919,0
27,192,629.671334172599,0,0,600476.352408664,600477.399461469,8,0,0,6,31,147057144,269137341,126819423,270676731,11401609,0,10110609,11300309,0,-1021190,31611109,40401209,41211109,10800119,20400619,41401519,20610009,40601809,41901909,41300319,31410019,20711019,11000619,10611119,20401819,0,21101519,31301819,21002009,0,11400519,21410319,30911719,42010319,20400019,21811709,41000309,31010219,30210809,31911309
27,193,398.702722392045,0,0,600479.21125102,600480.258269948,8,1,0,9,9,44241547,0,93313646,41820518,10300319,0,20800019,0,0,0,0,12000119,-1141090,0,0,0,0,0,0,0,0,0,0,40000819,11600109,0,31702009,0,0,0,10010709,0,0,0,10210509,0,0,0,31610009,0
27,194,539.120468194596,0,0,600481.787682619,600482.834732344,8,1,0,12,19,114733956,189673596,144343294,125731966,0,30310409,0,40700119,0,11911809,0,0,31811619,20700009,0,-4140121,41011719,40710119,41500909,41610719,0,0,20210309,21200119,0,40011219,11000219,0,41810509,10110919,0,0,31800019,0,0,20710109,0,41410519,31811319,0
27,195,574.801482260227,0,0,600484.458257552,600485.505301503,8,0,0,30,31,197150222,210353631,136326884,247780243,10910509,0,41701119,30501219,10811619,31111809,10501909,30912019,30700019,20910319,31601309,20500109,21600219,41910019,11310219,31100309,21010919,10410209,11501409,10200719,40601909,0,0,22011619,11710709,40300519,0,20711619,41411309,-1110111,40811619,40311119,21410319,20802019,20200209,41011919
27,196,523.041741922498,1,0,600487.222943485,600488.269994749,8,0,1,26,3,30200909,31001309,4110030,10001309,0,0,0,0,0,0,0,30200909,0,0,0,0,0,31001309,0,0,0,0,0,0,0,0,0,0,0,-4110030,0,0,0,0,0,0,10001309,0,0,0
27,197,377.321138395928,1,0,600489.834696157,600490.881745112,8,0,1,10,0,0,0,0,0,0,0,0,0,0,0,0,0,0,-11701501,0,0,0,0,0,0,0,0,0,0,0,0,0,0,0,0,0,0,0,0,0,0,0,0,0,0
27,198,413.441394455731,1,0,600492.352330517,600493.399381781,8,0,1,10,19,144145385,124915407,185536283,74313037,21611309,12011619,0,30511019,40010919,0,0,40000519,0,-2101041,20200419,0,0,0,21400309,0,40101819,41111819,30500009,21001619,30301419,0,31312009,10010409,31200709,31210109,0,0,0,21901919,0,0,41510109,10901009,0,0
27,199,518.896081484854,0,0,600494.964094738,600496.01117295,8,0,0,11,9,51922528,54742057,51802518,52501428,0,0,0,0,0,0,41411819,0,10510709,0,-1110010,0,0,21911819,0,0,20210209,11510019,0,0,0,0,20001509,0,31801009,0,0,0,41900719,0,0,0,0,0,10600709,0
27,200,525.081272935495,0,0,600497.634655813,600498.681705923,8,0,0,18,9,62521228,116523566,50821738,11002009,0,31010419,0,0,31510809,0,0,0,0,0,0,41411119,0,10511709,40500619,0,20010109,-4090010,0,0,20311419,0,0,0,30510319,0,0,0,0,0,11002009,0,0,0,0,0
27,201,559.380656690337,0,0,600500.399350215,600501.446390315,8,0,0,36,31,216347422,181135992,217176402,231298924,40301719,30410409,20100609,31500219,0,21811519,10410909,21201919,40610119,12000509,20101009,12011909,0,10300219,11710909,42000719,31610709,41400009,21000509,0,20411019,30010909,11310919,41810409,20510309,41611809,30510519,41810019,21001419,41401509,31501309,31000119,20611409,41812009,0,-2161131
27,202,480.083782924339,1,0,600503.081684596,600504.128731626,8,1,1,27,0,0,0,0,0,0,0,0,0,0,0,0,0,0,0,0,0,0,0,0,0,0,0,0,0,0,0,0,0,0,0,-21001891,0,0,0,0,0,0,0,0,0
27,203,474.405971821398,0,0,600505.752263764,600506.799313489,8,1,0,16,3,51222738,3110111,40901009,0,0,0,0,20011919,0,0,0,0,31210819,0,0,0,0,0,0,-3110111,0,0,0,40901009,0,0,0,0,0,0,0,0,0,0,0,0,0,0,0,0
27,204,528.725712327287,1,0,600508.469941548,600509.516966635,8,1,1,35,9,103823955,21611209,40220628,15982219,11300009,11211809,0,0,40701709,0,0,30500309,10110119,0,0,0,0,0,0,0,0,21611209,0,0,0,0,0,10110209,30110419,0,0,0,0,0,0,0,0,11801219,-4181000,0
27,205,489.814093685709,0,0,600511.211048145,600512.25810018,8,1,0,21,31,218534593,196867231,130976694,287740621,10900719,41510119,22010309,31400409,30900609,0,40300719,41511709,0,21400619,20701919,21011319,10010119,10211019,10610409,40311509,31510009,31100309,31510809,21300919,-2050090,11701819,21601319,21600019,21211719,0,0,41001409,30301909,21700019,40201419,30310819,11701309,41100109,40911609,30512019
27,206,472.406091867015,0,0,600513.940454579,600514.987501609,8,1,0,19,31,188149632,247562922,169866853,219027602,31511219,20311519,0,20001109,10311709,30501219,11901319,32000319,31611219,0,40812019,40601109,40412019,30411619,21810909,31602019,10311419,31601809,-4030070,20300109,31001809,0,40400709,10310619,21812009,21511319,20500209,40011719,41800419,32000809,40401309,11011319,11700209,21800109,0,20301709
27,207,485.090989386663,1,0,600516.575733847,600517.622783186,8,0,1,15,3,0,3191041,40311419,52210828,0,0,0,0,0,0,0,0,0,0,0,0,0,0,-3191041,0,0,0,0,0,0,0,0,0,0,0,40311419,0,0,0,40600809,0,0,0,0,11610019
27,208,797.621978912503,1,0,600519.211012344,600520.258062069,8,1,1,32,3,31211419,40710109,40800909,1150160,0,0,0,0,0,0,31211419,0,0,0,0,0,0,40710109,0,0,0,0,0,0,0,0,0,40800909,0,0,0,0,0,0,0,-1150160,0,0,0,0
27,209,491.596084670164,1,0,600526.611026433,600527.658015719,9,1,1,27,0,0,0,0,0,0,0,0,0,0,0,0,0,0,0,0,0,0,0,0,0,0,0,0,0,0,0,0,0,0,0,-21001891,0,0,0,0,0,0,0,0,0
27,210,551.182496594265,1,0,600529.187424155,600530.234481964,9,1,1,2,19,104521847,103123346,156747283,61624436,0,-1010001,0,30300409,31100009,0,0,31300209,10811219,0,0,0,0,10601509,11710019,0,40801609,40010209,0,30510009,30911509,21210709,31910319,10201509,21501909,10501319,0,10010209,0,0,0,10701709,0,20902009,20010509,0
27,211,429.844259284437,1,0,600531.810946669,600532.857990235,9,1,1,12,19,114733956,189673596,144343294,125731966,0,30310409,0,40700119,0,11911809,0,0,31811619,20700009,0,-4140121,41011719,40710119,41500909,41610719,0,0,20210309,21200119,0,40011219,11000219,0,41810509,10110919,0,0,31800019,0,0,20710109,0,41410519,31811319,0
27,212,407.512972946279,1,0,600534.305063288,600535.352102234,9,0,1,18,3,70611228,4190201,0,20611409,0,0,30210509,40400719,0,0,0,0,0,0,0,0,0,0,0,0,0,-4190201,0,0,0,0,0,0,0,0,0,0,0,0,20611409,0,0,0,0,0
27,213,588.281712145545,0,0,600536.834446701,600537.881494117,9,0,0,30,9,84222976,53511828,40300809,45243828,0,0,11011019,10510819,0,0,0,30800019,31901119,0,21700519,31811309,0,0,0,0,0,0,0,0,0,0,40300809,0,0,0,0,11600909,0,-2031010,0,0,0,0,31611909,0
27,214,604.099433869123,0,0,600539.634420601,600540.68148226,9,0,0,34,19,64411947,116447993,104023366,115956505,11901619,20910019,0,0,0,0,0,0,31600309,20801419,10511409,0,11500709,10410219,40101609,0,11311609,11811019,21500019,0,0,0,0,0,40410709,30211619,11901019,21300819,0,0,20711709,20311409,11710609,-1121040,40800919,0
27,215,724.386338726617,0,0,600542.399122317,600543.446174351,9,0,0,6,31,157271302,147355494,207050721,226768392,10510819,10601619,20100909,11111009,10401209,-1131090,41111519,41601909,10701219,11911509,0,41710219,30710119,20911319,0,21710409,0,20401919,30510319,11111009,30411309,20311709,31901419,10201909,30900809,10401419,31300819,40110909,10011009,21811109,0,31411309,30501209,21502009,30710719,40710119
27,216,466.101562022232,1,0,600545.234401122,600546.281443148,9,1,1,21,31,218534593,196867231,130976694,287740621,10900719,41510119,22010309,31400409,30900609,0,40300719,41511709,0,21400619,20701919,21011319,10010119,10211019,10610409,40311509,31510009,31100309,31510809,21300919,-2050090,11701819,21601319,21600019,21211719,0,0,41001409,30301909,21700019,40201419,30310819,11701309,41100109,40911609,30512019
27,217,531.314584892243,0,0,600547.893210833,600548.940256324,9,1,0,20,9,21900609,53924657,46600888,72213937,0,0,0,0,0,0,0,21900609,0,20312019,0,11701119,0,21911519,0,0,0,0,0,-4080050,0,21610419,0,0,20910419,0,0,0,20511509,0,21601019,0,0,0,30101409,0
27,218,414.467704365961,0,0,600550.504964661,600551.552008611,9,0,0,26,19,195635993,123837365,98542107,80132737,21010319,0,0,21300309,20801119,30911809,20900909,40100819,40610709,20701809,0,40001709,31811209,11111819,0,20210819,0,0,30110919,21610319,21310719,21500119,0,0,0,-4010031,0,10011219,0,0,0,30110909,40010609,0,0,0
27,219,591.664762003347,1,0,600553.152004916,600554.199055025,9,0,1,7,19,136037325,199636403,52214337,63410947,30400619,40100619,10401009,21411809,0,20600619,-2011041,0,11111609,20800909,0,0,41611509,31900619,31410919,21910019,40801309,11201119,0,0,0,0,20311609,10701119,0,0,21201609,0,0,21210009,11200419,31000519,0,0,0,0
27,220,595.788479782641,0,0,600555.869661141,600556.916690078,9,0,0,36,31,185645693,257337441,199936921,172270834,20410419,30501209,30810409,41800619,40511109,0,0,11501909,10110019,20000819,21600319,31311809,20900209,40011319,41500919,30800209,20710519,30501319,30610509,41601009,31600119,12000809,10910709,11000319,10801019,40201419,11211009,20611919,0,32002019,31701209,31812019,41801809,10311819,0,-4030040
27,221,432.499345159158,0,0,600558.704914539,600559.751968883,9,0,0,10,3,21701809,12671769,0,32011009,0,0,0,0,0,21701809,0,0,0,-1061150,0,0,0,0,0,0,11610619,0,0,0,0,0,0,0,0,0,0,0,0,0,0,32011009,0,0,0,0
27,222,434.106948436238,1,0,600561.23431489,600562.28136269,9,0,1,28,9,84922956,113322327,52101528,1160020,31400519,11710009,0,11110419,30702009,0,0,0,0,0,31110009,0,0,0,40411009,0,0,41801309,0,0,11100619,0,0,0,41000909,0,0,-1160020,0,0,0,0,0,0,0,0
27,223,494.374358677305,1,0,600563.787037153,600564.834291947,9,1,1,35,9,103823955,21611209,40220628,15982219,11300009,11211809,0,0,40701709,0,0,30500309,10110119,0,0,0,0,0,0,0,0,21611209,0,0,0,0,0,10110209,30110419,0,0,0,0,0,0,0,0,11801219,-4181000,0
27,224,536.753719206899,1,0,600566.516650581,600567.563719554,9,0,1,24,9,40610019,61314427,77895418,53812238,0,0,0,40610019,0,0,0,0,0,0,0,40111409,0,0,0,0,11201909,10001109,0,0,31602019,11901309,30311919,-4080171,0,0,0,11801819,0,0,0,0,42010419,0,0,0
27,225,470.753833185881,1,0,600569.269567826,600570.316628715,9,1,1,32,3,31211419,40710109,40800909,1150160,0,0,0,0,0,0,31211419,0,0,0,0,0,0,40710109,0,0,0,0,0,0,0,0,0,40800909,0,0,0,0,0,0,0,-1150160,0,0,0,0
27,226,460.125020006672,0,0,600571.834255375,600572.881307025,9,1,0,16,3,51222738,3110111,40901009,0,0,0,0,20011919,0,0,0,0,31210819,0,0,0,0,0,0,-3110111,0,0,0,40901009,0,0,0,0,0,0,0,0,0,0,0,0,0,0,0,0
27,227,384.50492254924,1,0,600574.457777504,600575.504843398,9,0,1,15,3,0,34204448,0,41510119,0,0,0,0,0,0,0,0,0,0,0,0,0,10001709,-3101020,0,21101719,0,0,0,0,0,0,0,0,0,0,0,0,0,0,0,0,41510119,0,0
27,228,626.213216455653,0,0,600577.081290779,600578.128332805,9,1,0,1,31,231787442,165926093,188437421,204935003,-2140140,21501109,30910409,20401509,41301109,41610819,21900319,31210709,20811319,21300009,0,40010719,0,20801109,31310519,11501009,30401419,10601309,20311409,11501809,20900619,10200619,11200009,40711109,41210019,11301309,21100519,0,0,31900109,30310719,41000809,10310909,40701619,30400219,20310619
27,229,529.530668864027,0,0,600579.798928912,600580.845966318,9,1,0,4,3,2161090,0,0,51624857,0,0,0,-2161090,0,0,0,0,0,0,0,0,0,0,0,0,0,0,0,0,0,0,0,0,0,0,0,0,0,0,0,10911819,30102019,10611019,0,0
27,230,518.483786494471,0,0,600582.504790273,600583.551836533,9,1,0,17,19,95424936,156817244,83622547,186726464,0,0,20811709,41401809,11601309,0,0,21610109,0,20811009,11100909,0,20012019,30410419,31110319,40211409,-3161160,0,31411419,0,0,0,0,40900209,11310919,0,0,41801209,0,40701309,0,40610719,31600209,20401209,0,11611809
27,231,509.852543589659,0,0,600585.222422631,600586.269471201,9,0,0,12,0,0,0,0,0,0,0,0,0,0,0,0,0,0,0,0,-20511191,0,0,0,0,0,0,0,0,0,0,0,0,0,0,0,0,0,0,0,0,0,0,0,0
27,232,504.410714493133,0,0,600587.9518256,600588.998869935,9,0,0,11,31,200136792,169926534,240137722,189344551,11401809,31800009,41300719,21610009,11111909,0,30600809,20800719,31510809,10200819,-4091030,0,20310119,0,41801519,41411109,30901119,21210819,31800409,0,41711809,21411719,20100519,31600019,42011319,40800909,10701019,30010319,11401809,41600319,30700809,11110719,11010319,10600219,31200019,11710019
27,233,605.389827978797,1,0,600590.540068616,600591.587091394,9,1,1,19,31,188149632,247562922,169866853,219027602,31511219,20311519,0,20001109,10311709,30501219,11901319,32000319,31611219,0,40812019,40601109,40412019,30411619,21810909,31602019,10311419,31601809,-4030070,20300109,31001809,0,40400709,10310619,21812009,21511319,20500209,40011719,41800419,32000809,40401309,11011319,11700209,21800109,0,20301709
27,234,442.523382254876,1,0,600593.398847839,600594.445888709,9,1,1,9,9,44241547,0,93313646,41820518,10300319,0,20800019,0,0,0,0,12000119,-1141090,0,0,0,0,0,0,0,0,0,0,40000819,11600109,0,31702009,0,0,0,10010709,0,0,0,10210509,0,0,0,31610009,0
27,235,531.796557828784,1,0,600618.175183119,600619.222274805,10,0,1,7,31,166755944,197582241,196055612,176958112,11500019,30110219,41310419,0,0,41010619,-1111030,11101819,30611819,20711309,20511119,21111419,20901419,11112019,11711519,41410919,40011709,10100809,41110519,20810409,0,21100709,30000609,20201819,11110019,20911509,30810019,31010609,21400719,21110719,21611409,40710619,20411709,10000619,10701709,0
27,236,415.879746666178,1,0,600620.96340373,600622.010451145,10,0,1,10,9,91822037,56952827,22801628,21701309,40001109,0,0,0,0,0,21710409,0,30110519,-3040000,11100409,0,0,31310409,0,0,11502009,0,0,0,0,11200009,0,0,0,0,11601619,0,0,0,0,21701309,0,0,0,0
27,237,385.263683623634,0,0,600623.492795998,600624.539853422,10,1,0,9,9,44241547,0,93313646,41820518,10300319,0,20800019,0,0,0,0,12000119,-1141090,0,0,0,0,0,0,0,0,0,0,40000819,11600109,0,31702009,0,0,0,10010709,0,0,0,10210509,0,0,0,31610009,0
27,238,514.586041797884,1,0,600625.963410275,600627.010424968,10,0,1,26,9,64024047,82121838,76832268,53510828,0,0,10811419,0,0,0,21201209,32011419,0,40911819,0,0,0,0,0,41210019,0,0,0,31010309,0,0,41701919,0,0,-4120040,0,0,0,11710119,0,41800709,0,0,0,0
27,239,618.537065340206,1,0,600628.610422427,600629.657457139,10,1,1,21,31,218534593,196867231,130976694,287740621,10900719,41510119,22010309,31400409,30900609,0,40300719,41511709,0,21400619,20701919,21011319,10010119,10211019,10610409,40311509,31510009,31100309,31510809,21300919,-2050090,11701819,21601319,21600019,21211719,0,0,41001409,30301909,21700019,40201419,30310819,11701309,41100109,40911609,30512019
27,240,408.833779045381,1,0,600631.42220813,600632.469221668,10,1,1,4,3,2161090,0,0,51624857,0,0,0,-2161090,0,0,0,0,0,0,0,0,0,0,0,0,0,0,0,0,0,0,0,0,0,0,0,0,0,0,0,10911819,30102019,10611019,0,0
27,241,604.315397911705,0,0,600633.892744644,600634.939791674,10,1,0,19,31,188149632,247562922,169866853,219027602,31511219,20311519,0,20001109,10311709,30501219,11901319,32000319,31611219,0,40812019,40601109,40412019,30411619,21810909,31602019,10311419,31601809,-4030070,20300109,31001809,0,40400709,10310619,21812009,21511319,20500209,40011719,41800419,32000809,40401309,11011319,11700209,21800109,0,20301709
27,242,469.496930832975,1,0,600636.598603695,600637.645663044,10,0,1,6,3,2030011,20600319,11300909,11910709,0,0,0,0,0,-2030011,0,0,0,0,0,0,0,0,20600319,0,0,0,0,0,0,0,0,11300909,0,0,0,0,0,0,0,0,0,0,0,11910709
27,243,536.980462027714,0,0,600639.280945391,600640.327998196,10,0,0,15,31,144025213,199356903,206748093,246961631,10710209,30000619,21100819,0,11000119,40600919,0,20111709,10500819,11311019,10410719,20510109,30710219,31701419,-2090081,30711819,40011109,21900409,40201609,30511809,0,11401909,31810619,31910419,30110719,30801009,0,41100819,40711219,11712019,20400709,20200209,10712019,40411809,21701209,40011619
27,244,617.611615685746,0,0,600642.01035221,600643.057389616,10,0,0,18,19,145436314,102391598,84704647,178748113,0,10910319,10100019,0,41101819,31801419,30611419,0,20911319,20100319,40010619,40100509,0,0,0,0,0,-2180151,0,0,31201519,0,0,21701709,31801419,0,0,40801619,21902019,0,0,22011609,12011319,30810019,40200409,11011119
27,245,473.669538623653,0,0,600644.704448349,600645.751501154,10,1,0,2,19,104521847,103123346,156747283,61624436,0,-1010001,0,30300409,31100009,0,0,31300209,10811219,0,0,0,0,10601509,11710019,0,40801609,40010209,0,30510009,30911509,21210709,31910319,10201509,21501909,10501319,0,10010209,0,0,0,10701709,0,20902009,20010509,0
27,246,395.794331212528,0,0,600647.422119588,600648.469138516,10,1,0,27,0,0,0,0,0,0,0,0,0,0,0,0,0,0,0,0,0,0,0,0,0,0,0,0,0,0,0,0,0,0,0,-21001891,0,0,0,0,0,0,0,0,0
27,247,544.839470414445,1,0,600649.963242046,600651.010291771,10,0,1,28,9,136626894,41001319,73011828,2101151,30801409,21211709,0,0,0,10611419,41900719,21401019,10700619,41001319,0,0,0,0,0,0,0,0,0,41301709,0,0,0,0,0,31710119,0,-2101151,0,0,0,0,0,0,0,0
27,248,537.81198093202,0,0,600652.61028846,600653.657326636,10,1,0,17,19,95424936,156817244,83622547,186726464,0,0,20811709,41401809,11601309,0,0,21610109,0,20811009,11100909,0,20012019,30410419,31110319,40211409,-3161160,0,31411419,0,0,0,0,40900209,11310919,0,0,41801209,0,40701309,0,40610719,31600209,20401209,0,11611809
27,249,816.58368895296,1,0,600655.304393839,600656.351443948,10,1,1,1,31,231787442,165926093,188437421,204935003,-2140140,21501109,30910409,20401509,41301109,41610819,21900319,31210709,20811319,21300009,0,40010719,0,20801109,31310519,11501009,30401419,10601309,20311409,11501809,20900619,10200619,11200009,40711109,41210019,11301309,21100519,0,0,31900109,30310719,41000809,10310909,40701619,30400219,20310619
27,250,616.74083059188,1,0,600658.316174074,600659.363186843,10,0,1,11,19,101715066,76024827,175025684,168815994,0,11500719,20010319,0,0,40002009,0,0,30202019,0,-3001170,0,0,0,21501519,31210719,0,20311419,0,20101719,30700019,0,0,41800619,11910609,40102009,30410709,32002019,32000819,0,11700909,20600519,30501019,0,0,42010709
27,251,537.126747774892,0,0,600661.127892793,600662.174936743,10,0,0,24,3,0,0,36211119,20802018,0,0,0,0,0,0,0,0,0,0,0,0,0,0,0,0,0,0,0,32010119,0,0,0,-4201000,0,0,0,0,0,10601909,10200109,0,0,0,0,0
27,252,589.595973840915,1,0,600663.810230639,600664.85727382,10,0,1,5,0,0,0,0,0,0,0,0,0,-21701701,0,0,0,0,0,0,0,0,0,0,0,0,0,0,0,0,0,0,0,0,0,0,0,0,0,0,0,0,0,0,0
27,253,543.319638585672,1,0,600666.598448555,600667.64550213,10,1,1,12,19,114733956,189673596,144343294,125731966,0,30310409,0,40700119,0,11911809,0,0,31811619,20700009,0,-4140121,41011719,40710119,41500909,41610719,0,0,20210309,21200119,0,40011219,11000219,0,41810509,10110919,0,0,31800019,0,0,20710109,0,41410519,31811319,0
27,254,547.188511234708,1,0,600669.292548544,600670.339597114,10,1,1,16,3,51222738,3110111,40901009,0,0,0,0,20011919,0,0,0,0,31210819,0,0,0,0,0,0,-3110111,0,0,0,40901009,0,0,0,0,0,0,0,0,0,0,0,0,0,0,0,0
27,255,684.164307778701,0,0,600672.080773775,600673.127816955,10,1,0,35,9,103823955,21611209,40220628,15982219,11300009,11211809,0,0,40701709,0,0,30500309,10110119,0,0,0,0,0,0,0,0,21611209,0,0,0,0,0,10110209,30110419,0,0,0,0,0,0,0,0,11801219,-4181000,0
27,256,595.868936856277,0,0,600674.916049885,600675.963095376,10,1,0,20,9,21900609,53924657,46600888,72213937,0,0,0,0,0,0,0,21900609,0,20312019,0,11701119,0,21911519,0,0,0,0,0,-4080050,0,21610419,0,0,20910419,0,0,0,20511509,0,21601019,0,0,0,30101409,0
27,257,576.474144007079,0,0,600677.610144869,600678.657197674,10,1,0,32,3,31211419,40710109,40800909,1150160,0,0,0,0,0,0,31211419,0,0,0,0,0,0,40710109,0,0,0,0,0,0,0,0,0,40800909,0,0,0,0,0,0,0,-1150160,0,0,0,0
27,258,768.96922418382,0,0,600680.26896844,600681.316011235,10,0,0,34,19,175812894,82825066,115631946,136664935,20800509,0,42000119,41101119,20700419,30800409,0,20410319,0,0,30711619,10410919,0,0,0,0,10701519,31001009,0,22010409,41110019,10700509,0,41811009,0,0,0,0,10210019,31900219,20201719,0,41311209,-1031150,0,32010619
27,259,519.954343093559,0,0,600683.174832418,600684.221880988,10,0,0,30,3,62102138,0,41300519,2190091,0,0,0,31201819,0,0,0,30900319,0,0,0,0,0,0,0,0,0,0,0,0,0,0,0,41300519,0,0,0,0,0,-2190091,0,0,0,0,0,0
27,260,590.10797389783,1,0,600685.83364136,600686.880687235,10,0,1,36,31,290049731,227646482,197837293,229629754,41901109,40900419,31701209,40411409,21810819,10710619,40310919,21501609,40801619,30800109,21201409,0,20000709,31701509,40011409,21010109,31610109,31311119,41100409,10711809,40700219,10901409,31311209,41401219,21711019,0,0,10811019,0,40601009,31511919,40700809,31201409,31301509,40301019,-3201061
27,261,552.116800332442,1,0,600710.080561276,600711.127609076,11,0,1,30,19,136136774,164114385,95625266,64785387,10711609,40711009,22010119,20801609,0,0,0,20000709,21901719,10201119,41500019,0,0,31111209,0,40801419,0,40500619,31610719,0,0,12000709,0,21411919,0,0,30601919,0,21311209,-2150131,20711519,0,10401819,0,0,10210709
27,262,432.067802292295,1,0,600712.880542874,600713.927594909,11,1,1,21,31,218534593,196867231,130976694,287740621,10900719,41510119,22010309,31400409,30900609,0,40300719,41511709,0,21400619,20701919,21011319,10010119,10211019,10610409,40311509,31510009,31100309,31510809,21300919,-2050090,11701819,21601319,21600019,21211719,0,0,41001409,30301909,21700019,40201419,30310819,11701309,41100109,40911609,30512019
27,263,450.634156004526,1,0,600715.515826761,600716.562881875,11,0,1,15,9,0,115476066,0,144733875,0,0,0,0,0,0,0,0,0,40311819,0,0,0,10901109,-3141100,20711119,40410919,0,0,0,0,0,0,0,0,0,0,31300119,0,41201009,0,40010309,21911319,0,10311119,0
27,264,467.476262943819,0,0,600718.056986176,600719.104030126,11,0,0,18,3,0,3150121,73312847,0,0,0,0,0,0,0,0,0,0,0,0,0,0,0,0,0,0,-3150121,21900619,0,0,0,0,40400319,11011909,0,0,0,0,0,0,0,0,0,0,0
27,265,615.074713132344,1,0,600720.680513694,600721.727544171,11,1,1,27,0,0,0,0,0,0,0,0,0,0,0,0,0,0,0,0,0,0,0,0,0,0,0,0,0,0,0,0,0,0,0,-21001891,0,0,0,0,0,0,0,0,0
27,266,449.415365001187,0,0,600723.504011494,600724.551085471,11,1,0,16,3,51222738,3110111,40901009,0,0,0,0,20011919,0,0,0,0,31210819,0,0,0,0,0,0,-3110111,0,0,0,40901009,0,0,0,0,0,0,0,0,0,0,0,0,0,0,0,0
27,267,669.330165022984,1,0,600726.104004333,600727.151047514,11,0,1,6,31,118817094,176954312,215358782,191348031,20400219,31001419,0,10711819,20110809,-4170090,0,21911419,10511319,20810119,10011109,0,11410619,41810309,30401319,20300319,10710209,31500309,30101209,10211109,40811509,30211409,21911409,31610209,40401319,0,10100609,10600009,11910409,42010519,41600719,21701609,11412019,20400419,21411409,10300919
27,268,516.024646465667,0,0,600729.033397217,600730.080442322,11,1,0,4,3,2161090,0,0,51624857,0,0,0,-2161090,0,0,0,0,0,0,0,0,0,0,0,0,0,0,0,0,0,0,0,0,0,0,0,0,0,0,0,10911819,30102019,10611019,0,0
27,269,744.703116710298,0,0,600731.715739683,600732.762783248,11,1,0,1,31,231787442,165926093,188437421,204935003,-2140140,21501109,30910409,20401509,41301109,41610819,21900319,31210709,20811319,21300009,0,40010719,0,20801109,31310519,11501009,30401419,10601309,20311409,11501809,20900619,10200619,11200009,40711109,41210019,11301309,21100519,0,0,31900109,30310719,41000809,10310909,40701619,30400219,20310619
27,270,596.621923497878,0,0,600734.656898173,600735.703944818,11,1,0,17,19,95424936,156817244,83622547,186726464,0,0,20811709,41401809,11601309,0,0,21610109,0,20811009,11100909,0,20012019,30410419,31110319,40211409,-3161160,0,31411419,0,0,0,0,40900209,11310919,0,0,41801209,0,40701309,0,40610719,31600209,20401209,0,11611809
27,271,514.575647888705,1,0,600737.315718664,600738.36275068,11,0,1,34,19,156015084,65433956,137028164,64492148,41511209,20100319,0,0,11701909,0,41501409,10000219,31200019,0,10311409,31910719,11600609,0,0,0,11611219,0,0,0,20002009,20811009,41800209,21201519,11911609,0,21301809,0,10410619,0,0,20600119,0,-2070091,0,31411319
27,272,577.29334407486,0,0,600739.892165276,600740.939208841,11,1,0,19,31,188149632,247562922,169866853,219027602,31511219,20311519,0,20001109,10311709,30501219,11901319,32000319,31611219,0,40812019,40601109,40412019,30411619,21810909,31602019,10311419,31601809,-4030070,20300109,31001809,0,40400709,10310619,21812009,21511319,20500209,40011719,41800419,32000809,40401309,11011319,11700209,21800109,0,20301709
27,273,631.253914674744,0,0,600742.53920476,600743.586269884,11,0,0,11,31,275247932,168835295,241137341,221254312,40410619,30300119,40901619,41710709,30100619,30210719,41411619,20201909,0,0,-1080001,30311419,41411209,0,12000109,41010119,11010919,32011519,11911909,21900219,41901319,30900909,41700219,11710819,21000619,30100309,30011019,40700109,10800109,40510419,0,41500619,42010319,11710309,22011119,12011309
27,274,498.9746598294,1,0,600745.42154099,600746.468601493,11,1,1,9,9,44241547,0,93313646,41820518,10300319,0,20800019,0,0,0,0,12000119,-1141090,0,0,0,0,0,0,0,0,0,0,40000819,11600109,0,31702009,0,0,0,10010709,0,0,0,10210509,0,0,0,31610009,0
27,275,566.329228808172,1,0,600748.103876911,600749.150928946,11,1,1,35,9,103823955,21611209,40220628,15982219,11300009,11211809,0,0,40701709,0,0,30500309,10110119,0,0,0,0,0,0,0,0,21611209,0,0,0,0,0,10110209,30110419,0,0,0,0,0,0,0,0,11801219,-4181000,0
27,276,554.692968958989,1,0,600750.809755595,600751.856795696,11,0,1,7,3,3191200,41911419,30900019,31310719,0,0,0,0,0,0,-3191200,0,0,0,0,0,0,0,0,0,41911419,0,0,0,30900019,0,0,0,0,0,0,0,0,0,0,0,0,0,31310719,0
27,277,393.586186575703,1,0,600753.562669376,600754.609726415,11,0,1,26,3,30401209,20701919,4071080,31300619,0,0,0,0,30401209,0,0,0,0,0,0,0,0,20701919,0,0,0,0,0,0,0,0,0,0,0,-4071080,0,0,0,0,31300619,0,0,0,0,0
27,278,511.681500240229,1,0,600756.209714635,600757.256759356,11,0,1,36,19,73913556,125126275,135955394,77232337,0,0,10600219,11611209,0,30901109,0,20801019,0,31710909,0,20600019,20801619,40502019,0,0,11511709,0,0,21311219,0,20710519,41500619,0,10610009,21311809,20511219,10710309,41301009,10800009,10400009,0,0,0,0,-4021001
27,279,467.772299074568,0,0,600758.774439141,600759.821449984,11,0,0,10,9,72710228,66103658,52523947,62322538,0,0,0,0,0,0,0,31700009,41010219,-3081120,0,0,41611719,21410819,0,0,0,0,0,0,0,12011609,0,20011919,0,0,20500419,40511019,0,21811519,0,0,0,0,0,0
27,280,486.208150396124,0,0,600761.397938172,600762.444970574,11,0,0,24,9,71412918,53822237,64903219,72222028,40511109,0,0,0,30901809,0,0,0,0,31510609,0,0,10911109,0,0,11400519,0,0,0,0,0,30201309,0,-4101091,0,0,30600819,0,40710519,0,0,0,0,31511509,0,0
27,281,523.397447308525,0,0,600764.103790679,600765.150838479,11,1,0,12,19,114733956,189673596,144343294,125731966,0,30310409,0,40700119,0,11911809,0,0,31811619,20700009,0,-4140121,41011719,40710119,41500909,41610719,0,0,20210309,21200119,0,40011219,11000219,0,41810509,10110919,0,0,31800019,0,0,20710109,0,41410519,31811319,0
27,282,488.628409220837,0,0,600766.762600391,600767.809652425,11,0,0,25,0,0,0,0,0,0,0,0,0,0,0,0,0,0,0,0,0,0,0,0,0,0,0,0,0,0,0,0,0,-30900091,0,0,0,0,0,0,0,0,0,0,0
27,283,384.903358761221,0,0,600769.480232364,600770.527274774,11,0,0,28,31,238269921,196725794,239551031,160685154,41311219,31911809,10911209,11700809,10310319,30000509,31000819,40511519,30611709,31000219,41300519,0,31401409,31101319,0,0,30111909,31810419,31400419,21801519,21111019,30811509,10201809,40611319,31210709,10501919,41900809,-3161141,41410619,0,11500309,31901219,11101019,20300019,31210209,10100619
27,284,501.986991032027,1,0,600771.986100346,600773.033139677,11,1,1,32,3,31211419,40710109,40800909,1150160,0,0,0,0,0,0,31211419,0,0,0,0,0,0,40710109,0,0,0,0,0,0,0,0,0,40800909,0,0,0,0,0,0,0,-1150160,0,0,0,0
27,285,506.145740277134,0,0,600774.633143296,600775.680182626,11,1,0,2,19,104521847,103123346,156747283,61624436,0,-1010001,0,30300409,31100009,0,0,31300209,10811219,0,0,0,0,10601509,11710019,0,40801609,40010209,0,30510009,30911509,21210709,31910319,10201509,21501909,10501319,0,10010209,0,0,0,10701709,0,20902009,20010509,0
27,286,518.320177565329,1,0,600777.350776808,600778.397824993,11,1,1,20,9,21900609,53924657,46600888,72213937,0,0,0,0,0,0,0,21900609,0,20312019,0,11701119,0,21911519,0,0,0,0,0,-4080050,0,21610419,0,0,20910419,0,0,0,20511509,0,21601019,0,0,0,30101409,0
27,287,598.766549257562,0,0,600797.574202466,600798.621241797,12,0,0,36,19,113715965,155103485,164326394,57522907,10301209,0,0,0,11701019,40011509,41201119,0,10501109,0,0,41300919,31300919,20601419,0,21500019,0,40400209,11501319,40102009,0,40510309,21800619,0,0,40411319,10000819,0,0,0,0,20110019,21501619,0,11900219,-4011050
27,288,449.783389107324,0,0,600800.374179445,600801.421229555,12,1,0,32,3,31211419,40710109,40800909,1150160,0,0,0,0,0,0,31211419,0,0,0,0,0,0,40710109,0,0,0,0,0,0,0,0,0,40800909,0,0,0,0,0,0,0,-1150160,0,0,0,0
27,289,465.524503262714,0,0,600802.962386275,600804.009446394,12,1,0,9,9,44241547,0,93313646,41820518,10300319,0,20800019,0,0,0,0,12000119,-1141090,0,0,0,0,0,0,0,0,0,0,40000819,11600109,0,31702009,0,0,0,10010709,0,0,0,10210509,0,0,0,31610009,0
27,290,423.377660219558,0,0,600805.503557623,600806.550618512,12,1,0,16,3,51222738,3110111,40901009,0,0,0,0,20011919,0,0,0,0,31210819,0,0,0,0,0,0,-3110111,0,0,0,40901009,0,0,0,0,0,0,0,0,0,0,0,0,0,0,0,0
27,291,541.510700131767,1,0,600808.162361945,600809.20940782,12,0,1,18,3,63730947,3030001,0,0,0,0,11210019,0,21310009,0,0,0,31210919,0,0,0,0,0,0,0,0,-3030001,0,0,0,0,0,0,0,0,0,0,0,0,0,0,0,0,0,0
27,292,499.267231323756,1,0,600810.950604114,600811.997626507,12,1,1,35,9,103823955,21611209,40220628,15982219,11300009,11211809,0,0,40701709,0,0,30500309,10110119,0,0,0,0,0,0,0,0,21611209,0,0,0,0,0,10110209,30110419,0,0,0,0,0,0,0,0,11801219,-4181000,0
27,293,467.071282444522,0,0,600813.585867213,600814.632909238,12,1,0,4,3,2161090,0,0,51624857,0,0,0,-2161090,0,0,0,0,0,0,0,0,0,0,0,0,0,0,0,0,0,0,0,0,0,0,0,0,0,0,0,10911819,30102019,10611019,0,0
27,294,438.838521717116,1,0,600816.127031632,600817.174078662,12,1,1,17,19,95424936,156817244,83622547,186726464,0,0,20811709,41401809,11601309,0,0,21610109,0,20811009,11100909,0,20012019,30410419,31110319,40211409,-3161160,0,31411419,0,0,0,0,40900209,11310919,0,0,41801209,0,40701309,0,40610719,31600209,20401209,0,11611809
27,295,371.219098800793,0,0,600818.797591937,600819.844643587,12,0,0,15,3,30210219,23622269,20300609,0,0,0,0,0,0,30210219,0,0,0,0,0,0,0,0,-3021160,20601109,0,0,0,0,0,0,20300609,0,0,0,0,0,0,0,0,0,0,0,0,0
27,296,421.470941160806,0,0,600821.409346534,600822.456401264,12,0,0,22,0,0,0,0,0,0,0,0,0,0,0,0,0,0,0,0,0,0,0,0,0,0,0,0,0,0,-21210291,0,0,0,0,0,0,0,0,0,0,0,0,0,0
27,297,548.98397589568,1,0,600823.985802,600825.032846721,12,0,1,11,9,82022937,56764098,10701019,41111818,0,0,0,0,10210919,31701409,0,0,40110609,11401609,-4141051,0,10510719,0,0,0,0,30710719,10701019,0,0,0,0,0,0,0,0,0,0,0,0,30710509,0,10401309,0,0
27,298,466.506542521529,0,0,600826.609319125,600827.656371929,12,1,0,20,9,21900609,53924657,46600888,72213937,0,0,0,0,0,0,0,21900609,0,20312019,0,11701119,0,21911519,0,0,0,0,0,-4080050,0,21610419,0,0,20910419,0,0,0,20511509,0,21601019,0,0,0,30101409,0
27,299,732.452456839383,0,0,600829.209298491,600830.256350141,12,1,0,1,31,231787442,165926093,188437421,204935003,-2140140,21501109,30910409,20401509,41301109,41610819,21900319,31210709,20811319,21300009,0,40010719,0,20801109,31310519,11501009,30401419,10601309,20311409,11501809,20900619,10200619,11200009,40711109,41210019,11301309,21100519,0,0,31900109,30310719,41000809,10310909,40701619,30400219,20310619
27,300,642.918276716955,1,0,600832.032820543,600833.079862184,12,0,1,34,31,197348502,198326812,230647911,169523824,20011209,20700119,0,22011909,40201909,11101719,41200109,11710609,30410919,21101319,20310809,0,22000019,30700509,10001519,31901309,41611309,20700019,30400219,20900709,11610709,42011609,41110809,10610519,31900419,30601309,11501609,0,20601109,11310109,0,21111309,41900519,-2200040,31300419,41100319
27,301,502.761920448393,1,0,600834.726978276,600835.773968332,12,0,1,28,3,11510819,0,10701319,24872819,0,0,0,0,0,0,0,11510819,0,0,0,0,0,0,0,0,0,0,0,0,0,0,0,10701319,0,0,0,-4071010,0,0,0,0,0,0,20801809,0
27,302,448.966113734059,1,0,600837.432795367,600838.479831618,12,0,1,10,9,40800219,45324908,73322727,42002528,0,40800219,0,0,0,0,0,0,0,-3111161,11000519,0,0,21101309,0,0,10111919,0,0,0,0,11110709,0,30401109,31810909,0,0,0,0,0,0,0,10701319,0,0,31301209
27,303,564.194611972198,0,0,600839.997472137,600841.044529946,12,0,0,6,31,188478774,168238193,178565712,218352641,11210619,11301419,40311809,30900809,0,-1140161,31911919,21302019,40400019,0,10201419,41701609,31200609,41211919,11710709,21411909,0,10800019,41310209,11501519,21310619,30010319,10700809,10110309,0,11711019,41910909,31001609,10410719,10311809,21200519,41401919,11210419,42011909,10201819,40601919
27,304,520.073296502233,1,0,600842.691565581,600843.738631859,12,1,1,12,19,114733956,189673596,144343294,125731966,0,30310409,0,40700119,0,11911809,0,0,31811619,20700009,0,-4140121,41011719,40710119,41500909,41610719,0,0,20210309,21200119,0,40011219,11000219,0,41810509,10110919,0,0,31800019,0,0,20710109,0,41410519,31811319,0
27,305,498.612410272472,1,0,600845.456268837,600846.503320871,12,1,1,27,0,0,0,0,0,0,0,0,0,0,0,0,0,0,0,0,0,0,0,0,0,0,0,0,0,0,0,0,0,0,0,-21001891,0,0,0,0,0,0,0,0,0
27,306,549.680757918395,0,0,600848.021021829,600849.068021894,12,0,0,7,31,201106934,230834192,209377322,229336802,40500409,20210419,41511019,21201209,12011219,41501919,-4060121,20110619,0,31600109,41500709,31400109,21900319,41600719,41110509,10911709,10810009,0,0,11210619,31401509,31610719,11510419,40310219,21611719,31211909,30510209,0,31710109,21410409,31100309,21701919,40100319,11411919,31101209,40800609
27,307,508.682257728651,1,0,600850.77388518,600851.820997654,12,0,1,24,19,82824756,92614336,87797065,96142374,20011309,0,0,0,10401209,0,0,41512019,10900219,0,11501709,0,0,40710909,30200509,0,10201209,0,30711419,0,0,10711919,0,-1051070,11910119,22010919,11401619,21610309,0,0,21410709,12000019,10200609,10910209,0,20010519
27,308,457.464544568211,0,0,600853.409167527,600854.456216867,12,1,0,2,19,104521847,103123346,156747283,61624436,0,-1010001,0,30300409,31100009,0,0,31300209,10811219,0,0,0,0,10601509,11710019,0,40801609,40010209,0,30510009,30911509,21210709,31910319,10201509,21501909,10501319,0,10010209,0,0,0,10701709,0,20902009,20010509,0
27,309,519.244472496212,1,0,600855.99738706,600857.04443101,12,1,1,21,31,218534593,196867231,130976694,287740621,10900719,41510119,22010309,31400409,30900609,0,40300719,41511709,0,21400619,20701919,21011319,10010119,10211019,10610409,40311509,31510009,31100309,31510809,21300919,-2050090,11701819,21601319,21600019,21211719,0,0,41001409,30301909,21700019,40201419,30310819,11701309,41100109,40911609,30512019
27,310,668.450910714455,1,0,600858.656192922,600859.703247651,12,1,1,19,31,188149632,247562922,169866853,219027602,31511219,20311519,0,20001109,10311709,30501219,11901319,32000319,31611219,0,40812019,40601109,40412019,30411619,21810909,31602019,10311419,31601809,-4030070,20300109,31001809,0,40400709,10310619,21812009,21511319,20500209,40011719,41800419,32000809,40401309,11011319,11700209,21800109,0,20301709
27,311,485.772372921929,0,0,600861.573824048,600862.620929592,12,0,0,30,19,117838613,114532756,113916455,43326097,0,11001209,10611419,20700219,11111819,31210819,0,11701209,21501919,30811119,31501119,0,0,0,40510509,0,11710009,0,0,20201709,0,0,0,30201019,20710909,31501209,11301609,0,20002019,-1111040,0,0,0,11701519,10511519,0
27,312,504.196675494313,1,0,600864.197341172,600865.244388203,12,0,1,26,9,94632647,40000309,56711349,43002147,21510019,0,42011709,0,0,31110919,0,0,0,0,0,40000309,0,0,0,0,0,0,0,0,0,41610419,0,11910909,0,-3190021,0,10900219,0,21201419,0,0,0,0,10900509,0
27,313,433.277739211917,0,0,600884.397215983,600885.444274947,13,1,0,20,9,21900609,53924657,46600888,72213937,0,0,0,0,0,0,0,21900609,0,20312019,0,11701119,0,21911519,0,0,0,0,0,-4080050,0,21610419,0,0,20910419,0,0,0,20511509,0,21601019,0,0,0,30101409,0
27,314,535.69776727818,1,0,600887.06780054,600888.114847571,13,0,1,11,31,210548812,159826573,257138032,179656922,21600319,32000309,31711819,31100609,20910109,21001809,10611919,0,41611919,21701609,-2080190,20710309,0,32011409,32000209,20711619,10611019,20000209,41001319,21210019,41200909,0,31901019,30811609,20301119,40411619,30300419,21610509,21201419,0,21600519,20611319,20000919,12011509,41010109,21610619
27,315,537.875114823692,1,0,600889.773666906,600890.820765136,13,1,1,2,19,104521847,103123346,156747283,61624436,0,-1010001,0,30300409,31100009,0,0,31300209,10811219,0,0,0,0,10601509,11710019,0,40801609,40010209,0,30510009,30911509,21210709,31910319,10201509,21501909,10501319,0,10010209,0,0,0,10701709,0,20902009,20010509,0
27,316,556.724800728261,0,0,600892.561880588,600893.608936087,13,1,0,1,31,231787442,165926093,188437421,204935003,-2140140,21501109,30910409,20401509,41301109,41610819,21900319,31210709,20811319,21300009,0,40010719,0,20801109,31310519,11501009,30401419,10601309,20311409,11501809,20900619,10200619,11200009,40711109,41210019,11301309,21100519,0,0,31900109,30310719,41000809,10310909,40701619,30400219,20310619
27,317,624.742274987511,1,0,600895.373630489,600896.420681368,13,1,1,32,3,31211419,40710109,40800909,1150160,0,0,0,0,0,0,31211419,0,0,0,0,0,0,40710109,0,0,0,0,0,0,0,0,0,40800909,0,0,0,0,0,0,0,-1150160,0,0,0,0
27,318,484.633654006757,0,0,600898.161849945,600899.2088989,13,1,0,12,19,114733956,189673596,144343294,125731966,0,30310409,0,40700119,0,11911809,0,0,31811619,20700009,0,-4140121,41011719,40710119,41500909,41610719,0,0,20210309,21200119,0,40011219,11000219,0,41810509,10110919,0,0,31800019,0,0,20710109,0,41410519,31811319,0
27,319,526.461363304406,1,0,600900.797132677,600901.844180862,13,0,1,10,19,183935304,105131446,106844755,134233456,0,0,30901719,41400319,11111419,40210319,0,20000409,40311119,-2100190,20310709,0,0,0,40600209,20110019,22010319,0,10411619,0,0,11910509,0,31701609,30910909,0,21910109,30810409,40901419,40511519,0,0,0,22010109,0,0
27,320,505.653373431414,0,0,600903.420652496,600904.467692982,13,1,0,9,9,44241547,0,93313646,41820518,10300319,0,20800019,0,0,0,0,12000119,-1141090,0,0,0,0,0,0,0,0,0,0,40000819,11600109,0,31702009,0,0,0,10010709,0,0,0,10210509,0,0,0,31610009,0
27,321,439.650407643057,1,0,600906.020679213,600907.067671578,13,0,1,15,3,33003328,33031200,0,0,0,0,0,0,0,12001609,0,0,21001719,0,0,0,0,0,-2031191,31000009,0,0,0,0,0,0,0,0,0,0,0,0,0,0,0,0,0,0,0,0
27,322,560.876235831529,1,0,600908.632383765,600909.679423866,13,1,1,4,3,2161090,0,0,51624857,0,0,0,-2161090,0,0,0,0,0,0,0,0,0,0,0,0,0,0,0,0,0,0,0,0,0,0,0,0,0,0,0,10911819,30102019,10611019,0,0
27,323,597.114675445482,0,0,600911.432368058,600912.479505555,13,0,0,6,9,11321440,61611318,95615156,41322738,0,0,0,0,0,-1021021,0,10300419,0,0,0,0,0,0,20310409,0,0,41300909,11600719,0,0,31801919,0,0,41711909,0,10500609,0,21011919,0,0,0,0,20310819,0,0
27,324,558.05985047482,0,0,600914.279402077,600915.326503386,13,0,0,34,3,0,0,81001427,2160020,0,0,0,0,0,0,0,0,0,0,0,0,0,0,0,0,0,0,0,30801109,0,30100209,20100109,0,0,0,0,0,0,0,0,0,0,-2160020,0,0
27,325,494.655381306075,1,0,600917.008805431,600918.055852076,13,1,1,21,31,218534593,196867231,130976694,287740621,10900719,41510119,22010309,31400409,30900609,0,40300719,41511709,0,21400619,20701919,21011319,10010119,10211019,10610409,40311509,31510009,31100309,31510809,21300919,-2050090,11701819,21601319,21600019,21211719,0,0,41001409,30301909,21700019,40201419,30310819,11701309,41100109,40911609,30512019
27,326,619.646527105942,1,0,600919.667610908,600920.714648314,13,0,1,7,3,21172789,31101309,31411009,0,0,0,0,20101719,0,0,-1071070,0,0,0,0,0,0,0,31101309,0,0,0,0,0,0,31411009,0,0,0,0,0,0,0,0,0,0,0,0,0,0
27,327,560.216025216505,0,0,600922.338183917,600923.385228252,13,1,0,17,19,95424936,156817244,83622547,186726464,0,0,20811709,41401809,11601309,0,0,21610109,0,20811009,11100909,0,20012019,30410419,31110319,40211409,-3161160,0,31411419,0,0,0,0,40900209,11310919,0,0,41801209,0,40701309,0,40610719,31600209,20401209,0,11611809
27,328,523.011714918539,1,0,600925.126435325,600926.173448478,13,0,1,36,9,70201938,20110119,113825536,46023229,30001719,0,0,0,0,0,0,0,40200219,20110119,0,0,0,0,0,0,0,0,0,0,40801209,0,41712009,0,20600809,0,10711509,21100209,0,0,0,0,20801819,0,0,-4121201
27,329,490.493937279098,0,0,600927.714627141,600928.761672631,13,1,0,16,3,51222738,3110111,40901009,0,0,0,0,20011919,0,0,0,0,31210819,0,0,0,0,0,0,-3110111,0,0,0,40901009,0,0,0,0,0,0,0,0,0,0,0,0,0,0,0,0
27,330,535.501436330378,1,0,600930.314606507,600931.361656232,13,0,1,28,19,162825456,185546474,113913447,158649465,40410309,0,0,41201819,41001309,0,40212019,0,0,40411409,0,20811509,0,0,41600909,10611719,41210909,30900019,0,42001409,0,31001319,0,0,40910719,0,0,-3201001,40511009,21512009,0,20301309,0,40210619,12011609,20901909
27,331,536.210537189618,0,0,600932.949885774,600933.996933189,13,1,0,19,31,188149632,247562922,169866853,219027602,31511219,20311519,0,20001109,10311709,30501219,11901319,32000319,31611219,0,40812019,40601109,40412019,30411619,21810909,31602019,10311419,31601809,-4030070,20300109,31001809,0,40400709,10310619,21812009,21511319,20500209,40011719,41800419,32000809,40401309,11011319,11700209,21800109,0,20301709
27,332,450.388934928924,1,0,600935.596925259,600936.643973444,13,1,1,35,9,103823955,21611209,40220628,15982219,11300009,11211809,0,0,40701709,0,0,30500309,10110119,0,0,0,0,0,0,0,0,21611209,0,0,0,0,0,10110209,30110419,0,0,0,0,0,0,0,0,11801219,-4181000,0
27,333,606.082375510596,0,0,600938.232210686,600939.279248092,13,0,0,24,19,176626303,44923347,179999785,53714337,31010619,20900709,31111819,11601519,0,30701109,30000319,21300209,0,0,0,0,0,21510719,11901809,11510819,0,0,0,41611619,0,31811909,20801919,-4150081,20311619,40401119,20911519,11301809,0,0,0,0,10801009,0,31611519,0
27,334,661.165881552733,0,0,600940.938071277,600941.985119462,13,0,0,30,31,207346622,148446902,181155302,178061904,41400919,0,21100109,21400009,40811219,21810609,20800719,20011319,20011719,0,20711809,10210519,21701509,21610119,10211409,21800509,21600109,20600919,21610609,10300109,32001219,0,11011009,42000509,32010019,12011409,20210419,10110009,0,-2120121,20500219,41200409,30200319,21010709,42010009,10910109
27,335,511.690739425831,0,0,600943.808648058,600944.855700093,13,0,0,18,9,12010909,35423159,113822457,104411666,0,0,0,12010909,0,0,0,0,0,0,0,0,31302019,0,0,0,0,-4121140,40110819,41900919,31810719,0,0,0,0,0,0,10410019,0,0,0,41700319,0,21900109,30401219,0
27,336,473.115577711724,0,0,600946.443921551,600947.490974741,13,1,0,27,0,0,0,0,0,0,0,0,0,0,0,0,0,0,0,0,0,0,0,0,0,0,0,0,0,0,0,0,0,0,0,-21001891,0,0,0,0,0,0,0,0,0
27,337,525.159035343677,1,0,600949.032145704,600950.079190424,13,0,1,16,0,0,0,0,0,0,0,0,0,0,0,0,0,0,0,0,0,0,0,0,-20611291,0,0,0,0,0,0,0,0,0,0,0,0,0,0,0,0,0,0,0,0
27,338,734.678309643641,1,0,600951.761540204,600952.80858608,13,0,1,26,31,174337403,185946803,241217242,217872231,10511219,30200209,10500709,0,30802019,40810609,20412019,0,31100619,21701609,0,30700719,40910709,20100519,0,41711719,10610409,20211119,10510409,31510219,20110519,40812019,41801419,30410319,21702009,-3060110,41300219,40111019,10710919,10502009,21211419,41300609,30802019,10611009,10911319,41711909
27,339,405.950025306083,1,0,600980.973136736,600982.020215333,14,0,1,36,3,0,10010709,11211909,44960889,0,0,0,0,0,0,0,0,0,0,0,10010709,0,0,0,0,0,0,0,0,0,0,0,0,11211909,0,0,0,0,0,0,40910819,0,0,0,-4050070
27,340,491.069841082208,0,0,600983.537825825,600984.584867465,14,1,0,12,19,114733956,189673596,144343294,125731966,0,30310409,0,40700119,0,11911809,0,0,31811619,20700009,0,-4140121,41011719,40710119,41500909,41610719,0,0,20210309,21200119,0,40011219,11000219,0,41810509,10110919,0,0,31800019,0,0,20710109,0,41410519,31811319,0
27,341,439.010984962806,1,0,600986.126065376,600987.173095468,14,0,1,24,3,11201909,11611809,31982589,0,0,0,0,0,0,0,0,0,11201909,0,0,0,11611809,0,0,0,0,0,0,0,0,30911519,0,-1071070,0,0,0,0,0,0,0,0,0,0,0,0
27,342,403.752659796737,0,0,600988.76132732,600989.80837435,14,0,0,10,19,166213265,65393797,155535975,168165294,40001209,0,21500009,0,41810709,31100419,31800919,0,0,-1170050,0,0,0,21912019,21301519,0,0,21010209,0,10810609,0,41710319,0,40312019,40802019,0,21901009,31910019,41111519,21611819,0,0,21110209,0,41610119,10811609
27,343,880.789265036583,1,0,600991.278964759,600992.326029883,14,0,1,30,0,0,0,0,0,0,0,0,0,0,0,0,0,0,0,0,0,0,0,0,0,0,0,0,0,0,0,0,0,0,0,0,0,0,-11911801,0,0,0,0,0,0
27,344,465.793592040427,1,0,600994.267173745,600995.314225779,14,0,1,18,3,0,34204508,0,10611509,0,0,0,0,0,0,0,0,0,20211719,0,0,10911619,0,0,0,0,-3081170,0,0,0,0,0,0,0,0,0,0,0,0,0,0,0,10611509,0,0
27,345,412.696492276154,0,0,600996.820129948,600997.867153881,14,0,0,28,31,267648122,228650521,258729922,157248924,40701109,40711219,20801509,11401109,0,30610619,41600819,41711019,40110719,41111419,11401119,40012009,20101609,31801509,20701519,10610309,11800519,41110509,20101209,20500309,41301619,31901719,31711019,0,40801919,31500619,40911509,-1020140,10001509,41801609,30711319,31802019,10600319,0,0,31312009
27,346,456.97025291156,0,0,600999.38478824,601000.431839505,14,1,0,32,3,31211419,40710109,40800909,1150160,0,0,0,0,0,0,31211419,0,0,0,0,0,0,40710109,0,0,0,0,0,0,0,0,0,40800909,0,0,0,0,0,0,0,-1150160,0,0,0,0
27,347,569.6310516214,1,0,601002.055365484,601003.102414439,14,1,1,19,31,188149632,247562922,169866853,219027602,31511219,20311519,0,20001109,10311709,30501219,11901319,32000319,31611219,0,40812019,40601109,40412019,30411619,21810909,31602019,10311419,31601809,-4030070,20300109,31001809,0,40400709,10310619,21812009,21511319,20500209,40011719,41800419,32000809,40401309,11011319,11700209,21800109,0,20301709
27,348,441.195646882989,0,0,601004.84358494,601005.890636205,14,1,0,4,3,2161090,0,0,51624857,0,0,0,-2161090,0,0,0,0,0,0,0,0,0,0,0,0,0,0,0,0,0,0,0,0,0,0,0,0,0,0,0,10911819,30102019,10611019,0,0
27,349,605.568835628219,1,0,601007.455327603,601008.502384258,14,0,1,15,31,167548502,100998704,166336803,205259021,0,20811109,10810109,30911309,10701309,40901919,10211209,11500119,31701419,10300509,12010419,10001609,21901119,10311019,-4161001,11401209,20911819,0,10311909,41611619,40200009,20601519,11011409,0,22000219,0,20600119,40600909,10300119,10311319,41011919,10511209,30211509,11010519,40900109,10401409
27,350,454.891840694472,0,0,601010.172971125,601011.220011226,14,1,0,27,0,0,0,0,0,0,0,0,0,0,0,0,0,0,0,0,0,0,0,0,0,0,0,0,0,0,0,0,0,0,0,-21001891,0,0,0,0,0,0,0,0,0
