sub_id,Trial,RT,Resp,Error,Fix_onset,Disp_onset,block,repeat,tid,tloc,d_setsize,quad1,quad2,quad3,quad4,loc1,loc2,loc3,loc4,loc5,loc6,loc7,loc8,loc9,loc10,loc11,loc12,loc13,loc14,loc15,loc16,loc17,loc18,loc19,loc20,loc21,loc22,loc23,loc24,loc25,loc26,loc27,loc28,loc29,loc30,loc31,loc32,loc33,loc34,loc35,loc36
23,1,727.264058717992,1,0,426210.217642811,426211.264692151,1,0,1,8,9,168093107,72511328,63821928,21510019,0,40010319,41110909,0,0,40800519,0,-4160141,42011219,0,0,0,0,41710109,0,0,0,30801219,0,0,21810409,0,0,0,0,42011519,0,0,0,0,0,0,0,21510019,0,0
23,2,682.670779293403,1,0,426213.14702838,426214.194069636,1,1,1,29,31,167447722,236889331,217758193,180855113,11210919,21700009,31301419,10510119,0,11010809,40001619,30312009,11400819,40310119,40701319,11110409,30110419,10611809,30511709,11210019,31311709,31011819,40310619,0,21710819,31610909,20002009,41611809,41411909,0,21100119,10900019,-3120200,40000619,21511109,21210719,31910109,0,30700819,21501519
23,3,613.42181020882,0,0,426216.029339587,426217.076383922,1,1,0,1,19,55730959,135635184,158637894,103915465,-3110131,0,41710709,0,0,0,10910119,0,0,31801419,21800409,0,11711209,10010119,0,30011719,0,30300309,11210809,21510419,0,20101909,22001119,42011919,41801719,0,0,10900009,0,30001309,11511519,0,20900609,30602019,0,0
23,4,521.282589295879,1,0,426218.770484296,426219.817522472,1,0,1,21,19,177143974,102922056,165965415,114813646,0,11310019,30910309,0,21610909,41000509,41901109,30411119,0,21210819,0,0,40000509,0,0,10200209,0,31510519,0,30011619,-2021150,0,21610009,40510009,30801109,41011519,0,0,0,0,31710719,0,30700009,32001209,0,20401709
23,5,545.931349566672,0,0,426221.405763178,426222.452837541,1,0,0,27,3,0,54013018,42362930,0,0,0,0,0,0,0,0,0,0,32011909,0,0,22001109,0,0,0,0,0,0,0,0,0,41311809,0,0,0,-1051121,0,0,0,0,0,0,0,0,0
23,6,534.420587588102,0,0,426224.12335473,426225.170396755,1,1,0,16,31,196959402,178717005,238531211,180247702,21310919,11510919,40211809,31511009,40201909,0,10600609,30411719,11200509,30000819,21700619,30101619,11800519,40310909,0,-4001011,0,40801509,31701709,30710819,30510809,11300209,11501819,40201219,40201809,21901809,20501009,22001319,11400809,30811709,11710409,21910019,10311209,31200209,0,40902019
23,7,612.019391963258,1,0,426226.746851837,426227.817580216,1,0,1,23,31,245868532,146734794,169109713,239551041,40502019,0,20111819,10911319,40810119,30410919,31200419,31610309,40311609,21711419,0,10311209,0,12010119,20300509,42001019,40400519,0,40811209,41001409,10300609,20211909,-2160121,11112009,11111019,11400109,21001319,21511519,21501519,40901219,11800119,40901709,21010609,20311819,40612019,21000509
23,8,645.503425330389,0,0,426229.582111009,426230.629149185,1,0,0,36,3,0,11210019,21210419,15621269,0,0,0,0,0,0,0,0,0,0,0,0,0,0,0,0,11210019,0,0,21210419,0,0,0,0,0,0,0,0,0,0,0,11501219,0,0,0,-4120050
23,9,561.761775170453,1,0,426232.287961206,426233.335000922,1,1,1,28,19,138117775,215947693,104224266,85524427,21901019,0,31402019,0,41401109,11511619,0,0,31902009,40511009,0,20310219,41600619,20102009,0,12000219,40211709,41211909,40610919,0,31501519,20510609,0,0,0,11601219,0,-2200090,0,40611719,0,0,31001009,0,0,11711609
23,10,466.330355440732,1,0,426234.970276339,426236.017320675,1,1,1,15,9,21100919,64741208,114024866,30501019,0,0,0,0,0,0,0,21100919,0,11910009,0,0,0,0,-1120081,31301109,0,20410009,0,0,0,20301519,0,20711619,41700309,0,31311419,0,0,0,0,0,30501019,0,0,0
23,11,526.58159728162,1,0,426237.676124612,426238.723166252,1,0,1,16,0,0,0,0,0,0,0,0,0,0,0,0,0,0,0,0,0,0,0,0,-31511901,0,0,0,0,0,0,0,0,0,0,0,0,0,0,0,0,0,0,0,0
23,12,480.783385399263,1,0,426240.393741186,426241.440783597,1,1,1,30,3,41710709,0,20310509,24921130,0,0,0,0,41710709,0,0,0,0,0,0,0,0,0,0,0,0,0,0,0,0,0,0,0,0,20310509,0,0,0,-3020111,0,0,0,0,21901019,0
23,13,649.903546029236,0,0,426243.052527415,426244.09957098,1,0,0,5,9,45554598,22010519,73703756,20111109,0,20701309,0,0,-3050071,10401409,0,0,11401809,0,22010519,0,0,0,0,0,0,0,0,0,10200419,21000509,0,20901909,21600919,0,0,20111109,0,0,0,0,0,0,0,0
23,14,497.175471216906,1,0,426245.805443505,426246.852470517,1,1,1,17,9,32001309,12531580,114025265,21512818,0,0,0,0,0,0,0,0,32001309,11401419,0,0,0,0,0,0,-1130161,0,11411809,30700719,40300019,10801609,0,0,20811109,0,0,0,0,10201209,0,11311609,0,0,0,0
23,15,553.391151770484,1,0,426248.46422088,426249.511262521,1,1,1,10,0,0,0,0,0,0,0,0,0,0,0,0,0,0,-31411591,0,0,0,0,0,0,0,0,0,0,0,0,0,0,0,0,0,0,0,0,0,0,0,0,0,0
23,16,607.664696872234,0,0,426251.13478465,426252.18182629,1,0,0,9,9,74705647,0,102802437,85712837,0,0,0,0,0,20602009,10211919,41710709,-2181010,0,0,0,0,0,0,0,0,0,0,41401509,0,0,0,31200009,0,0,30200919,21800809,0,21901219,42010809,0,0,0,0,0
23,17,600.001249462366,0,0,426253.840657945,426254.887670713,1,1,0,18,19,166835784,99454967,145404865,114423556,30400919,0,20710919,41100009,21801819,0,41611009,0,11211109,22010819,0,0,12000619,41710409,0,21602019,0,-2131101,10201609,31100019,0,0,31401609,0,42000009,30701619,0,31901319,11501009,0,40311209,30710019,0,0,0,0
23,18,810.698893852532,1,0,426256.534770252,426257.581761078,1,0,1,3,19,61744058,155446584,135535784,155124565,0,20511319,-1021030,0,0,40211709,0,0,0,0,21810909,0,40110119,41211819,0,30601709,11000919,10711109,11611009,20911709,31000709,0,10100919,20310719,41600719,0,0,30811109,32010219,30600619,21601709,0,0,40100909,0,0
23,19,631.414569797926,0,0,426259.417038728,426260.46406728,1,0,0,22,31,229640231,229639622,178986134,166926593,21811519,10500919,40301109,41511309,11001719,40201619,11500019,31412009,21400009,20601919,10911909,11901809,40400619,41010119,42001309,41710119,0,21101819,11701309,40110419,41710319,-1051121,30100319,0,11701009,21410119,21201519,0,20601209,40101309,21201109,21710319,40801119,10500809,12010719,0
23,20,660.230933513958,1,0,426262.25229867,426263.299336076,1,0,1,32,3,0,40800909,31601019,43741300,0,0,0,0,0,0,0,0,0,0,0,0,40800909,0,0,0,0,0,31601019,0,0,0,0,0,0,0,0,0,0,0,40711219,-3030081,0,0,0,0
23,21,594.129032397177,0,0,426265.005197052,426266.052242928,1,1,0,33,3,12001409,32802628,0,3041160,0,0,0,0,12001409,0,0,0,0,0,0,0,20901509,0,0,0,11901119,0,0,0,0,0,0,0,0,0,0,0,0,0,0,0,-3041160,0,0,0
23,22,766.009758750442,1,0,426267.746343686,426268.793394181,1,1,1,13,31,135626584,189039133,240029741,199446802,0,10011719,20701309,0,41900209,0,21310019,11001419,30701909,11611209,20501419,31110109,-1170041,41001109,10010309,20411609,32011319,21212009,40200319,31801919,21801709,20811919,40900219,21110419,30201319,21200409,12001509,10400909,11012009,32010109,40810319,41501709,11500209,0,41901019,10310519
23,23,615.347007347737,0,0,426270.663954024,426271.711007214,1,0,0,4,19,98623607,112405166,148437874,155636075,0,0,40300519,-4120151,11701119,0,12000109,0,30501709,0,20401719,0,0,31300609,30201419,0,0,30501419,0,11501919,0,31511709,31710309,0,21811809,21602009,30300119,0,41511119,0,31310419,41611419,20301709,20901409,0,0
23,24,515.195948129985,0,0,426273.405099888,426274.452142683,1,1,0,7,3,4140011,0,11102009,72022628,0,0,0,0,0,0,-4140011,0,0,0,0,0,0,0,0,0,0,0,0,0,0,0,0,11102009,0,0,0,30910609,0,0,0,0,0,0,0,41112019
23,25,718.434175185394,0,0,426276.016836007,426277.063881112,1,1,0,35,9,157836094,31410409,0,22863908,10700119,11701909,0,0,41001019,31110119,31411419,0,31911509,0,31410409,0,0,0,0,0,0,0,0,0,0,0,0,0,0,0,0,0,0,0,10701809,11002009,0,0,-1160090,0
23,26,644.810877856798,0,0,426278.934449809,426279.981497225,1,0,0,6,31,166525094,218936813,269060731,191166021,30700109,40010109,20911519,0,21611609,-1171120,0,40310009,11810619,0,41210519,31010819,30400419,0,42001609,21700609,32001719,20611119,40901419,31911709,21701419,21111619,41010719,40010219,11002009,41400909,20010709,10110019,11410019,11410219,11301809,31211209,30600809,41800019,31911709,11410209
23,27,1451.63787883939,1,0,426301.510657745,426302.55769977,2,1,1,1,19,55730959,135635184,158637894,103915465,-3110131,0,41710709,0,0,0,10910119,0,0,31801419,21800409,0,11711209,10010119,0,30011719,0,30300309,11210809,21510419,0,20101909,22001119,42011919,41801719,0,0,10900009,0,30001309,11511519,0,20900609,30602019,0,0
23,28,717.259654775262,1,0,426305.19295594,426306.240027992,2,1,1,16,31,196959402,178717005,238531211,180247702,21310919,11510919,40211809,31511009,40201909,0,10600609,30411719,11200509,30000819,21700619,30101619,11800519,40310909,0,-4001011,0,40801509,31701709,30710819,30510809,11300209,11501819,40201219,40201809,21901809,20501009,22001319,11400809,30811709,11710409,21910019,10311209,31200209,0,40902019
23,29,967.676569125615,0,0,426308.122344203,426309.169393543,2,1,0,17,9,32001309,12531580,114025265,21512818,0,0,0,0,0,0,0,0,32001309,11401419,0,0,0,0,0,0,-1130161,0,11411809,30700719,40300019,10801609,0,0,20811109,0,0,0,0,10201209,0,11311609,0,0,0,0
23,30,610.452594817616,1,0,426311.192904355,426312.239940221,2,0,1,21,31,188848012,158738782,256176752,219527113,31201219,31701419,0,22000809,20710409,10811009,11101619,30210719,31110809,0,10901519,21210209,31511009,20511009,31500609,11901709,20001209,11201509,30801619,30610909,-1141040,40300519,40600809,21100609,20800309,30610219,40210719,30611019,41000619,12001819,41801009,0,11101419,0,41110909,41900319
23,31,467.446746537462,0,0,426314.004634622,426315.051665099,2,0,0,26,0,0,0,0,0,0,0,0,0,0,0,0,0,0,0,0,0,0,0,0,0,0,0,0,0,0,0,0,0,0,-11210691,0,0,0,0,0,0,0,0,0,0
23,32,586.426703783218,0,0,426316.557540011,426317.604607444,2,0,0,9,19,188586715,113544256,144416674,53722737,0,41100909,10011209,31900719,0,42002009,30300319,31210509,-2061041,0,0,0,20310419,31911909,0,0,40510909,20811019,30701719,0,10710419,20001209,40502009,30901309,0,11600009,0,10310209,21811209,0,0,0,0,0,0,21601319
23,33,518.901822681073,1,0,426319.369277978,426320.416118827,2,1,1,35,9,157836094,31410409,0,22863908,10700119,11701909,0,0,41001019,31110119,31411419,0,31911509,0,31410409,0,0,0,0,0,0,0,0,0,0,0,0,0,0,0,0,0,0,0,10701809,11002009,0,0,-1160090,0
23,34,509.222870867234,0,0,426322.039831738,426323.086874149,2,0,0,8,3,21221979,40900909,41910009,0,0,0,20110919,0,0,0,0,-1111060,0,0,0,0,0,0,0,40900909,0,0,41910009,0,0,0,0,0,0,0,0,0,0,0,0,0,0,0,0,0
23,35,402.043937181588,1,0,426324.780984147,426325.828029637,2,1,1,33,3,12001409,32802628,0,3041160,0,0,0,0,12001409,0,0,0,0,0,0,0,20901509,0,0,0,11901119,0,0,0,0,0,0,0,0,0,0,0,0,0,0,0,-3041160,0,0,0
23,36,575.091869628523,0,0,426327.428014777,426328.475045254,2,1,0,29,31,167447722,236889331,217758193,180855113,11210919,21700009,31301419,10510119,0,11010809,40001619,30312009,11400819,40310119,40701319,11110409,30110419,10611809,30511709,11210019,31311709,31011819,40310619,0,21710819,31610909,20002009,41611809,41411909,0,21100119,10900019,-3120200,40000619,21511109,21210719,31910109,0,30700819,21501519
23,37,465.802571910899,1,0,426330.110336455,426331.15738849,2,1,1,28,19,138117775,215947693,104224266,85524427,21901019,0,31402019,0,41401109,11511619,0,0,31902009,40511009,0,20310219,41600619,20102009,0,12000219,40211709,41211909,40610919,0,31501519,20510609,0,0,0,11601219,0,-2200090,0,40611719,0,0,31001009,0,0,11711609
23,38,425.851939478889,1,0,426332.722072959,426333.76911383,2,1,1,30,3,41710709,0,20310509,24921130,0,0,0,0,41710709,0,0,0,0,0,0,0,0,0,0,0,0,0,0,0,0,0,0,0,0,20310509,0,0,0,-3020111,0,0,0,0,21901019,0
23,39,415.448714396916,1,0,426335.251452908,426336.298498013,2,1,1,10,0,0,0,0,0,0,0,0,0,0,0,0,0,0,-31411591,0,0,0,0,0,0,0,0,0,0,0,0,0,0,0,0,0,0,0,0,0,0,0,0,0,0
23,40,522.777783393394,0,0,426337.816152776,426338.863169779,2,0,0,4,3,55613708,0,0,31911819,21912019,0,0,-3190080,30511609,0,0,0,0,0,0,0,0,0,0,0,0,0,0,0,0,0,0,0,0,0,0,0,0,0,31911819,0,0,0,0,0
23,41,714.52449663775,0,0,426340.498455205,426341.545488377,2,1,0,13,31,135626584,189039133,240029741,199446802,0,10011719,20701309,0,41900209,0,21310019,11001419,30701909,11611209,20501419,31110109,-1170041,41001109,10010309,20411609,32011319,21212009,40200319,31801919,21801709,20811919,40900219,21110419,30201319,21200409,12001509,10400909,11012009,32010109,40810319,41501709,11500209,0,41901019,10310519
23,42,480.563956836704,1,0,426343.392535869,426344.43956981,2,0,1,27,9,51334956,51821728,43022159,20920828,0,10001619,0,0,10111019,0,20711309,0,10511009,0,0,0,0,0,41011509,0,10810219,0,0,0,0,42002019,0,0,0,0,-1020140,0,0,0,10510209,0,0,0,0,10410619
23,43,495.813474059105,0,0,426345.957221108,426347.004255434,2,0,0,23,3,0,0,1121160,82314547,0,0,0,0,0,0,0,0,0,0,0,0,0,0,0,0,0,0,0,0,0,0,-1121160,0,0,0,0,0,0,41212019,0,30201219,0,10901309,0,0
23,44,599.9746870948,1,0,426348.521898648,426349.568938749,2,0,1,5,9,137246176,21800419,0,83112047,40411509,0,0,21810009,-1001121,31601809,0,10911109,31510619,0,0,0,0,0,0,0,21800419,0,0,0,0,0,0,0,0,0,0,0,0,31501409,0,20610019,0,0,31000619,0
23,45,570.944669249002,0,0,426351.321864078,426352.368906489,2,0,0,3,31,209717263,236834293,261061541,215658092,0,31211009,-2040080,32010609,31310219,20911709,31711919,40411709,20110009,41101009,40611619,20210609,40100219,31900009,21310519,41600309,0,0,20511909,41801719,10911519,31011009,40101019,42000919,10910819,41910919,21901709,31210709,30710119,20510509,10601609,30011109,30101409,21911209,40601419,0
23,46,593.459582712967,1,0,426353.992425538,426355.039464484,2,0,1,22,31,216636712,227348682,167146894,256538931,30410019,0,40400719,41411909,20400919,11000809,11211109,21300919,40500309,21901709,30311109,31901009,30310809,0,20811909,20301319,40300209,31510609,0,0,30211819,-2110200,31201519,30201609,20800719,21810919,30810109,20110419,41410509,11711609,41000419,40701109,40201519,10601219,20200209,30601919
23,47,586.633813625667,0,0,426356.710047117,426357.757144577,2,0,0,6,19,62633658,125358464,207534474,92835956,0,0,10700109,30201809,0,-1121131,0,0,20610609,30101419,0,11112009,11411609,21411309,31111609,20210509,0,0,21111309,40100419,42010119,41500509,0,0,31601409,0,31210709,0,0,0,21211409,0,30711819,0,20511619,20401109
23,48,547.19287151238,0,0,426359.427700648,426360.474696093,2,0,0,32,9,70913838,42710138,32423047,72601558,0,0,30312019,0,0,0,40601819,0,0,0,11110119,0,0,0,0,0,0,31600019,0,0,0,11111709,11311019,0,10000319,0,0,0,0,0,41200119,-1191120,30210319,0,0,0
23,49,442.944656941108,0,0,426362.121750976,426363.168784533,2,1,0,15,9,21100919,64741208,114024866,30501019,0,0,0,0,0,0,0,21100919,0,11910009,0,0,0,0,-1120081,31301109,0,20410009,0,0,0,20301519,0,20711619,41700309,0,31311419,0,0,0,0,0,30501019,0,0,0
23,50,766.547936189454,1,0,426364.651129385,426365.69818065,2,0,1,36,19,125846804,136655684,104722527,117433477,0,21010919,21100509,20512019,40411619,11300619,0,0,11511119,21711619,31710809,0,11601109,0,30810709,10210319,30611119,0,31901009,31311109,0,0,0,41510409,0,0,0,0,32011319,20400309,0,0,41700019,0,21310709,-2011121
23,51,545.01436901046,1,0,426367.521688074,426368.568731639,2,1,1,7,3,4140011,0,11102009,72022628,0,0,0,0,0,0,-4140011,0,0,0,0,0,0,0,0,0,0,0,0,0,0,0,0,11102009,0,0,0,30910609,0,0,0,0,0,0,0,41112019
23,52,733.51084429305,0,0,426370.145196344,426371.192233365,2,1,0,18,19,166835784,99454967,145404865,114423556,30400919,0,20710919,41100009,21801819,0,41611009,0,11211109,22010819,0,0,12000619,41710409,0,21602019,0,-2131101,10201609,31100019,0,0,31401609,0,42000009,30701619,0,31901319,11501009,0,40311209,30710019,0,0,0,0
23,53,751.267236948479,0,0,426390.980262265,426392.02730968,3,1,0,28,19,138117775,215947693,104224266,85524427,21901019,0,31402019,0,41401109,11511619,0,0,31902009,40511009,0,20310219,41600619,20102009,0,12000219,40211709,41211909,40610919,0,31501519,20510609,0,0,0,11601219,0,-2200090,0,40611719,0,0,31001009,0,0,11711609
23,54,555.794087355025,1,0,426393.850820183,426394.897924573,3,0,1,21,3,30522138,0,2191061,11610119,0,0,0,0,20312019,10210119,0,0,0,0,0,0,0,0,0,0,0,0,0,0,-2191061,0,0,0,0,0,0,11610119,0,0,0,0,0,0,0,0
23,55,613.464541034773,1,0,426396.627258249,426397.674306049,3,1,1,7,3,4140011,0,11102009,72022628,0,0,0,0,0,0,-4140011,0,0,0,0,0,0,0,0,0,0,0,0,0,0,0,0,11102009,0,0,0,30910609,0,0,0,0,0,0,0,41112019
23,56,612.862074747682,1,0,426399.391939562,426400.438988517,3,1,1,16,31,196959402,178717005,238531211,180247702,21310919,11510919,40211809,31511009,40201909,0,10600609,30411719,11200509,30000819,21700619,30101619,11800519,40310909,0,-4001011,0,40801509,31701709,30710819,30510809,11300209,11501819,40201219,40201809,21901809,20501009,22001319,11400809,30811709,11710409,21910019,10311209,31200209,0,40902019
23,57,522.033651010133,1,0,426402.203664825,426403.25076575,3,0,1,22,19,71611737,83031946,140363606,176923993,0,20400309,0,0,0,0,20701119,30510309,0,10210409,41710709,0,20510119,0,0,0,10600709,0,41510209,0,0,-3141141,31410309,21100219,31800909,0,11400819,31801119,10100109,11700309,31700819,30111609,40400009,21110019,0,0
23,58,701.44578255713,0,0,426404.933063945,426405.980099811,3,0,0,5,19,146193687,125834575,175237484,111323176,0,40810409,0,31910009,-1151031,31711919,0,0,40610319,0,10911209,41811219,0,11100619,0,41010909,0,21000619,11810809,0,40112009,30700209,0,41400519,20802019,0,30411919,0,10310519,0,30201119,40600519,30211019,0,0,0
23,59,662.813646486029,1,0,426407.850721248,426408.897718233,3,1,1,15,9,21100919,64741208,114024866,30501019,0,0,0,0,0,0,0,21100919,0,11910009,0,0,0,0,-1120081,31301109,0,20410009,0,0,0,20301519,0,20711619,41700309,0,31311419,0,0,0,0,0,30501019,0,0,0
23,60,516.603370779194,0,0,426410.580056464,426411.627105804,3,0,0,27,9,63121228,51812528,93482858,61411328,0,0,0,0,31211119,0,0,31910109,0,0,0,0,0,0,21501709,0,30310819,0,0,0,0,20911709,0,30200419,0,41310619,-1060111,40910409,0,0,0,0,0,0,0,20500919
23,61,527.373465010896,1,0,426413.180030826,426414.227072466,3,1,1,13,31,135626584,189039133,240029741,199446802,0,10011719,20701309,0,41900209,0,21310019,11001419,30701909,11611209,20501419,31110109,-1170041,41001109,10010309,20411609,32011319,21212009,40200319,31801919,21801709,20811919,40900219,21110419,30201319,21200409,12001509,10400909,11012009,32010109,40810319,41501709,11500209,0,41901019,10310519
23,62,535.707901930436,1,0,426415.932951921,426416.979987787,3,1,1,17,9,32001309,12531580,114025265,21512818,0,0,0,0,0,0,0,0,32001309,11401419,0,0,0,0,0,0,-1130161,0,11411809,30700719,40300019,10801609,0,0,20811109,0,0,0,0,10201209,0,11311609,0,0,0,0
23,63,671.879127097782,0,0,426418.697670575,426419.744662555,3,0,0,4,9,54083389,53125747,21412019,43311537,0,0,0,-3070061,0,0,21011509,30001819,0,0,0,0,0,10612019,0,20701909,21811819,0,0,0,0,0,0,0,0,21412019,0,0,0,11700619,21600309,10010609,0,0,0,0
23,64,685.503717861138,0,0,426421.521119869,426422.568170749,3,1,0,35,9,157836094,31410409,0,22863908,10700119,11701909,0,0,41001019,31110119,31411419,0,31911509,0,31410409,0,0,0,0,0,0,0,0,0,0,0,0,0,0,0,0,0,0,0,10701809,11002009,0,0,-1160090,0
23,65,593.765974626876,1,0,426424.426975379,426425.473814952,3,1,1,18,19,166835784,99454967,145404865,114423556,30400919,0,20710919,41100009,21801819,0,41611009,0,11211109,22010819,0,0,12000619,41710409,0,21602019,0,-2131101,10201609,31100019,0,0,31401609,0,42000009,30701619,0,31901319,11501009,0,40311209,30710019,0,0,0,0
23,66,487.914044759236,1,0,426427.144605042,426428.191642448,3,1,1,30,3,41710709,0,20310509,24921130,0,0,0,0,41710709,0,0,0,0,0,0,0,0,0,0,0,0,0,0,0,0,0,0,0,0,20310509,0,0,0,-3020111,0,0,0,0,21901019,0
23,67,609.268450411037,1,0,426429.721040105,426430.768084825,3,1,1,29,31,167447722,236889331,217758193,180855113,11210919,21700009,31301419,10510119,0,11010809,40001619,30312009,11400819,40310119,40701319,11110409,30110419,10611809,30511709,11210019,31311709,31011819,40310619,0,21710819,31610909,20002009,41611809,41411909,0,21100119,10900019,-3120200,40000619,21511109,21210719,31910109,0,30700819,21501519
23,68,667.870513221715,0,0,426432.391606954,426433.43864898,3,0,0,9,31,199869303,138854503,216928932,209277192,20611119,10910809,21111219,40411109,30900619,20901509,10511219,41401509,-3110191,0,11210219,11810819,21510709,21810309,22011619,40300109,10200719,0,30201509,30010709,0,21400219,41602019,21701319,40000819,20411319,11601019,20811219,10211509,32011019,0,11611509,41810609,31410809,21210509,40200009
23,69,815.723808598705,0,0,426435.179811782,426436.226853038,3,0,0,23,31,207738522,145446793,247279664,209239721,31502019,30400919,31911619,30211019,0,10400509,11600609,21100119,40611709,31311209,40510209,0,0,30311309,10401119,10611409,11701119,10600419,42002019,30910419,40010219,40511819,-1011051,0,40511009,41411609,10911519,21001509,31301909,11810119,11311209,41900809,10811809,10400119,30201919,40500319
23,70,723.366314021405,0,0,426438.062132998,426439.109178488,3,1,0,33,3,12001409,32802628,0,3041160,0,0,0,0,12001409,0,0,0,0,0,0,0,20901509,0,0,0,11901119,0,0,0,0,0,0,0,0,0,0,0,0,0,0,0,-3041160,0,0,0
23,71,525.270415237173,1,0,426440.920920689,426441.967971954,3,1,1,10,0,0,0,0,0,0,0,0,0,0,0,0,0,0,-31411591,0,0,0,0,0,0,0,0,0,0,0,0,0,0,0,0,0,0,0,0,0,0,0,0,0,0
23,72,714.715052978136,0,0,426443.579726551,426444.626771657,3,0,0,3,31,115056174,209871021,272478831,177538713,20110219,0,-1000180,30711909,11710219,10611509,0,20401619,20510519,31201509,11901009,10010419,10211009,30811119,41701309,41411119,11311919,21311609,41600519,11211209,22012009,20410119,31610609,41411219,31811109,31110019,41302019,41110919,41002019,10011119,30811219,31200419,11601609,11801409,0,0
23,73,733.14166534692,1,0,426446.462038913,426447.509092872,3,0,1,8,3,61893918,21401909,0,0,20501609,0,0,0,0,0,40311219,-1081090,0,0,0,0,0,21401909,0,0,0,0,0,0,0,0,0,0,0,0,0,0,0,0,0,0,0,0,0,0
23,74,771.119365235791,1,0,426449.403193939,426450.450237504,3,0,1,3,0,0,0,0,0,0,0,-31600401,0,0,0,0,0,0,0,0,0,0,0,0,0,0,0,0,0,0,0,0,0,0,0,0,0,0,0,0,0,0,0,0,0
23,75,744.847603258677,0,0,426452.28556366,426453.332560645,3,0,0,6,3,1071021,53501928,31901909,0,0,0,0,0,0,-1071021,0,0,0,0,0,0,41501019,0,0,12000909,0,0,0,0,0,0,0,0,31901909,0,0,0,0,0,0,0,0,0,0,0
23,76,953.128068416845,0,0,426455.156077692,426456.203120488,3,0,0,32,19,104615465,134846274,106115276,84637337,0,11301109,0,30811319,10801819,41300109,0,10401109,0,0,31410019,0,20312019,20910809,10310909,30400609,0,21501909,0,0,21602019,0,0,0,42002019,11900719,30610519,10711319,0,0,0,-2001161,31301619,20511619,20111619,0
23,77,836.817825678736,0,0,426458.191346027,426459.238419619,3,0,0,36,9,71211828,62212238,112823157,34462028,40901009,30310819,0,0,0,0,0,0,0,0,0,0,0,0,31201819,31010419,0,0,0,0,0,40911219,40711719,0,0,31200219,0,0,0,0,0,22001319,0,11410609,0,-1050100
23,78,1066.16959511302,0,0,426461.203080837,426462.250120168,3,1,0,1,19,55730959,135635184,158637894,103915465,-3110131,0,41710709,0,0,0,10910119,0,0,31801419,21800409,0,11711209,10010119,0,30011719,0,30300309,11210809,21510419,0,20101909,22001119,42011919,41801719,0,0,10900009,0,30001309,11511519,0,20900609,30602019,0,0
23,79,808.325600344688,1,0,426479.508771814,426480.555818074,4,1,1,35,9,157836094,31410409,0,22863908,10700119,11701909,0,0,41001019,31110119,31411419,0,31911509,0,31410409,0,0,0,0,0,0,0,0,0,0,0,0,0,0,0,0,0,0,0,10701809,11002009,0,0,-1160090,0
23,80,658.025868586265,1,0,426482.497007746,426483.544027444,4,1,1,15,9,21100919,64741208,114024866,30501019,0,0,0,0,0,0,0,21100919,0,11910009,0,0,0,0,-1120081,31301109,0,20410009,0,0,0,20301519,0,20711619,41700309,0,31311419,0,0,0,0,0,30501019,0,0,0
23,81,755.283165199216,0,0,426485.261690984,426486.308709527,4,1,0,7,3,4140011,0,11102009,72022628,0,0,0,0,0,0,-4140011,0,0,0,0,0,0,0,0,0,0,0,0,0,0,0,0,11102009,0,0,0,30910609,0,0,0,0,0,0,0,41112019
23,82,581.121921364684,1,0,426488.202808668,426489.249852234,4,0,1,22,31,261747921,206175412,229037004,146956193,40400409,42000909,21201109,11701019,21710809,40010819,41410519,11800619,31511709,21110219,40301619,30710109,30310319,30711509,11411009,0,10910409,30710219,0,20200319,30601719,-1001171,41200819,41710119,31111619,21500819,41710419,0,31812019,11400309,10610519,20610309,40600809,11810709,0,20111519
23,83,609.535229334142,1,0,426490.908668105,426491.955712825,4,0,1,4,3,13002530,0,61302228,0,0,0,0,-1101111,0,0,11901419,0,0,0,0,0,0,0,0,0,0,0,0,0,0,0,30701509,0,30600719,0,0,0,0,0,0,0,0,0,0,0
23,84,861.93354538409,0,0,426493.685105401,426494.732144346,4,0,0,5,19,203658804,31110609,135414855,95946594,20201019,11701419,41601719,30601119,-4140181,21811819,0,31800119,41801409,0,0,0,31110609,0,0,0,0,0,0,10600419,41800909,30900909,0,0,10200909,0,41911709,11811019,0,10811109,10301519,21610819,0,31410619,10001509,0
23,85,645.680123066995,1,0,426496.614491355,426497.661543004,4,0,1,8,9,26753278,41701319,66003945,31111219,10800409,11811719,0,0,0,0,0,-4141150,0,0,0,0,0,0,41701319,0,0,0,10400509,0,21800009,11601909,0,0,10201209,12000309,0,0,0,0,0,31111219,0,0,0,0
23,86,660.326404147781,1,0,426499.508584722,426500.555629057,4,0,1,27,31,208254523,209146232,120169803,237556131,21310319,40310119,31200019,0,21810119,30811609,0,21411819,41400519,0,31401219,31811019,10110519,10200319,30500509,41100609,22010619,32011419,10801809,10101109,20001109,0,10610409,12010809,10901719,41711819,-4031020,30010819,11200509,21111009,10510009,31511719,40700709,30610019,21801119,40100219
23,87,1044.70177955227,0,0,426502.367378958,426503.414423678,4,0,0,6,9,107794156,21901019,0,73534966,31210719,0,0,21611709,40300109,-4061110,0,0,10610509,0,0,21901019,0,0,0,0,0,0,0,0,0,0,0,0,0,0,0,10401119,0,30510919,0,11511119,0,0,21111809,0
23,88,640.291803749278,1,0,426505.602647985,426506.649690011,4,1,1,17,9,32001309,12531580,114025265,21512818,0,0,0,0,0,0,0,0,32001309,11401419,0,0,0,0,0,0,-1130161,0,11411809,30700719,40300019,10801609,0,0,20811109,0,0,0,0,10201209,0,11311609,0,0,0,0
23,89,592.477928497829,1,0,426508.355555991,426509.402599942,4,1,1,18,19,166835784,99454967,145404865,114423556,30400919,0,20710919,41100009,21801819,0,41611009,0,11211109,22010819,0,0,12000619,41710409,0,21602019,0,-2131101,10201609,31100019,0,0,31401609,0,42000009,30701619,0,31901319,11501009,0,40311209,30710019,0,0,0,0
23,90,653.539901250042,0,0,426511.014364933,426512.061403494,4,0,0,21,3,30001109,0,2010000,63112328,0,0,0,0,0,0,0,30001109,0,0,0,0,0,0,0,0,0,0,0,0,-2010000,0,0,0,0,0,0,0,0,31711219,0,0,0,0,0,31401109
23,91,643.95857101772,0,0,426513.837859653,426514.884894364,4,0,0,32,19,64615066,147177822,92823346,54271887,0,20610719,0,0,0,11401719,0,22001819,10600809,10510509,10611119,30811319,30611219,0,11510019,20601109,21510819,11011709,21410409,0,20002019,31410309,0,20000609,0,0,0,0,0,20110609,0,-3150040,21001019,0,10010219,0
23,92,584.416429977864,1,0,426516.708418726,426517.755466141,4,0,1,36,3,52311828,0,41400609,3101191,11901209,0,0,0,0,40410619,0,0,0,0,0,0,0,0,0,0,0,0,0,41400609,0,0,0,0,0,0,0,0,0,0,0,0,0,0,0,-3101191
23,93,906.835564703215,1,0,426519.531905362,426520.578962016,4,0,1,3,31,252347973,244746632,169377222,198241012,41401809,41011309,-4200100,42000609,30000319,31511709,0,21010509,41211609,40811719,30111609,40301019,10911019,30400619,31400019,40010109,0,20800519,20011109,21710919,11210519,40811809,10510519,11501009,0,41711319,11910019,40501819,11600609,30712019,11501909,30701119,30401019,21011409,0,21811109
23,94,634.19746333966,0,0,426522.496586597,426523.543646331,4,1,0,16,31,196959402,178717005,238531211,180247702,21310919,11510919,40211809,31511009,40201909,0,10600609,30411719,11200509,30000819,21700619,30101619,11800519,40310909,0,-4001011,0,40801509,31701709,30710819,30510809,11300209,11501819,40201219,40201809,21901809,20501009,22001319,11400809,30811709,11710409,21910019,10311209,31200209,0,40902019
23,95,756.267514196225,0,0,426525.202438719,426526.249497683,4,1,0,13,31,135626584,189039133,240029741,199446802,0,10011719,20701309,0,41900209,0,21310019,11001419,30701909,11611209,20501419,31110109,-1170041,41001109,10010309,20411609,32011319,21212009,40200319,31801919,21801709,20811919,40900219,21110419,30201319,21200409,12001509,10400909,11012009,32010109,40810319,41501709,11500209,0,41901019,10310519
23,96,686.260938993655,0,0,426528.096540556,426529.143591821,4,0,0,9,9,86241688,73034437,85224037,10400609,41000309,0,0,0,0,41200309,0,0,-4041070,0,0,0,0,41311309,21011619,10711509,0,0,0,0,0,0,0,11911209,0,31301309,42011519,0,0,0,0,10400609,0,0,0,0
23,97,668.023343256209,1,0,426530.990678194,426532.037694042,4,1,1,10,0,0,0,0,0,0,0,0,0,0,0,0,0,0,-31411591,0,0,0,0,0,0,0,0,0,0,0,0,0,0,0,0,0,0,0,0,0,0,0,0,0,0
23,98,802.016450907104,0,0,426533.77884337,426534.825885396,4,1,0,29,31,167447722,236889331,217758193,180855113,11210919,21700009,31301419,10510119,0,11010809,40001619,30312009,11400819,40310119,40701319,11110409,30110419,10611809,30511709,11210019,31311709,31011819,40310619,0,21710819,31610909,20002009,41611809,41411909,0,21100119,10900019,-3120200,40000619,21511109,21210719,31910109,0,30700819,21501519
23,99,720.348978356924,0,0,426536.649460188,426537.696456018,4,1,0,30,3,41710709,0,20310509,24921130,0,0,0,0,41710709,0,0,0,0,0,0,0,0,0,0,0,0,0,0,0,0,0,0,0,0,20310509,0,0,0,-3020111,0,0,0,0,21901019,0
23,100,830.669975432102,0,0,426539.614080985,426540.66112917,4,1,0,1,19,55730959,135635184,158637894,103915465,-3110131,0,41710709,0,0,0,10910119,0,0,31801419,21800409,0,11711209,10010119,0,30011719,0,30300309,11210809,21510419,0,20101909,22001119,42011919,41801719,0,0,10900009,0,30001309,11511519,0,20900609,30602019,0,0
23,101,597.859318484552,1,0,426542.519924561,426543.566986989,4,1,1,28,19,138117775,215947693,104224266,85524427,21901019,0,31402019,0,41401109,11511619,0,0,31902009,40511009,0,20310219,41600619,20102009,0,12000219,40211709,41211909,40610919,0,31501519,20510609,0,0,0,11601219,0,-2200090,0,40611719,0,0,31001009,0,0,11711609
23,102,737.7877770341,0,0,426545.319916938,426546.366959349,4,0,0,23,19,63713237,115114155,148903776,156436263,0,21400409,11201119,0,0,0,31111709,0,0,20001409,0,20310909,0,0,11300419,0,22000809,41500609,0,0,21701309,0,-4200040,41101009,0,41101409,40800009,10900309,30101209,0,11000609,41010309,31611309,0,20110709,11701809
23,103,684.248355333693,1,0,426548.237538825,426549.284578541,4,0,1,21,0,0,0,0,0,0,0,0,0,0,0,0,0,0,0,0,0,0,0,0,0,0,0,0,0,-11111291,0,0,0,0,0,0,0,0,0,0,0,0,0,0,0
23,104,726.427535351831,0,0,426551.002206664,426552.049253309,4,1,0,33,3,12001409,32802628,0,3041160,0,0,0,0,12001409,0,0,0,0,0,0,0,20901509,0,0,0,11901119,0,0,0,0,0,0,0,0,0,0,0,0,0,0,0,-3041160,0,0,0
23,105,595.525291166268,1,0,426565.802065845,426566.849119804,5,1,1,16,31,196959402,178717005,238531211,180247702,21310919,11510919,40211809,31511009,40201909,0,10600609,30411719,11200509,30000819,21700619,30101619,11800519,40310909,0,-4001011,0,40801509,31701709,30710819,30510809,11300209,11501819,40201219,40201809,21901809,20501009,22001319,11400809,30811709,11710409,21910019,10311209,31200209,0,40902019
23,106,690.677228092682,1,0,426568.613875415,426569.660857001,5,0,1,32,19,81412028,106824075,215235303,116346086,0,0,0,0,0,40001419,0,0,41410609,11811419,0,0,40411709,0,0,11300019,12000219,31300709,30600009,41910819,0,40000719,11401519,20010609,40600909,30710719,0,31400709,11111409,40401819,0,-1120021,0,11000309,0,21311819
23,107,795.913304144051,0,0,426571.460842065,426572.507691946,5,0,0,22,31,216359412,189436231,196653883,156839303,20110909,0,31011119,21301619,30000309,31101209,40911509,30410919,11511819,10610319,10601109,10601509,11100219,20601619,31800509,41500119,12010319,40610509,10011019,0,21611219,-3130070,31200409,20200119,40100409,30300119,40100519,21501209,30901419,0,11611619,21410209,30111719,20201219,0,21101909
23,108,643.446570960805,0,0,426574.496112709,426575.543141646,5,1,0,10,0,0,0,0,0,0,0,0,0,0,0,0,0,0,-31411591,0,0,0,0,0,0,0,0,0,0,0,0,0,0,0,0,0,0,0,0,0,0,0,0,0,0
23,109,677.580420917366,1,0,426577.20196791,426578.24901494,5,0,1,3,9,13461170,70822628,82621447,103220727,0,10411009,-3050161,0,0,0,0,0,0,0,0,0,30010609,0,40812019,0,0,0,0,0,21010919,0,0,40310209,21300319,0,0,0,41500109,0,0,0,40010509,21710109,0,0
23,110,1050.08239956805,0,0,426580.072526214,426581.119567469,5,0,0,36,3,0,0,10202009,65323579,0,0,0,0,0,0,0,0,0,0,0,0,0,0,0,0,0,0,0,10202009,0,0,0,0,0,0,0,40101609,0,0,0,0,0,0,21210909,-4011061
23,111,1072.14036257938,0,0,426583.225437916,426584.272482636,5,1,0,1,19,55730959,135635184,158637894,103915465,-3110131,0,41710709,0,0,0,10910119,0,0,31801419,21800409,0,11711209,10010119,0,30011719,0,30300309,11210809,21510419,0,20101909,22001119,42011919,41801719,0,0,10900009,0,30001309,11511519,0,20900609,30602019,0,0
23,112,818.440873525105,0,0,426586.448942875,426587.495983746,5,1,0,15,9,21100919,64741208,114024866,30501019,0,0,0,0,0,0,0,21100919,0,11910009,0,0,0,0,-1120081,31301109,0,20410009,0,0,0,20301519,0,20711619,41700309,0,31311419,0,0,0,0,0,30501019,0,0,0
23,113,766.215328651015,1,0,426589.331267171,426590.378303037,5,0,1,23,31,259559011,208737982,206976444,187218342,41410509,10300509,31510609,30510619,41211009,41100809,10711709,41701619,11101619,21411109,30800719,41600709,0,11500909,20801009,20810409,31502009,30311109,40101609,0,21801709,40801119,-2051060,31110119,0,40900209,30210619,12001219,0,21301819,40000719,21501009,30111919,40201319,10400219,11700119
23,114,1023.76983163413,1,0,426592.26065813,426593.307703235,5,1,1,13,31,135626584,189039133,240029741,199446802,0,10011719,20701309,0,41900209,0,21310019,11001419,30701909,11611209,20501419,31110109,-1170041,41001109,10010309,20411609,32011319,21212009,40200319,31801919,21801709,20811919,40900219,21110419,30201319,21200409,12001509,10400909,11012009,32010109,40810319,41501709,11500209,0,41901019,10310519
23,115,699.688813998364,1,0,426595.448862803,426596.495899439,5,1,1,18,19,166835784,99454967,145404865,114423556,30400919,0,20710919,41100009,21801819,0,41611009,0,11211109,22010819,0,0,12000619,41710409,0,21602019,0,-2131101,10201609,31100019,0,0,31401609,0,42000009,30701619,0,31901319,11501009,0,40311209,30710019,0,0,0,0
23,116,710.251413460355,1,0,426598.2841316,426599.33117016,5,1,1,28,19,138117775,215947693,104224266,85524427,21901019,0,31402019,0,41401109,11511619,0,0,31902009,40511009,0,20310219,41600619,20102009,0,12000219,40211709,41211909,40610919,0,31501519,20510609,0,0,0,11601219,0,-2200090,0,40611719,0,0,31001009,0,0,11711609
23,117,797.923530160915,0,0,426601.16645089,426602.213553355,5,0,0,9,9,34281029,50213428,114304076,30611009,20900009,0,10211009,0,0,0,0,0,-3170011,0,0,0,0,0,0,0,10111509,40101919,0,0,22001019,0,0,10201019,40900719,0,41201319,0,0,30611009,0,0,0,0,0,0
23,118,497.269786952529,1,0,426604.02525629,426605.072288307,5,1,1,33,3,12001409,32802628,0,3041160,0,0,0,0,12001409,0,0,0,0,0,0,0,20901509,0,0,0,11901119,0,0,0,0,0,0,0,0,0,0,0,0,0,0,0,-3041160,0,0,0
23,119,671.058002160862,0,0,426606.625230267,426607.672268058,5,1,0,7,3,4140011,0,11102009,72022628,0,0,0,0,0,0,-4140011,0,0,0,0,0,0,0,0,0,0,0,0,0,0,0,0,11102009,0,0,0,30910609,0,0,0,0,0,0,0,41112019
23,120,691.420590621419,0,0,426609.436968234,426610.484009874,5,1,0,35,9,157836094,31410409,0,22863908,10700119,11701909,0,0,41001019,31110119,31411419,0,31911509,0,31410409,0,0,0,0,0,0,0,0,0,0,0,0,0,0,0,0,0,0,0,10701809,11002009,0,0,-1160090,0
23,121,1211.31929929834,0,0,426612.225172677,426613.272216627,5,1,0,29,31,167447722,236889331,217758193,180855113,11210919,21700009,31301419,10510119,0,11010809,40001619,30312009,11400819,40310119,40701319,11110409,30110419,10611809,30511709,11210019,31311709,31011819,40310619,0,21710819,31610909,20002009,41611809,41411909,0,21100119,10900019,-3120200,40000619,21511109,21210719,31910109,0,30700819,21501519
23,122,686.156999145169,1,0,426615.578085456,426616.625127482,5,0,1,27,19,126633065,127126765,77074748,172928984,0,11211009,0,0,42000319,11110209,0,30901309,31410219,32011819,0,0,10711309,31401209,0,41902009,11100419,0,41401719,10700609,0,0,20911319,0,0,0,-4061101,10811819,40001319,30001309,40401509,10602009,0,0,0,41111019
23,123,722.576756030321,1,0,426618.448648764,426619.49569002,5,0,1,5,9,37811769,73323857,52821228,31311918,0,22011109,0,0,-4190051,0,0,0,11610609,21211319,10111319,0,42001219,0,0,0,0,0,0,21510409,0,0,0,0,0,31310819,0,0,0,0,10700509,0,0,20611409,0,0
23,124,707.311070349533,1,0,426621.378053197,426622.4250702,5,0,1,6,19,208874344,165716075,56722846,104323427,0,30310919,20701009,40710109,31200109,-4140151,21400219,20001619,40410209,0,0,0,41801909,0,21811019,40000819,20501019,41601309,0,0,0,0,12010919,0,11300209,21601409,11810309,20811209,41911109,0,0,41601109,0,0,0,0
23,125,550.201737962198,0,0,426624.319188974,426625.36622715,5,0,0,8,3,33970649,40001509,0,20311819,0,0,0,0,0,30810609,0,-3160040,0,0,0,0,0,0,0,0,40001509,0,0,0,0,0,0,0,0,0,0,0,0,0,0,0,0,0,0,20311819
23,126,628.643610165454,1,0,426627.095739449,426628.142678305,5,1,1,30,3,41710709,0,20310509,24921130,0,0,0,0,41710709,0,0,0,0,0,0,0,0,0,0,0,0,0,0,0,0,0,0,0,0,20310509,0,0,0,-3020111,0,0,0,0,21901019,0
23,127,740.479049505666,0,0,426629.789728953,426630.836769054,5,0,0,4,31,190390653,178357393,198272202,256347902,41801919,11111509,40310509,-2050141,31301219,10601319,11801319,30011409,11401309,30700819,21910209,0,41711509,20501619,11510409,0,42012009,10010819,0,12001809,20311609,31112019,41110909,30312009,31711709,20600119,11112019,41210619,41001909,0,40600109,31000209,20611719,20511919,40710209,20701209
23,128,706.549229682423,0,0,426632.648522035,426633.695564445,5,0,0,17,0,0,0,0,0,0,0,0,0,0,0,0,0,0,0,0,0,0,0,0,0,-22000101,0,0,0,0,0,0,0,0,0,0,0,0,0,0,0,0,0,0,0
23,129,761.678546259645,1,0,426635.542606163,426636.589670131,5,0,1,21,3,41701819,0,1010161,51712128,0,0,41701819,0,0,0,0,0,0,0,0,0,0,0,0,0,0,0,0,0,-1010161,0,0,0,0,0,0,0,0,0,10411509,0,41300619,0,0,0
23,130,584.657801373396,0,0,426638.377880348,426639.424922759,5,1,0,17,9,32001309,12531580,114025265,21512818,0,0,0,0,0,0,0,0,32001309,11401419,0,0,0,0,0,0,-1130161,0,11411809,30700719,40300019,10801609,0,0,20811109,0,0,0,0,10201209,0,11311609,0,0,0,0
23,131,1006.18089758791,0,0,426660.424739132,426661.471787702,6,0,0,8,3,35572189,22001509,31611219,0,0,0,0,0,0,0,31511109,-4061080,0,0,0,22001509,0,0,0,0,0,0,0,0,0,0,0,0,31611219,0,0,0,0,0,0,0,0,0,0,0
23,132,927.227795298677,0,0,426663.671772996,426664.718817332,6,1,0,29,31,167447722,236889331,217758193,180855113,11210919,21700009,31301419,10510119,0,11010809,40001619,30312009,11400819,40310119,40701319,11110409,30110419,10611809,30511709,11210019,31311709,31011819,40310619,0,21710819,31610909,20002009,41611809,41411909,0,21100119,10900019,-3120200,40000619,21511109,21210719,31910109,0,30700819,21501519
23,133,673.794700240251,1,0,426666.765900548,426667.812901768,6,1,1,30,3,41710709,0,20310509,24921130,0,0,0,0,41710709,0,0,0,0,0,0,0,0,0,0,0,0,0,0,0,0,0,0,0,0,20310509,0,0,0,-3020111,0,0,0,0,21901019,0
23,134,472.807733458467,1,0,426669.648200976,426670.695271874,6,1,1,10,0,0,0,0,0,0,0,0,0,0,0,0,0,0,-31411591,0,0,0,0,0,0,0,0,0,0,0,0,0,0,0,0,0,0,0,0,0,0,0,0,0,0
23,135,796.029899909627,0,0,426672.306996444,426673.35403385,6,0,0,5,31,120087295,217259012,149439602,218681021,21801819,0,31401819,10810819,-4150191,20401909,20610319,0,10910419,41712019,11000009,40800909,0,20210819,41211609,11511419,20111319,30700909,21801919,20101409,20000009,0,21911109,11911209,31100819,11311909,11301219,21312019,30011619,11511319,21411609,10700309,41410309,40800809,20811509,20711519
23,136,693.249162228312,0,0,426675.212845409,426676.25988705,6,0,0,3,19,130726174,94703536,162745355,103734446,10910309,20800119,-4001190,31611109,0,10401419,41500409,0,11501619,0,0,0,31200009,0,11001909,0,41600609,10901009,30210009,0,0,0,30811109,0,41601309,20012009,40110919,0,0,40511309,31711009,21110809,0,0,0,10401319
23,137,473.139571084175,1,0,426678.118710543,426679.165753723,6,0,1,9,31,120575445,198858602,220470021,216258502,0,21000019,20110609,11710619,11800819,11901509,42010719,0,-2041151,21311509,0,30010109,10800419,21900619,11601809,32012009,40411709,30810419,31400909,21411419,20712019,41010919,10610009,41110909,11511909,21600219,21101709,40100419,11911419,20211009,11211709,31211709,40311219,30500809,30800209,0
23,138,739.281046378892,0,0,426680.824559585,426681.87160931,6,0,0,21,31,145550702,209449001,168687064,128626903,31101119,12012009,10011209,40401219,0,20901419,10412009,10301409,10410309,10801809,41011119,21400409,21110609,10301309,42000519,20701209,31410409,10711609,20211719,31101419,-1060061,21301409,30600809,20500309,11900419,32010919,0,0,41710709,20301419,10900819,11600619,21301819,11900209,10911309,0
23,139,462.895720498636,1,0,426683.695188722,426684.742173003,6,0,1,23,0,0,0,0,0,0,0,0,0,0,0,0,0,0,0,0,0,0,0,0,0,0,0,0,0,0,0,-22009991,0,0,0,0,0,0,0,0,0,0,0,0,0
23,140,496.243862027768,1,0,426686.365676654,426687.412743702,6,1,1,16,31,196959402,178717005,238531211,180247702,21310919,11510919,40211809,31511009,40201909,0,10600609,30411719,11200509,30000819,21700619,30101619,11800519,40310909,0,-4001011,0,40801509,31701709,30710819,30510809,11300209,11501819,40201219,40201809,21901809,20501009,22001319,11400809,30811709,11710409,21910019,10311209,31200209,0,40902019
23,141,649.953206127975,0,0,426689.106836761,426690.153879557,6,1,0,13,31,135626584,189039133,240029741,199446802,0,10011719,20701309,0,41900209,0,21310019,11001419,30701909,11611209,20501419,31110109,-1170041,41001109,10010309,20411609,32011319,21212009,40200319,31801919,21801709,20811919,40900219,21110419,30201319,21200409,12001509,10400909,11012009,32010109,40810319,41501709,11500209,0,41901019,10310519
23,142,507.236849633045,1,0,426691.824471044,426692.871511145,6,0,1,23,9,83533647,74414546,3201190,51320418,0,0,31311719,31210219,0,0,21011709,0,0,0,10301009,0,0,12011809,21200709,0,0,30901019,0,0,0,0,-3201190,0,0,0,0,31110109,0,0,0,20210309,0,0,0,0
23,143,502.960301819257,1,0,426694.436194844,426695.495083704,6,1,1,15,9,21100919,64741208,114024866,30501019,0,0,0,0,0,0,0,21100919,0,11910009,0,0,0,0,-1120081,31301109,0,20410009,0,0,0,20301519,0,20711619,41700309,0,31311419,0,0,0,0,0,30501019,0,0,0
23,144,626.004307647236,0,0,426697.106774013,426698.153814498,6,0,0,4,9,117124696,82303157,11700319,41601009,30401419,0,22000219,-4101130,40110119,0,0,0,20511809,0,0,0,20000319,0,0,30602019,31700819,0,0,0,0,0,11700319,0,0,0,0,0,41601009,0,0,0,0,0,0,0
23,145,557.479837851133,0,0,426699.871517689,426700.918501585,6,1,0,17,9,32001309,12531580,114025265,21512818,0,0,0,0,0,0,0,0,32001309,11401419,0,0,0,0,0,0,-1130161,0,11411809,30700719,40300019,10801609,0,0,20811109,0,0,0,0,10201209,0,11311609,0,0,0,0
23,146,638.281529885717,0,0,426702.518485956,426703.565534911,6,1,0,18,19,166835784,99454967,145404865,114423556,30400919,0,20710919,41100009,21801819,0,41611009,0,11211109,22010819,0,0,12000619,41710409,0,21602019,0,-2131101,10201609,31100019,0,0,31401609,0,42000009,30701619,0,31901319,11501009,0,40311209,30710019,0,0,0,0
23,147,584.245891601313,1,0,426705.259645293,426706.306687704,6,1,1,7,3,4140011,0,11102009,72022628,0,0,0,0,0,0,-4140011,0,0,0,0,0,0,0,0,0,0,0,0,0,0,0,0,11102009,0,0,0,30910609,0,0,0,0,0,0,0,41112019
23,148,575.899520888925,1,0,426708.000792697,426709.047902861,6,1,1,35,9,157836094,31410409,0,22863908,10700119,11701909,0,0,41001019,31110119,31411419,0,31911509,0,31410409,0,0,0,0,0,0,0,0,0,0,0,0,0,0,0,0,0,0,0,10701809,11002009,0,0,-1160090,0
23,149,485.270122648217,1,0,426710.812533744,426711.859578849,6,0,1,22,19,135333585,93733747,94723027,207716452,30110919,11411619,0,41010519,0,0,0,22000109,30800419,0,31011919,41911319,0,0,0,0,20810509,0,20400109,0,0,-3200200,0,40711309,0,30411409,0,41101819,32011219,0,21000819,31401019,10100119,31800019,30100719,10200719
23,150,678.340336715337,0,0,426713.377267488,426714.424262933,6,1,0,1,19,55730959,135635184,158637894,103915465,-3110131,0,41710709,0,0,0,10910119,0,0,31801419,21800409,0,11711209,10010119,0,30011719,0,30300309,11210809,21510419,0,20101909,22001119,42011919,41801719,0,0,10900009,0,30001309,11511519,0,20900609,30602019,0,0
23,151,606.09289520653,1,0,426716.153664748,426717.200712163,6,0,1,6,3,3110150,30201819,51103838,0,0,0,0,0,0,-3110150,0,0,0,30201819,0,0,0,0,0,0,0,0,0,0,40902019,0,10201819,0,0,0,0,0,0,0,0,0,0,0,0,0
23,152,535.068094322924,1,0,426719.000702231,426720.047741947,6,1,1,28,19,138117775,215947693,104224266,85524427,21901019,0,31402019,0,41401109,11511619,0,0,31902009,40511009,0,20310219,41600619,20102009,0,12000219,40211709,41211909,40610919,0,31501519,20510609,0,0,0,11601219,0,-2200090,0,40611719,0,0,31001009,0,0,11711609
23,153,658.535173919518,0,0,426721.624208962,426722.671259071,6,1,0,33,3,12001409,32802628,0,3041160,0,0,0,0,12001409,0,0,0,0,0,0,0,20901509,0,0,0,11901119,0,0,0,0,0,0,0,0,0,0,0,0,0,0,0,-3041160,0,0,0
23,154,502.329348353669,0,0,426724.412422643,426725.459464669,6,0,0,32,19,114545765,124626475,156834374,65653348,0,30811809,0,0,0,40811119,10910009,20001219,12011609,30001319,11200209,30911419,31411819,0,0,0,0,21101709,11510909,0,30301009,31000519,0,41111419,21000209,21910309,0,0,0,10810219,11910609,-2031201,0,0,40901319,0
23,155,474.613977246918,0,0,426727.082977559,426728.130027669,6,0,0,27,3,0,40201719,2151190,32222638,0,0,0,0,0,0,0,0,0,0,40201719,0,0,0,0,0,0,0,0,0,0,0,0,0,0,0,-2151190,11611819,0,0,20610819,0,0,0,0,0
23,156,509.914263384417,1,0,426729.74179343,426730.78883738,6,0,1,36,9,0,61603037,103932546,66373529,0,0,0,0,0,0,0,0,0,0,0,0,0,0,20900709,10601209,30101119,0,21510909,0,21010119,0,0,0,0,21411009,40000509,0,0,0,0,0,0,21101919,41100519,-4171091
23,157,545.279993093573,0,0,426747.412217843,426748.459267568,7,0,0,19,0,0,0,0,0,0,0,0,0,0,0,0,0,0,0,0,0,0,0,0,0,0,0,-12001391,0,0,0,0,0,0,0,0,0,0,0,0,0,0,0,0,0
23,158,611.253316747025,1,0,426750.153376411,426751.200422671,7,0,1,4,9,2011140,63522528,51801828,123936065,0,0,0,-2011140,0,0,0,0,0,32011619,0,0,0,0,0,31510909,0,0,0,21100309,0,0,0,0,30701519,0,0,20411409,40111309,0,11010619,0,0,21801109,0,30601619
23,159,681.910863379017,0,0,426752.988654446,426754.035698397,7,1,0,28,19,138117775,215947693,104224266,85524427,21901019,0,31402019,0,41401109,11511619,0,0,31902009,40511009,0,20310219,41600619,20102009,0,12000219,40211709,41211909,40610919,0,31501519,20510609,0,0,0,11601219,0,-2200090,0,40611719,0,0,31001009,0,0,11711609
23,160,603.418561106082,1,0,426755.765093282,426756.812138002,7,0,1,32,19,92132956,65158465,104204836,158486434,0,0,40810119,0,0,0,10911619,20410309,20000909,10011709,11812009,0,11411719,0,11611909,0,20311119,0,0,21201909,41600709,10701609,0,0,0,0,30700609,40611009,0,31211209,0,-3040060,30101219,31210109,11912019,10400809
23,161,684.46778395446,0,0,426758.517998593,426759.565071416,7,1,0,1,19,55730959,135635184,158637894,103915465,-3110131,0,41710709,0,0,0,10910119,0,0,31801419,21800409,0,11711209,10010119,0,30011719,0,30300309,11210809,21510419,0,20101909,22001119,42011919,41801719,0,0,10900009,0,30001309,11511519,0,20900609,30602019,0,0
23,162,412.216569762677,1,0,426761.400339827,426762.447379928,7,0,1,23,3,40410709,11510919,21170670,0,0,40410709,0,0,0,0,0,0,0,0,0,11510919,0,0,0,0,0,0,0,0,0,0,-1170151,0,20000519,0,0,0,0,0,0,0,0,0,0,0
23,163,445.126624079421,1,0,426764.047373923,426765.094421338,7,0,1,21,9,81822218,76013866,42993020,31921828,0,0,41711609,0,0,0,40110609,0,0,0,0,21211809,0,0,11600519,0,21701219,21500319,0,0,-2181111,40811909,0,0,0,0,0,0,0,0,10710009,0,0,0,0,21211819
23,164,559.9886381533,1,0,426766.694410713,426767.741451968,7,1,1,7,3,4140011,0,11102009,72022628,0,0,0,0,0,0,-4140011,0,0,0,0,0,0,0,0,0,0,0,0,0,0,0,0,11102009,0,0,0,30910609,0,0,0,0,0,0,0,41112019
23,165,600.099029950798,1,0,426769.341452507,426770.388492608,7,1,1,17,9,32001309,12531580,114025265,21512818,0,0,0,0,0,0,0,0,32001309,11401419,0,0,0,0,0,0,-1130161,0,11411809,30700719,40300019,10801609,0,0,20811109,0,0,0,0,10201209,0,11311609,0,0,0,0
23,166,668.824450112879,0,0,426772.082654191,426773.129646171,7,0,0,27,3,0,30712019,4170050,72403418,0,0,0,0,0,0,0,0,0,0,0,0,0,30712019,0,0,0,0,0,0,0,0,0,0,0,0,-4170050,40801609,0,0,0,31601809,0,0,0,0
23,167,624.486400745809,1,0,426774.811994026,426775.859031817,7,0,1,9,31,247859284,238753831,155735874,227720931,40912019,0,30301019,40001709,20811419,40500719,31212009,42000319,-2120071,11712009,21802009,40101419,21210319,41711009,20201819,20901509,40812019,20301719,0,41411019,30910219,41201709,0,20900109,10100909,11211909,0,30801609,20900209,11402009,30400919,31701119,10311719,40801819,40601219,10800309
23,168,588.847347651608,1,0,426777.588490606,426778.635484896,7,1,1,33,3,12001409,32802628,0,3041160,0,0,0,0,12001409,0,0,0,0,0,0,0,20901509,0,0,0,11901119,0,0,0,0,0,0,0,0,0,0,0,0,0,0,0,-3041160,0,0,0
23,169,640.468501485884,0,0,426780.270771863,426781.317812734,7,0,0,36,31,255060551,238647592,206850393,191975533,40201219,31310319,30601319,20001319,40411709,21412009,20200719,30711919,20210019,21610309,0,32010509,11001209,40900309,40811009,41500919,40401919,10411409,40401619,0,41301019,0,11511809,20111809,11301909,40211309,42010919,0,30710419,20500619,41610709,31210209,21801309,11110509,31001719,-4030040
23,170,582.298751513008,0,0,426783.106042969,426784.153072676,7,0,0,8,19,124686296,83625456,155815065,127236164,0,20711019,0,31211809,40501509,0,31210809,-1051150,0,40400209,10501719,11411619,0,0,21311909,0,0,0,0,41301109,21510709,41401709,10701419,0,0,0,40900119,0,10110819,11701109,41500309,21310609,31611909,11001409,0,0
23,171,661.074001225643,0,0,426785.800138723,426786.847179209,7,1,0,29,31,167447722,236889331,217758193,180855113,11210919,21700009,31301419,10510119,0,11010809,40001619,30312009,11400819,40310119,40701319,11110409,30110419,10611809,30511709,11210019,31311709,31011819,40310619,0,21710819,31610909,20002009,41611809,41411909,0,21100119,10900019,-3120200,40000619,21511109,21210719,31910109,0,30700819,21501519
23,172,479.154994245619,0,0,426788.647170046,426789.694209762,7,0,0,22,3,0,0,56052848,10500419,0,0,0,0,0,0,0,0,0,0,0,0,0,0,0,0,0,0,0,0,0,-3041110,21610419,0,0,31401319,0,0,0,0,0,10500419,0,0,0,0
23,173,760.559845424723,1,0,426791.364785081,426792.411837116,7,1,1,18,19,166835784,99454967,145404865,114423556,30400919,0,20710919,41100009,21801819,0,41611009,0,11211109,22010819,0,0,12000619,41710409,0,21602019,0,-2131101,10201609,31100019,0,0,31401609,0,42000009,30701619,0,31901319,11501009,0,40311209,30710019,0,0,0,0
23,174,425.923157541547,1,0,426794.294175655,426795.341223455,7,1,1,30,3,41710709,0,20310509,24921130,0,0,0,0,41710709,0,0,0,0,0,0,0,0,0,0,0,0,0,0,0,0,0,0,0,0,20310509,0,0,0,-3020111,0,0,0,0,21901019,0
23,175,704.744140792172,0,0,426796.835391659,426797.882379404,7,1,0,16,31,196959402,178717005,238531211,180247702,21310919,11510919,40211809,31511009,40201909,0,10600609,30411719,11200509,30000819,21700619,30101619,11800519,40310909,0,-4001011,0,40801509,31701709,30710819,30510809,11300209,11501819,40201219,40201809,21901809,20501009,22001319,11400809,30811709,11710409,21910019,10311209,31200209,0,40902019
23,176,636.635430448223,0,0,426799.623545671,426800.670590777,7,0,0,5,31,228145024,268667231,176130503,220457392,31510409,10500009,41710309,20510309,-1091061,40901009,0,40010509,41911409,41610119,20510619,41001009,11510619,30311319,40700019,20211709,21510909,41300909,20201109,41900919,20201719,10001509,0,31511709,21611619,0,30701919,20911209,11910309,20301109,40910409,21501109,41410019,31702019,0,31811209
23,177,768.096640065778,0,0,426802.399994901,426803.447037311,7,0,0,6,9,108892977,111414137,10100919,41802018,0,0,0,31911109,0,-4180130,31301519,41500219,0,30801309,40411419,0,0,0,40201409,0,0,0,0,0,0,0,0,10100919,0,0,0,10100509,0,0,0,0,31701509,0,0,0
23,178,669.348383962642,1,0,426805.411780911,426806.458780206,7,1,1,13,31,135626584,189039133,240029741,199446802,0,10011719,20701309,0,41900209,0,21310019,11001419,30701909,11611209,20501419,31110109,-1170041,41001109,10010309,20411609,32011319,21212009,40200319,31801919,21801709,20811919,40900219,21110419,30201319,21200409,12001509,10400909,11012009,32010109,40810319,41501709,11500209,0,41901019,10310519
23,179,689.775646082126,0,0,426808.235304888,426809.282306878,7,1,0,35,9,157836094,31410409,0,22863908,10700119,11701909,0,0,41001019,31110119,31411419,0,31911509,0,31410409,0,0,0,0,0,0,0,0,0,0,0,0,0,0,0,0,0,0,0,10701809,11002009,0,0,-1160090,0
23,180,644.970637280494,0,0,426811.035238752,426812.08229964,7,0,0,3,19,68742167,75035385,177446675,185316294,12011209,11910809,-4020140,40800009,0,0,0,0,0,0,0,10011009,12012019,10010519,31700319,0,11301519,0,21711419,0,40711209,41701219,0,0,0,31311819,42011009,10401219,0,40810519,31400319,20101109,0,41502009,0,41101119
23,181,552.861828415189,1,0,426813.882285859,426814.929297087,7,1,1,15,9,21100919,64741208,114024866,30501019,0,0,0,0,0,0,0,21100919,0,11910009,0,0,0,0,-1120081,31301109,0,20410009,0,0,0,20301519,0,20711619,41700309,0,31311419,0,0,0,0,0,30501019,0,0,0
23,182,566.530304960907,1,0,426816.623407855,426817.670457195,7,1,1,10,0,0,0,0,0,0,0,0,0,0,0,0,0,0,-31411591,0,0,0,0,0,0,0,0,0,0,0,0,0,0,0,0,0,0,0,0,0,0,0,0,0,0
23,183,954.710264108144,0,0,426831.470335623,426832.517383423,8,1,0,33,3,12001409,32802628,0,3041160,0,0,0,0,12001409,0,0,0,0,0,0,0,20901509,0,0,0,11901119,0,0,0,0,0,0,0,0,0,0,0,0,0,0,0,-3041160,0,0,0
23,184,848.014073388185,0,0,426834.635024096,426835.682066122,8,0,0,3,3,1010170,0,63111438,20400709,0,0,-1010170,0,0,0,0,0,0,0,0,0,0,0,0,0,0,0,31411219,0,0,31700219,0,0,0,0,0,0,0,0,0,20400709,0,0,0,0
23,185,802.448763686698,0,0,426837.611462085,426838.658504881,8,0,0,5,31,221440573,256927341,227557712,155255894,20310719,30810719,40411709,30712019,-4191151,11701909,40600409,21901519,20800419,10010719,31400519,20501719,20301019,30210109,30400309,40600809,41701719,31800419,20910609,41701509,41210019,11300119,30701719,30011009,30911109,20811619,0,20311819,32010409,41010319,0,11610219,20201519,0,30111609,0
23,186,584.248201397713,0,0,426840.599684544,426841.646725415,8,0,0,9,9,22280640,54723957,51622328,72923447,0,0,0,0,0,20210509,0,0,-2070131,11501519,0,0,0,0,0,0,11710719,31511719,0,0,0,0,0,0,0,30811119,20811209,0,0,0,0,0,21910909,10201219,0,40811319
23,187,493.113347445615,1,0,426843.246730573,426844.29375874,8,0,1,21,19,165534794,155538494,67324638,126535246,0,0,10410209,30301519,21610309,31601319,0,31010819,40600619,0,40601709,41311719,0,10311319,0,11411619,11701419,40200709,0,0,-3200191,31110719,11101809,0,0,0,21911919,0,0,0,0,0,41601609,11412009,31911609,41610019
23,188,624.43327595247,1,0,426845.952575766,426846.999625106,8,0,1,6,9,46043069,40000909,43214256,30411028,0,0,11301419,0,30601509,-4140141,0,0,0,0,0,40000909,0,0,0,0,0,0,0,11000119,10201609,0,10411219,11601309,0,0,0,0,0,0,0,0,10000219,0,0,20410809
23,189,725.742302194703,1,0,426848.670198885,426849.717248225,8,0,1,36,3,0,0,11910719,75292079,0,0,0,0,0,0,0,0,0,0,0,0,0,0,0,0,0,0,0,0,0,0,0,0,0,11910719,0,0,0,0,30611519,40500509,0,0,0,-4180051
23,190,576.291412638966,0,0,426851.505486159,426852.55252472,8,1,0,17,9,32001309,12531580,114025265,21512818,0,0,0,0,0,0,0,0,32001309,11401419,0,0,0,0,0,0,-1130161,0,11411809,30700719,40300019,10801609,0,0,20811109,0,0,0,0,10201209,0,11311609,0,0,0,0
23,191,509.41920169862,1,0,426854.211336356,426855.258375687,8,1,1,29,31,167447722,236889331,217758193,180855113,11210919,21700009,31301419,10510119,0,11010809,40001619,30312009,11400819,40310119,40701319,11110409,30110419,10611809,30511709,11210019,31311709,31011819,40310619,0,21710819,31610909,20002009,41611809,41411909,0,21100119,10900019,-3120200,40000619,21511109,21210719,31910109,0,30700819,21501519
23,192,556.116685911547,1,0,426856.787779504,426857.834828458,8,1,1,10,0,0,0,0,0,0,0,0,0,0,0,0,0,0,-31411591,0,0,0,0,0,0,0,0,0,0,0,0,0,0,0,0,0,0,0,0,0,0,0,0,0,0
23,193,685.892529960256,0,0,426859.458332494,426860.528950775,8,0,0,23,19,104545765,133935555,104023437,125845174,10911709,31310109,10001709,0,0,0,21010419,0,31311819,21002009,11211109,0,0,40400809,0,0,21010709,40310919,41510919,0,0,30310519,-1191190,0,0,0,31010809,10600619,0,11310509,0,31911809,30310709,30500019,11211509,0
23,194,453.958047495689,1,0,426862.234795968,426863.281834144,8,0,1,27,31,260368011,166824783,179247345,261749541,10200219,41401509,11610019,41411609,41911119,40110709,41901309,10511509,21310009,41401209,30701009,0,31910909,11010109,10300019,0,21100009,20401519,0,21711219,31100819,30801419,31601919,21900119,41011719,0,-1120131,40511919,41701219,21602009,30000019,21410109,31511119,11510319,31701219,31801609
23,195,624.555693939328,0,0,426864.764182846,426865.811227566,8,1,0,16,31,196959402,178717005,238531211,180247702,21310919,11510919,40211809,31511009,40201909,0,10600609,30411719,11200509,30000819,21700619,30101619,11800519,40310909,0,-4001011,0,40801509,31701709,30710819,30510809,11300209,11501819,40201219,40201809,21901809,20501009,22001319,11400809,30811709,11710409,21910019,10311209,31200209,0,40902019
23,196,725.496311206371,1,0,426867.564165214,426868.611210705,8,1,1,1,19,55730959,135635184,158637894,103915465,-3110131,0,41710709,0,0,0,10910119,0,0,31801419,21800409,0,11711209,10010119,0,30011719,0,30300309,11210809,21510419,0,20101909,22001119,42011919,41801719,0,0,10900009,0,30001309,11511519,0,20900609,30602019,0,0
23,197,771.662547194865,0,0,426870.458243568,426871.505309076,8,1,0,28,19,138117775,215947693,104224266,85524427,21901019,0,31402019,0,41401109,11511619,0,0,31902009,40511009,0,20310219,41600619,20102009,0,12000219,40211709,41211909,40610919,0,31501519,20510609,0,0,0,11601219,0,-2200090,0,40611719,0,0,31001009,0,0,11711609
23,198,439.497318293434,1,0,426873.305299144,426874.352339245,8,0,1,22,9,11300719,106326655,25512139,42423628,0,0,0,11300719,0,0,0,0,0,30502019,21111109,0,21911909,0,0,21501509,0,11300109,0,0,0,-4011130,21501009,0,0,0,0,0,0,21511909,0,20911719,0,0,0,0
23,199,759.496964106802,0,0,426875.905305843,426876.95233247,8,1,0,15,9,21100919,64741208,114024866,30501019,0,0,0,0,0,0,0,21100919,0,11910009,0,0,0,0,-1120081,31301109,0,20410009,0,0,0,20301519,0,20711619,41700309,0,31311419,0,0,0,0,0,30501019,0,0,0
23,200,625.056915043388,0,0,426878.740544997,426879.787583943,8,1,0,35,9,157836094,31410409,0,22863908,10700119,11701909,0,0,41001019,31110119,31411419,0,31911509,0,31410409,0,0,0,0,0,0,0,0,0,0,0,0,0,0,0,0,0,0,0,10701809,11002009,0,0,-1160090,0
23,201,642.317861085758,1,0,426881.44638942,426882.493453388,8,0,1,33,0,0,0,0,0,0,0,0,0,0,0,0,0,0,0,0,0,0,0,0,0,0,0,0,0,0,0,0,0,0,0,0,0,0,0,0,0,-40711391,0,0,0
23,202,565.810425148811,1,0,426884.328740278,426885.375838893,8,0,1,8,19,117837165,156537313,61714047,114935056,0,22011219,11311009,41001519,0,21201309,21300919,-1011190,0,21900019,10500419,30411419,11911309,20200519,0,0,20711819,40901809,30100219,0,0,0,0,0,21601809,10012019,0,0,40411519,0,31911509,0,0,0,11010419,31601609
23,203,456.30208379589,1,0,426887.093402727,426888.140458611,8,1,1,7,3,4140011,0,11102009,72022628,0,0,0,0,0,0,-4140011,0,0,0,0,0,0,0,0,0,0,0,0,0,0,0,0,11102009,0,0,0,30910609,0,0,0,0,0,0,0,41112019
23,204,750.987369334325,0,0,426889.634567146,426890.681628805,8,1,0,30,3,41710709,0,20310509,24921130,0,0,0,0,41710709,0,0,0,0,0,0,0,0,0,0,0,0,0,0,0,0,0,0,0,0,20310509,0,0,0,-3020111,0,0,0,0,21901019,0
23,205,589.359732635785,1,0,426892.493376396,426893.540412262,8,0,1,32,3,11201609,0,21700109,44300290,0,0,0,0,0,0,0,0,11201609,0,0,0,0,0,0,0,0,0,0,21700109,0,0,0,0,0,0,0,0,0,0,0,-3190081,0,41110209,0,0
23,206,574.616441037506,0,0,426895.211000669,426896.258044235,8,1,0,18,19,166835784,99454967,145404865,114423556,30400919,0,20710919,41100009,21801819,0,41611009,0,11211109,22010819,0,0,12000619,41710409,0,21602019,0,-2131101,10201609,31100019,0,0,31401609,0,42000009,30701619,0,31901319,11501009,0,40311209,30710019,0,0,0,0
23,207,537.23851259565,1,0,426897.893329276,426898.940375921,8,1,1,13,31,135626584,189039133,240029741,199446802,0,10011719,20701309,0,41900209,0,21310019,11001419,30701909,11611209,20501419,31110109,-1170041,41001109,10010309,20411609,32011319,21212009,40200319,31801919,21801709,20811919,40900219,21110419,30201319,21200409,12001509,10400909,11012009,32010109,40810319,41501709,11500209,0,41901019,10310519
23,208,631.539682624862,0,0,426900.505065395,426901.552117815,8,0,0,4,31,206059553,217048312,219258502,188928512,40800409,10100909,0,-1041170,20801819,30101519,41401809,40611309,21200609,20800119,0,30511409,40711119,20401309,12011309,21211819,30900719,40500509,11710309,0,41110919,41010119,22011609,11710909,40601209,20501409,30602019,31101919,21211809,10900219,41001009,0,31900019,20310309,11101509,21401719
23,209,705.523689743131,1,0,426916.610823817,426917.657881626,9,1,1,16,31,196959402,178717005,238531211,180247702,21310919,11510919,40211809,31511009,40201909,0,10600609,30411719,11200509,30000819,21700619,30101619,11800519,40310909,0,-4001011,0,40801509,31701709,30710819,30510809,11300209,11501819,40201219,40201809,21901809,20501009,22001319,11400809,30811709,11710409,21910019,10311209,31200209,0,40902019
23,210,690.43701159535,0,0,426919.446093768,426920.493183144,9,1,0,7,3,4140011,0,11102009,72022628,0,0,0,0,0,0,-4140011,0,0,0,0,0,0,0,0,0,0,0,0,0,0,0,0,11102009,0,0,0,30910609,0,0,0,0,0,0,0,41112019
23,211,401.162373193074,1,0,426922.328418064,426923.375473563,9,1,1,17,9,32001309,12531580,114025265,21512818,0,0,0,0,0,0,0,0,32001309,11401419,0,0,0,0,0,0,-1130161,0,11411809,30700719,40300019,10801609,0,0,20811109,0,0,0,0,10201209,0,11311609,0,0,0,0
23,212,466.935131466016,0,0,426924.869609815,426925.916629898,9,0,0,9,19,75916197,73323147,174836803,105825865,21611009,0,11601309,0,21100909,0,0,20411819,-1191151,40801019,0,11911409,20610719,0,0,0,0,0,41211619,10110319,0,20010719,30200619,0,21201509,32000809,20101209,0,40801909,0,0,12010009,10801609,0,10201919,32010419
23,213,391.379707609303,1,0,426927.398972441,426928.446020241,9,1,1,15,9,21100919,64741208,114024866,30501019,0,0,0,0,0,0,0,21100919,0,11910009,0,0,0,0,-1120081,31301109,0,20410009,0,0,0,20301519,0,20711619,41700309,0,31311419,0,0,0,0,0,30501019,0,0,0
23,214,461.279263196047,0,0,426929.893069812,426930.940116457,9,0,0,27,3,81702538,0,44512889,0,0,0,40700619,0,0,0,0,0,41001919,0,0,0,0,0,0,0,0,0,0,0,0,0,0,0,40511809,0,-4001080,0,0,0,0,0,0,0,0,0
23,215,514.641987159848,1,0,426932.551921099,426933.598923088,9,1,1,18,19,166835784,99454967,145404865,114423556,30400919,0,20710919,41100009,21801819,0,41611009,0,11211109,22010819,0,0,12000619,41710409,0,21602019,0,-2131101,10201609,31100019,0,0,31401609,0,42000009,30701619,0,31901319,11501009,0,40311209,30710019,0,0,0,0
23,216,636.74398988951,0,0,426935.269577709,426936.316540433,9,1,0,13,31,135626584,189039133,240029741,199446802,0,10011719,20701309,0,41900209,0,21310019,11001419,30701909,11611209,20501419,31110109,-1170041,41001109,10010309,20411609,32011319,21212009,40200319,31801919,21801709,20811919,40900219,21110419,30201319,21200409,12001509,10400909,11012009,32010109,40810319,41501709,11500209,0,41901019,10310519
23,217,642.45105808368,1,0,426938.104768358,426939.151820008,9,0,1,6,31,210079633,186936832,217558122,136858213,41510619,40100119,21400819,10910809,12001019,-1141201,31611719,41401419,10001909,10010319,21100519,11600909,40000219,0,30112009,41701919,11700619,20710319,0,30811019,10910619,41911209,40110919,11500419,20201609,31700609,30411719,0,40411309,12010719,21511409,11010219,10511819,20701919,0,20700819
23,218,632.366966863628,1,0,426940.845925771,426941.892973571,9,1,1,35,9,157836094,31410409,0,22863908,10700119,11701909,0,0,41001019,31110119,31411419,0,31911509,0,31410409,0,0,0,0,0,0,0,0,0,0,0,0,0,0,0,0,0,0,0,10701809,11002009,0,0,-1160090,0
23,219,769.845524511766,0,0,426943.610613243,426944.65763987,9,0,0,32,9,41700119,61621528,40011519,106494756,41700119,0,0,0,0,0,0,0,0,20410509,0,41211019,0,0,0,0,0,0,0,0,0,0,0,0,0,0,40011519,0,10601019,31100509,0,-2081201,31810409,10000109,20901509,0
23,220,642.921867140103,0,0,426946.575287164,426947.622323416,9,1,0,29,31,167447722,236889331,217758193,180855113,11210919,21700009,31301419,10510119,0,11010809,40001619,30312009,11400819,40310119,40701319,11110409,30110419,10611809,30511709,11210019,31311709,31011819,40310619,0,21710819,31610909,20002009,41611809,41411909,0,21100119,10900019,-3120200,40000619,21511109,21210719,31910109,0,30700819,21501519
23,221,758.647351991385,0,0,426949.457614539,426950.50466234,9,1,0,30,3,41710709,0,20310509,24921130,0,0,0,0,41710709,0,0,0,0,0,0,0,0,0,0,0,0,0,0,0,0,0,0,0,0,20310509,0,0,0,-3020111,0,0,0,0,21901019,0
23,222,677.807548723649,1,0,426952.363479288,426953.410567124,9,1,1,28,19,138117775,215947693,104224266,85524427,21901019,0,31402019,0,41401109,11511619,0,0,31902009,40511009,0,20310219,41600619,20102009,0,12000219,40211709,41211909,40610919,0,31501519,20510609,0,0,0,11601219,0,-2200090,0,40611719,0,0,31001009,0,0,11711609
23,223,513.54676898336,1,0,426955.257569191,426956.304616991,9,0,1,5,3,2031011,0,12011009,51811528,0,0,0,0,-2031011,0,0,0,0,0,0,0,0,0,0,0,0,0,0,0,0,12011009,0,0,0,0,0,31801319,0,0,0,20010209,0,0,0,0
23,224,931.684120499995,0,0,426958.01050376,426959.057536546,9,0,0,3,9,83474879,31401519,62112237,51022527,0,0,-1171161,0,41201709,0,0,41102009,0,0,0,0,0,0,0,0,0,31401519,11600609,20310209,0,0,30201419,0,0,0,0,0,0,0,0,20610809,0,20210309,10201409,0
23,225,603.782350604888,0,0,426961.163413537,426962.210459797,9,0,0,28,0,0,0,0,0,0,0,0,0,0,0,0,0,0,0,0,0,0,0,0,0,0,0,0,0,0,0,0,0,0,0,0,-41201491,0,0,0,0,0,0,0,0
23,226,493.372812168673,1,0,426963.892802648,426964.939837744,9,0,1,4,19,104395977,125956894,93323766,156245365,0,0,21111319,-1150111,40712019,0,31411609,10010919,0,20011519,10010509,41411409,11900519,0,0,0,32011219,10611719,20311819,0,0,41000919,12000709,20010319,0,0,0,20210319,0,30911709,0,41810509,0,41511019,0,21801809
23,227,670.613755530212,0,0,426966.610482741,426967.657467022,9,0,0,22,31,229477502,199963521,182860403,117736584,40011119,41811319,11611909,21211109,0,41510119,31510809,21700809,20110309,31210009,31410419,10700119,31100109,31510919,31410509,10500309,11210309,10910819,11910019,31601819,20700509,-2000081,30912019,30501509,11512009,31811519,11910919,0,11410819,10610219,0,20501409,31801619,11902009,31510509,0
23,228,738.36368083721,0,0,426969.386905023,426970.433925106,9,0,0,23,9,30800209,62612328,44202848,61923747,0,0,0,0,30800209,0,0,0,0,21801619,0,0,0,0,0,0,0,40810709,0,0,0,12010809,-1070111,20910119,10211809,0,0,0,0,11511019,0,0,0,30111219,20301509,0
23,229,551.050580106676,1,0,426972.222141867,426973.269186973,9,0,1,36,31,127643523,158245912,198258522,190945312,31710019,21110319,11300319,20310819,0,21600219,0,11210319,10401509,0,11600709,10010019,40610119,11310109,31500309,10901619,31011119,11301909,41811519,31200019,32011819,10301719,20310309,40200909,11911909,10510319,0,41210619,31710009,11901609,10210009,20110309,31300419,32010809,10410419,-2081110
23,230,505.395574262366,0,0,426974.998584937,426976.045637357,9,0,0,21,19,53423447,145336774,169116084,104124966,0,10312019,0,0,11610109,31501319,0,0,0,10011309,11101109,11701319,40701109,41611019,30210909,0,0,0,10810809,41610809,-2171110,0,31310019,41401709,11510609,0,30301019,11610319,0,31302019,0,20101109,0,0,41111519,0
23,231,607.891054765787,1,0,426977.657396574,426978.70443706,9,0,1,8,3,42111928,0,21100609,0,0,0,10400109,0,0,0,30700619,-1011200,0,0,0,0,0,0,0,0,0,0,0,0,21100609,0,0,0,0,0,0,0,0,0,0,0,0,0,0,0
23,232,822.40906637162,0,0,426980.445609871,426981.492640347,9,1,0,1,19,55730959,135635184,158637894,103915465,-3110131,0,41710709,0,0,0,10910119,0,0,31801419,21800409,0,11711209,10010119,0,30011719,0,30300309,11210809,21510419,0,20101909,22001119,42011919,41801719,0,0,10900009,0,30001309,11511519,0,20900609,30602019,0,0
23,233,660.322554525919,1,0,426983.386758737,426984.433808462,9,1,1,10,0,0,0,0,0,0,0,0,0,0,0,0,0,0,-31411591,0,0,0,0,0,0,0,0,0,0,0,0,0,0,0,0,0,0,0,0,0,0,0,0,0,0
23,234,583.393969689496,1,0,426986.245564907,426987.292605008,9,1,1,33,3,12001409,32802628,0,3041160,0,0,0,0,12001409,0,0,0,0,0,0,0,20901509,0,0,0,11901119,0,0,0,0,0,0,0,0,0,0,0,0,0,0,0,-3041160,0,0,0
23,235,613.599662843626,0,0,427005.798347108,427006.845390288,10,1,0,33,3,12001409,32802628,0,3041160,0,0,0,0,12001409,0,0,0,0,0,0,0,20901509,0,0,0,11901119,0,0,0,0,0,0,0,0,0,0,0,0,0,0,0,-3041160,0,0,0
23,236,751.073215913493,0,0,427008.527739683,427009.574782094,10,1,0,7,3,4140011,0,11102009,72022628,0,0,0,0,0,0,-4140011,0,0,0,0,0,0,0,0,0,0,0,0,0,0,0,0,11102009,0,0,0,30910609,0,0,0,0,0,0,0,41112019
23,237,578.919166233391,1,0,427011.457181072,427012.504169203,10,0,1,32,31,190839102,241546991,266640751,109216115,21311419,41101609,21910519,21400509,10900309,0,32001719,20611209,21601809,11911109,22002009,31110619,11200709,40200009,41810209,31000709,21901609,30410009,41701119,40501019,40201419,12001709,30301219,31000419,10611819,20110909,40211119,0,22012019,20701019,21400419,-3081040,31410709,0,0,10610909
23,238,1046.61273310194,1,0,427014.104161272,427015.151212537,10,1,1,1,19,55730959,135635184,158637894,103915465,-3110131,0,41710709,0,0,0,10910119,0,0,31801419,21800409,0,11711209,10010119,0,30011719,0,30300309,11210809,21510419,0,20101909,22001119,42011919,41801719,0,0,10900009,0,30001309,11511519,0,20900609,30602019,0,0
23,239,547.67368955072,1,0,427017.257091838,427018.304164275,10,0,1,5,9,22792059,52222737,52512647,22411628,0,20600919,0,0,-2191140,0,0,0,0,0,0,0,0,0,10310819,20500809,21411109,0,0,0,0,10811219,0,20901109,0,20800319,0,0,0,0,0,0,0,0,10611119,11800509
23,240,438.608055002987,1,0,427019.904131322,427020.951162569,10,1,1,10,0,0,0,0,0,0,0,0,0,0,0,0,0,0,-31411591,0,0,0,0,0,0,0,0,0,0,0,0,0,0,0,0,0,0,0,0,0,0,0,0,0,0
23,241,528.129916230682,0,0,427022.527658071,427023.574678154,10,1,0,16,31,196959402,178717005,238531211,180247702,21310919,11510919,40211809,31511009,40201909,0,10600609,30411719,11200509,30000819,21700619,30101619,11800519,40310909,0,-4001011,0,40801509,31701709,30710819,30510809,11300209,11501819,40201219,40201809,21901809,20501009,22001319,11400809,30811709,11710409,21910019,10311209,31200209,0,40902019
23,242,563.616909144912,1,0,427025.292314361,427026.339363701,10,0,1,3,31,140517254,282369221,195218483,258357822,11610709,41511719,-3080061,41210419,11700809,11002019,0,10401209,10000309,30200919,31210909,31710909,41710819,41911519,12010809,40910109,41601419,11101809,30501409,40900719,10411909,30501519,31100309,20001809,31800809,0,0,41801719,41110619,0,40400309,40511619,22011609,30311909,31510019,10700019
23,243,427.681280998513,1,0,427028.104113922,427029.151098973,10,0,1,8,0,0,0,0,0,0,0,0,0,0,0,0,-10701591,0,0,0,0,0,0,0,0,0,0,0,0,0,0,0,0,0,0,0,0,0,0,0,0,0,0,0,0
23,244,465.767155401409,1,0,427030.598205518,427031.645185565,10,0,1,27,31,174847892,209367902,190418923,188325803,10901119,31901809,0,20110519,20111809,20510109,30601109,10210609,30500809,40710009,0,30701719,21512009,11810309,20511109,42011009,10110219,32001519,41410319,30911919,10600209,31410219,21701119,10711819,30011019,10601109,-3061191,41500919,21610719,21700319,41511009,0,30700109,0,10301009,21001719
23,245,490.389738231897,1,0,427033.280483695,427034.327536885,10,1,1,13,31,135626584,189039133,240029741,199446802,0,10011719,20701309,0,41900209,0,21310019,11001419,30701909,11611209,20501419,31110109,-1170041,41001109,10010309,20411609,32011319,21212009,40200319,31801919,21801709,20811919,40900219,21110419,30201319,21200409,12001509,10400909,11012009,32010109,40810319,41501709,11500209,0,41901019,10310519
23,246,758.349006122444,0,0,427035.986346211,427037.033395166,10,1,0,17,9,32001309,12531580,114025265,21512818,0,0,0,0,0,0,0,0,32001309,11401419,0,0,0,0,0,0,-1130161,0,11411809,30700719,40300019,10801609,0,0,20811109,0,0,0,0,10201209,0,11311609,0,0,0,0
23,247,519.745819212403,1,0,427038.798091878,427039.845138138,10,0,1,8,9,86483818,73000937,61113228,10101819,0,11800809,0,30610409,40911419,0,0,-3161181,0,0,0,0,0,0,41800209,20800409,10400319,0,0,0,0,31011419,0,30101809,0,0,0,0,0,0,0,0,10101819,0,0,0
23,248,656.583414354827,0,0,427041.386308331,427042.433346507,10,1,0,28,19,138117775,215947693,104224266,85524427,21901019,0,31402019,0,41401109,11511619,0,0,31902009,40511009,0,20310219,41600619,20102009,0,12000219,40211709,41211909,40610919,0,31501519,20510609,0,0,0,11601219,0,-2200090,0,40611719,0,0,31001009,0,0,11711609
23,249,468.114656338003,1,0,427044.221634102,427045.268627237,10,0,1,22,3,0,20400409,25301749,40401919,0,0,0,0,0,0,0,0,0,0,0,0,0,0,20400409,0,0,0,21100719,0,0,-4201030,0,0,0,0,0,0,0,0,0,0,0,0,40401919,0
23,250,834.709001414012,0,0,427046.845084628,427047.892128578,10,0,0,36,19,176847293,32520418,187048593,115063258,40810719,10601619,0,41700419,30010509,20810109,22012009,10901909,0,11210209,0,0,0,21310209,0,0,0,0,30210409,10600519,41301519,21511409,11702019,0,0,30811909,40910809,30001809,0,40500609,41510819,0,0,0,0,-3050021
23,251,658.106710703578,1,0,427049.821531471,427050.868596979,10,0,1,6,3,1161161,40212009,40710719,30401209,0,0,0,0,0,-1161161,0,0,0,40212009,0,0,0,0,0,0,0,0,0,0,0,40710719,0,0,0,0,0,0,0,0,0,0,30401209,0,0,0
23,252,635.429728077725,0,0,427052.586247815,427053.633262893,10,1,0,35,9,157836094,31410409,0,22863908,10700119,11701909,0,0,41001019,31110119,31411419,0,31911509,0,31410409,0,0,0,0,0,0,0,0,0,0,0,0,0,0,0,0,0,0,0,10701809,11002009,0,0,-1160090,0
23,253,502.689673216082,0,0,427055.397964224,427056.445002015,10,0,0,9,3,3161201,40010509,82310628,0,0,0,0,0,0,0,0,0,-3161201,0,0,40010509,0,0,0,0,0,0,0,0,0,40510009,0,0,41800619,0,0,0,0,0,0,0,0,0,0,0
23,254,862.424757448025,0,0,427058.033235022,427059.080286287,10,1,0,18,19,166835784,99454967,145404865,114423556,30400919,0,20710919,41100009,21801819,0,41611009,0,11211109,22010819,0,0,12000619,41710409,0,21602019,0,-2131101,10201609,31100019,0,0,31401609,0,42000009,30701619,0,31901319,11501009,0,40311209,30710019,0,0,0,0
23,255,448.462708620355,1,0,427061.080264344,427062.127310989,10,0,1,21,9,51813228,61710518,63562577,41512018,0,0,0,0,0,21101519,30711709,0,0,0,0,30400109,0,0,0,0,0,31310409,0,0,-1040150,20612009,0,31000209,10910209,0,0,30000609,0,0,0,0,0,11511409,0,0
23,256,627.205390483141,0,0,427063.727350024,427064.774356633,10,1,0,29,31,167447722,236889331,217758193,180855113,11210919,21700009,31301419,10510119,0,11010809,40001619,30312009,11400819,40310119,40701319,11110409,30110419,10611809,30511709,11210019,31311709,31011819,40310619,0,21710819,31610909,20002009,41611809,41411909,0,21100119,10900019,-3120200,40000619,21511109,21210719,31910109,0,30700819,21501519
23,257,758.316284278408,1,0,427066.574346701,427067.621379873,10,0,1,4,19,148355937,85105046,186743603,83735266,32011619,41811909,0,-2021081,41610309,30901019,0,0,0,10601319,0,0,0,31301709,0,0,21301709,21900309,20000519,0,11200219,21510409,30910009,30811119,31910609,40400719,0,0,31311019,10412019,0,21811619,20200609,0,0,0
23,258,679.069840582088,0,0,427069.421383029,427070.46842467,10,1,0,30,3,41710709,0,20310509,24921130,0,0,0,0,41710709,0,0,0,0,0,0,0,0,0,0,0,0,0,0,0,0,0,0,0,0,20310509,0,0,0,-3020111,0,0,0,0,21901019,0
23,259,634.73294605501,0,0,427072.244881984,427073.291931709,10,0,0,23,19,134234955,111813947,211558393,102134546,40711309,30311909,0,11310209,0,31200319,0,0,20701209,41411609,0,30200419,0,0,0,40201919,0,0,20400409,41812009,21810709,41201509,-2120030,21811209,20601209,41801309,0,0,10311309,0,0,0,21610009,0,40111809,30101419
23,260,537.745123205241,0,0,427075.044866277,427076.091910998,10,1,0,15,9,21100919,64741208,114024866,30501019,0,0,0,0,0,0,0,21100919,0,11910009,0,0,0,0,-1120081,31301109,0,20410009,0,0,0,20301519,0,20711619,41700309,0,31311419,0,0,0,0,0,30501019,0,0,0
23,261,790.180780575611,1,0,427090.762390076,427091.809437491,11,1,1,16,31,196959402,178717005,238531211,180247702,21310919,11510919,40211809,31511009,40201909,0,10600609,30411719,11200509,30000819,21700619,30101619,11800519,40310909,0,-4001011,0,40801509,31701709,30710819,30510809,11300209,11501819,40201219,40201809,21901809,20501009,22001319,11400809,30811709,11710409,21910019,10311209,31200209,0,40902019
23,262,695.978161005769,0,0,427093.703602846,427094.750595596,11,1,0,1,19,55730959,135635184,158637894,103915465,-3110131,0,41710709,0,0,0,10910119,0,0,31801419,21800409,0,11711209,10010119,0,30011719,0,30300309,11210809,21510419,0,20101909,22001119,42011919,41801719,0,0,10900009,0,30001309,11511519,0,20900609,30602019,0,0
23,263,532.247474591713,1,0,427096.527048291,427097.57410071,11,0,1,22,19,165623195,85333547,149656775,113345185,11610419,0,41600019,0,40300319,0,0,30410419,41702019,0,0,41611419,11910809,0,0,0,0,31811319,20301709,0,11600019,-2111191,41910209,10611409,41511619,21610619,0,30410019,0,0,40610119,11011919,20301819,11011309,0,0
23,264,936.428012675606,0,0,427099.23292736,427100.279977855,11,1,0,28,19,138117775,215947693,104224266,85524427,21901019,0,31402019,0,41401109,11511619,0,0,31902009,40511009,0,20310219,41600619,20102009,0,12000219,40211709,41211909,40610919,0,31501519,20510609,0,0,0,11601219,0,-2200090,0,40611719,0,0,31001009,0,0,11711609
23,265,622.937311825808,0,0,427102.362302843,427103.409341404,11,0,0,4,9,65925636,30603428,20401409,53122018,0,0,0,-3111180,0,11201309,10202019,20900419,20510709,0,20102019,0,0,0,10501409,0,0,0,0,0,0,0,20401409,0,0,0,0,0,0,0,0,0,31512009,0,21610009,0
23,266,488.330189138651,0,0,427105.174046584,427106.221092075,11,0,0,9,31,187093865,169664622,226088521,205938212,40110009,10210719,0,41201919,40310819,0,10810009,41410219,-3040171,21210319,0,41710319,10410609,40010319,11610919,21000519,11711309,12000309,30901709,30610619,40611109,30510709,20910609,31110209,20110219,11311719,10011619,41210919,11000109,31601409,10011519,30701109,30300809,0,21111119,30001219
23,267,586.608021170832,1,0,427107.785786938,427108.832834738,11,0,1,23,19,136024545,113215466,107385885,135836965,31510809,0,0,32010109,10001109,32001309,0,30501209,0,0,0,21801719,20410619,0,0,30201819,40801309,0,30402009,0,0,11701109,-1070030,11811509,11501019,0,40900209,11901809,31911809,0,0,0,30000519,41611109,20411719,0
23,268,995.73109211633,0,0,427110.444603964,427111.49163983,11,0,0,13,0,0,0,0,0,0,0,0,0,0,0,0,0,0,0,0,0,-31301891,0,0,0,0,0,0,0,0,0,0,0,0,0,0,0,0,0,0,0,0,0,0,0
23,269,509.067345992662,0,0,427113.562218459,427114.609255095,11,0,0,8,31,184337973,217857212,249676441,177158483,11201009,31400509,41711919,0,21910109,12011009,31501619,-4190180,30411619,11911719,10001519,40511009,30710709,0,30700009,41811119,31400509,20810619,41110119,40110119,11910309,21502009,30910419,41810209,21910819,10311419,30101019,32001319,0,30011709,40301709,0,21911609,31010409,11311009,10610719
23,270,577.189530013129,1,0,427116.16219821,427117.20924909,11,1,1,35,9,157836094,31410409,0,22863908,10700119,11701909,0,0,41001019,31110119,31411419,0,31911509,0,31410409,0,0,0,0,0,0,0,0,0,0,0,0,0,0,0,0,0,0,0,10701809,11002009,0,0,-1160090,0
23,271,645.190450828522,0,0,427118.915098132,427119.962179039,11,0,0,36,9,10100719,72713128,93020847,87272897,0,10100719,0,0,0,0,0,0,0,41811409,0,0,0,30901719,0,0,0,0,41110119,0,0,40400209,0,0,0,11510519,0,0,31410519,0,0,21800309,0,0,31911019,-2151050
23,272,576.799563074019,0,0,427121.644501102,427122.691545437,11,0,0,3,31,191135412,228867212,175855603,208639612,41410519,22010109,-2081090,21810619,11300619,40410609,10700019,30500719,10911109,31810619,42010309,21110519,20011809,40901819,0,40310309,11111219,21600609,40711319,30510219,30900509,21611419,30801609,0,10310509,11010019,0,40101109,0,11411419,21012009,10601409,31301209,41810519,41900019,10501919
23,273,498.573269753251,1,0,427124.432767909,427125.479762199,11,0,1,5,3,41750940,0,10001709,41511819,40600919,0,0,0,-1150021,0,0,0,0,0,0,0,0,0,0,0,0,0,0,0,0,0,10001709,0,0,0,0,0,41511819,0,0,0,0,0,0,0
23,274,531.450987211429,1,0,427127.079756963,427128.126806688,11,1,1,29,31,167447722,236889331,217758193,180855113,11210919,21700009,31301419,10510119,0,11010809,40001619,30312009,11400819,40310119,40701319,11110409,30110419,10611809,30511709,11210019,31311709,31011819,40310619,0,21710819,31610909,20002009,41611809,41411909,0,21100119,10900019,-3120200,40000619,21511109,21210719,31910109,0,30700819,21501519
23,275,471.183576912154,1,0,427129.809146844,427130.85618964,11,1,1,7,3,4140011,0,11102009,72022628,0,0,0,0,0,0,-4140011,0,0,0,0,0,0,0,0,0,0,0,0,0,0,0,0,11102009,0,0,0,30910609,0,0,0,0,0,0,0,41112019
23,276,432.844397320878,1,0,427132.503239518,427133.550331589,11,0,1,21,3,73902618,0,3010170,11700109,0,41901309,0,0,0,32001309,0,0,0,0,0,0,0,0,0,0,0,0,0,0,-3010170,0,0,0,0,0,0,0,0,0,0,0,11700109,0,0,0
23,277,541.389177669771,0,0,427135.173809448,427136.220856478,11,1,0,33,3,12001409,32802628,0,3041160,0,0,0,0,12001409,0,0,0,0,0,0,0,20901509,0,0,0,11901119,0,0,0,0,0,0,0,0,0,0,0,0,0,0,0,-3041160,0,0,0
23,278,430.985413666349,1,0,427137.80908679,427138.856126506,11,1,1,10,0,0,0,0,0,0,0,0,0,0,0,0,0,0,-31411591,0,0,0,0,0,0,0,0,0,0,0,0,0,0,0,0,0,0,0,0,0,0,0,0,0,0
23,279,600.325772829819,1,0,427140.467881873,427141.514940837,11,1,1,18,19,166835784,99454967,145404865,114423556,30400919,0,20710919,41100009,21801819,0,41611009,0,11211109,22010819,0,0,12000619,41710409,0,21602019,0,-2131101,10201609,31100019,0,0,31401609,0,42000009,30701619,0,31901319,11501009,0,40311209,30710019,0,0,0,0
23,280,598.908726067748,0,0,427143.256098249,427144.303148359,11,1,0,15,9,21100919,64741208,114024866,30501019,0,0,0,0,0,0,0,21100919,0,11910009,0,0,0,0,-1120081,31301109,0,20410009,0,0,0,20301519,0,20711619,41700309,0,31311419,0,0,0,0,0,30501019,0,0,0
23,281,592.390926962253,0,0,427146.020775328,427147.067824282,11,1,0,13,31,135626584,189039133,240029741,199446802,0,10011719,20701309,0,41900209,0,21310019,11001419,30701909,11611209,20501419,31110109,-1170041,41001109,10010309,20411609,32011319,21212009,40200319,31801919,21801709,20811919,40900219,21110419,30201319,21200409,12001509,10400909,11012009,32010109,40810319,41501709,11500209,0,41901019,10310519
23,282,467.214229167439,1,0,427148.714876471,427149.761928121,11,0,1,27,3,0,0,24762860,83022228,0,0,0,0,0,0,0,0,0,0,0,0,0,0,0,0,0,0,0,0,20611819,0,0,0,0,0,-4151041,41511519,41510709,0,0,0,0,0,0,0
23,283,381.634383345954,1,0,427151.279571334,427152.326609125,11,1,1,30,3,41710709,0,20310509,24921130,0,0,0,0,41710709,0,0,0,0,0,0,0,0,0,0,0,0,0,0,0,0,0,0,0,0,20310509,0,0,0,-3020111,0,0,0,0,21901019,0
23,284,531.560701550916,0,0,427153.738369574,427154.785423918,11,0,0,32,9,71924147,84424037,41210209,64592659,40601709,10212019,0,0,21110419,0,0,0,0,0,0,0,0,0,0,22011919,40600609,21811509,0,0,0,41210209,0,0,0,0,0,40800019,0,0,21701619,-2091021,0,0,0,0
23,285,858.5297074751,1,0,427156.432455319,427157.479523137,11,0,1,6,19,88333557,135614265,158446174,107844365,32011609,0,0,11110709,41100219,-4111020,0,0,0,20000409,20500519,31910319,0,0,0,21601509,0,41601509,11711419,20311009,0,31900309,0,40900709,31711419,21911309,0,0,0,31701409,0,0,21910619,21810809,11011519,21410009
23,286,692.7075200947,0,0,427159.491281815,427160.538320376,11,1,0,17,9,32001309,12531580,114025265,21512818,0,0,0,0,0,0,0,0,32001309,11401419,0,0,0,0,0,0,-1130161,0,11411809,30700719,40300019,10801609,0,0,20811109,0,0,0,0,10201209,0,11311609,0,0,0,0
23,287,554.494839103427,1,0,427185.385185011,427186.432264378,12,1,1,16,31,196959402,178717005,238531211,180247702,21310919,11510919,40211809,31511009,40201909,0,10600609,30411719,11200509,30000819,21700619,30101619,11800519,40310909,0,-4001011,0,40801509,31701709,30710819,30510809,11300209,11501819,40201219,40201809,21901809,20501009,22001319,11400809,30811709,11710409,21910019,10311209,31200209,0,40902019
23,288,556.282989622559,0,0,427188.020466973,427189.067510923,12,1,0,15,9,21100919,64741208,114024866,30501019,0,0,0,0,0,0,0,21100919,0,11910009,0,0,0,0,-1120081,31301109,0,20410009,0,0,0,20301519,0,20711619,41700309,0,31311419,0,0,0,0,0,30501019,0,0,0
23,289,492.01043008361,1,0,427190.796916972,427191.843955533,12,1,1,33,3,12001409,32802628,0,3041160,0,0,0,0,12001409,0,0,0,0,0,0,0,20901509,0,0,0,11901119,0,0,0,0,0,0,0,0,0,0,0,0,0,0,0,-3041160,0,0,0
23,290,556.314941495657,0,0,427193.408648857,427194.455698196,12,1,0,28,19,138117775,215947693,104224266,85524427,21901019,0,31402019,0,41401109,11511619,0,0,31902009,40511009,0,20310219,41600619,20102009,0,12000219,40211709,41211909,40610919,0,31501519,20510609,0,0,0,11601219,0,-2200090,0,40611719,0,0,31001009,0,0,11711609
23,291,426.3366071973,1,0,427196.138052981,427197.220388363,12,0,1,27,3,0,30911619,4170180,22421028,0,0,0,0,0,0,0,0,0,0,0,0,30911619,0,0,0,0,0,0,0,0,0,0,0,0,0,-4170180,10710509,0,0,0,0,0,11710519,0,0
23,292,849.385309556965,1,0,427198.714503827,427199.761535074,12,0,1,6,19,105763907,133606866,187515383,113924156,0,0,0,10410219,21611019,-2131141,0,40210019,31401509,31101919,0,42001219,0,0,0,30301719,30202009,0,32000519,10801809,20811319,31700909,40600609,0,0,11000109,40600109,0,0,0,30211719,11200619,0,0,31501409,41010409
23,293,913.006127753761,1,0,427201.655657698,427202.702696259,12,1,1,13,31,135626584,189039133,240029741,199446802,0,10011719,20701309,0,41900209,0,21310019,11001419,30701909,11611209,20501419,31110109,-1170041,41001109,10010309,20411609,32011319,21212009,40200319,31801919,21801709,20811919,40900219,21110419,30201319,21200409,12001509,10400909,11012009,32010109,40810319,41501709,11500209,0,41901019,10310519
23,294,432.90483643068,1,0,427204.749747139,427205.79678262,12,1,1,10,0,0,0,0,0,0,0,0,0,0,0,0,0,0,-31411591,0,0,0,0,0,0,0,0,0,0,0,0,0,0,0,0,0,0,0,0,0,0,0,0,0,0
23,295,794.772612629458,0,0,427207.290906938,427208.338012868,12,1,0,18,19,166835784,99454967,145404865,114423556,30400919,0,20710919,41100009,21801819,0,41611009,0,11211109,22010819,0,0,12000619,41710409,0,21602019,0,-2131101,10201609,31100019,0,0,31401609,0,42000009,30701619,0,31901319,11501009,0,40311209,30710019,0,0,0,0
23,296,938.09374520788,1,0,427210.149705794,427211.19674705,12,1,1,1,19,55730959,135635184,158637894,103915465,-3110131,0,41710709,0,0,0,10910119,0,0,31801419,21800409,0,11711209,10010119,0,30011719,0,30300309,11210809,21510419,0,20101909,22001119,42011919,41801719,0,0,10900009,0,30001309,11511519,0,20900609,30602019,0,0
23,297,591.889320930932,1,0,427213.290861513,427214.337908543,12,0,1,8,31,239190553,187636331,156629313,127839693,30900619,41701719,11511119,41012019,31000919,10810609,40011919,-1130111,31111519,40510709,10500319,10510209,41600909,12010619,20100319,30100709,10501819,11800719,30610919,21911519,0,10400319,0,10401809,40601719,31301809,11401219,10411009,0,31900609,0,10901909,10401719,31611319,21301109,11312019
23,298,822.067219763994,1,0,427215.996725569,427217.043756046,12,0,1,4,3,32893079,0,71201328,0,0,0,0,-1081160,0,0,31811919,0,0,0,0,0,0,0,0,0,0,0,0,0,0,0,30301019,0,0,0,40900309,0,0,0,0,0,0,0,0,0
23,299,600.281502120197,1,0,427219.008462689,427220.055515108,12,1,1,7,3,4140011,0,11102009,72022628,0,0,0,0,0,0,-4140011,0,0,0,0,0,0,0,0,0,0,0,0,0,0,0,0,11102009,0,0,0,30910609,0,0,0,0,0,0,0,41112019
23,300,795.601821737364,0,0,427221.820205275,427222.86725654,12,1,0,30,3,41710709,0,20310509,24921130,0,0,0,0,41710709,0,0,0,0,0,0,0,0,0,0,0,0,0,0,0,0,0,0,0,0,20310509,0,0,0,-3020111,0,0,0,0,21901019,0
23,301,755.758208862972,0,0,427224.679010675,427225.726048851,12,0,0,32,19,164925994,124004957,125036255,86724885,0,40712009,0,31100519,30500019,40401809,0,11800219,10411419,42001219,40301719,0,0,41702019,0,0,0,0,11310709,41901509,0,10501319,0,0,30211909,0,31110809,11500309,10201209,0,31501009,-1100130,20911309,11510919,0,0
23,302,687.46202182956,0,0,427227.514341835,427228.561330351,12,1,0,35,9,157836094,31410409,0,22863908,10700119,11701909,0,0,41001019,31110119,31411419,0,31911509,0,31410409,0,0,0,0,0,0,0,0,0,0,0,0,0,0,0,0,0,0,0,10701809,11002009,0,0,-1160090,0
23,303,557.762015378103,1,0,427230.33778728,427231.384884355,12,0,1,20,0,0,0,0,0,0,0,0,0,0,0,0,0,0,0,0,0,0,0,0,0,0,0,0,-40811791,0,0,0,0,0,0,0,0,0,0,0,0,0,0,0,0
23,304,658.2422174979,0,0,427232.96129709,427234.00834566,12,0,0,21,9,104625166,73122128,83462199,21301209,41712019,0,11401509,40800719,10710919,0,0,0,0,0,0,0,31810709,0,0,41311419,0,0,0,0,-3151081,0,40210109,0,0,40101009,0,0,21301209,0,0,0,0,0,0,0
23,305,776.466493553016,0,0,427235.726027562,427236.773034672,12,0,0,22,19,83213256,116625365,64315206,196212674,0,31010109,0,0,0,0,20700419,21402019,10100709,11600209,0,30801009,21410909,0,11511919,0,41301319,0,0,0,0,-1190070,0,12001709,20510809,10311209,20301409,40700319,0,41601309,0,30900009,0,31200709,30110219,21700109
23,306,564.572385919746,1,0,427238.678964095,427239.725948761,12,0,1,36,3,31412838,0,22000009,3171071,0,20411519,0,0,0,0,0,11001319,0,0,0,0,0,0,0,0,0,0,0,0,0,0,0,22000009,0,0,0,0,0,0,0,0,0,0,0,-3171071
23,307,519.769301870838,1,0,427241.490648167,427242.537689422,12,0,1,5,9,87024728,43921857,21110019,62111338,10202009,31401409,0,0,-4021191,0,0,0,41400119,0,11310219,11601019,21010619,0,0,0,0,0,0,0,0,0,21110019,0,0,0,0,0,0,0,40511319,0,21600019,0,0,0
23,308,626.257997879293,0,0,427244.114156822,427245.161205007,12,0,0,23,31,199877512,220149421,128416755,210970531,40610119,41311319,20611109,11311209,0,31010419,11301309,22010119,21711909,41801709,30510809,21211409,21401119,10301119,21200219,41511109,21210319,11001609,11401919,0,21411509,0,-2201180,31400019,31300319,30701809,0,20011719,41600519,12010909,40510809,21901209,20610719,20912019,21600819,11811809
23,309,583.097548631486,0,0,427246.90236396,427247.94940945,12,1,0,29,31,167447722,236889331,217758193,180855113,11210919,21700009,31301419,10510119,0,11010809,40001619,30312009,11400819,40310119,40701319,11110409,30110419,10611809,30511709,11210019,31311709,31011819,40310619,0,21710819,31610909,20002009,41611809,41411909,0,21100119,10900019,-3120200,40000619,21511109,21210719,31910109,0,30700819,21501519
23,310,552.524986269418,0,0,427249.725876388,427250.772918029,12,1,0,17,9,32001309,12531580,114025265,21512818,0,0,0,0,0,0,0,0,32001309,11401419,0,0,0,0,0,0,-1130161,0,11411809,30700719,40300019,10801609,0,0,20811109,0,0,0,0,10201209,0,11311609,0,0,0,0
23,311,545.248426147737,0,0,427252.408209999,427253.45525241,12,0,0,9,31,232676012,155756283,188036302,206448102,41800609,10600309,21610309,41001909,41711219,10300019,41600909,20910719,-3140010,31310309,20010509,0,40410619,10910009,11501909,0,11501709,30111219,20201309,21911419,30200709,41001109,0,11110119,41900309,11710509,10000819,31102009,21600709,0,20510709,40401309,10400319,10110219,30711309,41611519
23,312,456.754799641203,0,0,427255.078783393,427256.125826189,12,0,0,3,9,66251978,95222536,30101319,71421728,0,0,-4141050,21010219,0,41100709,0,0,0,0,30601709,11910509,0,31500109,0,0,0,21210209,0,0,0,0,0,0,30101319,0,0,0,41310319,0,0,0,0,30111409,0,0
23,313,955.126793473028,0,0,427273.796329519,427274.843340748,13,1,0,13,31,135626584,189039133,240029741,199446802,0,10011719,20701309,0,41900209,0,21310019,11001419,30701909,11611209,20501419,31110109,-1170041,41001109,10010309,20411609,32011319,21212009,40200319,31801919,21801709,20811919,40900219,21110419,30201319,21200409,12001509,10400909,11012009,32010109,40810319,41501709,11500209,0,41901019,10310519
23,314,842.765880399384,0,0,427276.831609018,427277.878607157,13,1,0,30,3,41710709,0,20310509,24921130,0,0,0,0,41710709,0,0,0,0,0,0,0,0,0,0,0,0,0,0,0,0,0,0,0,0,20310509,0,0,0,-3020111,0,0,0,0,21901019,0
23,315,839.130295091309,1,0,427279.749182784,427280.796210566,13,0,1,6,9,116663517,0,83034547,83221437,0,0,0,42010309,40911709,-2140190,31601309,0,0,0,0,0,0,0,0,0,0,0,0,0,20611209,0,31911619,0,0,0,30511719,0,0,31010319,0,0,11810509,0,0,40400609
23,316,617.174809041899,0,0,427282.702123435,427283.749139668,13,1,0,7,3,4140011,0,11102009,72022628,0,0,0,0,0,0,-4140011,0,0,0,0,0,0,0,0,0,0,0,0,0,0,0,0,11102009,0,0,0,30910609,0,0,0,0,0,0,0,41112019
23,317,461.669230193365,1,0,427285.431494838,427286.478536093,13,1,1,10,0,0,0,0,0,0,0,0,0,0,0,0,0,0,-31411591,0,0,0,0,0,0,0,0,0,0,0,0,0,0,0,0,0,0,0,0,0,0,0,0,0,0
23,318,552.365611831192,0,0,427288.007944529,427289.054988095,13,0,0,27,9,132632746,41401809,47772648,61412538,40410519,41110509,0,0,0,0,10310209,0,40801509,0,0,0,0,41401809,0,0,0,0,0,12000209,31611419,0,0,0,0,0,-4161020,21311619,0,0,0,0,0,0,0,40100919
23,319,598.442921531387,1,0,427290.80790303,427291.854975083,13,0,1,23,31,189525002,216245303,137348453,179367141,11100209,41101209,21711909,10200119,11800019,31311309,41000209,21300019,0,0,30910919,30500119,40411509,31211419,11610709,30100319,41500309,0,21011819,31110809,21201419,20501319,-1000140,0,10211109,22001619,10310219,20301319,22011409,20100209,10510119,32001019,41810319,11010419,10910709,10711619
23,320,546.789430838544,1,0,427293.478512226,427294.525539623,13,0,1,3,3,4070170,81433747,0,0,0,0,-4070170,0,0,0,0,0,0,0,0,0,0,0,10411919,40111719,0,30910109,0,0,0,0,0,0,0,0,0,0,0,0,0,0,0,0,0,0
23,321,613.742098968942,0,0,427296.125529768,427297.172572948,13,0,0,32,9,30710409,123804646,83112237,34011779,0,0,30710409,0,0,0,0,0,0,0,0,21100909,0,30701409,0,0,32000609,40001719,41800909,0,0,0,20600409,0,20710919,0,0,0,0,0,0,-4001070,0,0,30010709,0
23,322,581.131160492077,0,0,427298.854916184,427299.901967448,13,1,0,28,19,138117775,215947693,104224266,85524427,21901019,0,31402019,0,41401109,11511619,0,0,31902009,40511009,0,20310219,41600619,20102009,0,12000219,40211709,41211909,40610919,0,31501519,20510609,0,0,0,11601219,0,-2200090,0,40611719,0,0,31001009,0,0,11711609
23,323,592.723919486161,0,0,427301.525483418,427302.572522364,13,1,0,15,9,21100919,64741208,114024866,30501019,0,0,0,0,0,0,0,21100919,0,11910009,0,0,0,0,-1120081,31301109,0,20410009,0,0,0,20301519,0,20711619,41700309,0,31311419,0,0,0,0,0,30501019,0,0,0
23,324,525.986445369199,1,0,427304.184322772,427305.243099993,13,0,1,22,3,20600419,62211328,1130020,0,20600419,0,0,0,0,0,0,0,0,20700409,41510919,0,0,0,0,0,0,0,0,0,0,-1130020,0,0,0,0,0,0,0,0,0,0,0,0,0,0
23,325,442.718298989348,1,0,427306.784312532,427307.831301433,13,0,1,21,19,64523156,124744985,99143677,148344994,0,0,0,21210209,0,11910719,20601509,10800719,0,11910309,20311819,20811319,40711519,31000019,0,0,0,0,20901009,0,-4131031,31810209,0,11901109,30400319,0,0,21000709,42001219,31810419,0,0,11410419,30210809,0,11911419
23,326,536.171011801343,0,0,427309.396017469,427310.4430568,13,1,0,29,31,167447722,236889331,217758193,180855113,11210919,21700009,31301419,10510119,0,11010809,40001619,30312009,11400819,40310119,40701319,11110409,30110419,10611809,30511709,11210019,31311709,31011819,40310619,0,21710819,31610909,20002009,41611809,41411909,0,21100119,10900019,-3120200,40000619,21511109,21210719,31910109,0,30700819,21501519
23,327,429.733900760766,1,0,427312.0783557,427313.125392721,13,1,1,33,3,12001409,32802628,0,3041160,0,0,0,0,12001409,0,0,0,0,0,0,0,20901509,0,0,0,11901119,0,0,0,0,0,0,0,0,0,0,0,0,0,0,0,-3041160,0,0,0
23,328,815.980193554424,0,0,427314.595973121,427315.643022846,13,0,0,5,31,139291473,236538092,270728912,208147603,10101309,20801409,30410519,11411119,-2040061,20401909,11211519,11711919,21201709,20410119,11311509,40000609,21301509,41800909,40001509,30411909,0,31300019,22000719,30200619,31801309,31112009,0,41401609,41901509,31810719,40500419,41200719,0,21411709,21910219,31411309,40510409,0,41501619,10201619
23,329,761.437944718637,1,0,427317.513599628,427318.560639343,13,0,1,36,19,84232956,85125246,186741974,138974165,0,0,0,31910309,10711919,0,21100109,0,20510619,11501419,21712009,0,0,21811409,0,0,0,30100409,41910509,0,12010209,20200009,30310509,41500119,40810619,0,0,0,31501009,32010319,21401119,0,0,40600009,11300519,-2161190
23,330,523.406042077113,0,0,427320.466516796,427321.513564211,13,1,0,16,31,196959402,178717005,238531211,180247702,21310919,11510919,40211809,31511009,40201909,0,10600609,30411719,11200509,30000819,21700619,30101619,11800519,40310909,0,-4001011,0,40801509,31701709,30710819,30510809,11300209,11501819,40201219,40201809,21901809,20501009,22001319,11400809,30811709,11710409,21910019,10311209,31200209,0,40902019
23,331,595.383240026422,1,0,427323.113563595,427324.160607546,13,0,1,8,31,207265344,240571531,167550322,224955203,41910719,21710409,20300409,20411619,40310309,20110209,0,-2001151,40510519,41711819,11400419,30111219,30311309,10601809,22010719,41602009,21611719,31210509,11200719,11001109,11410309,41511819,10501619,30101909,0,20112019,31710819,31610809,10410609,40311219,40010219,40701909,21110219,0,0,40800219
23,332,502.65040708473,0,0,427325.772377156,427326.819407248,13,0,0,27,0,0,0,0,0,0,0,0,0,0,0,0,0,0,0,0,0,0,0,0,0,0,0,0,0,0,0,0,0,0,0,-41810901,0,0,0,0,0,0,0,0,0
23,333,578.163869911805,0,0,427328.489987956,427329.537034216,13,1,0,17,9,32001309,12531580,114025265,21512818,0,0,0,0,0,0,0,0,32001309,11401419,0,0,0,0,0,0,-1130161,0,11411809,30700719,40300019,10801609,0,0,20811109,0,0,0,0,10201209,0,11311609,0,0,0,0
23,334,478.836245369166,1,0,427331.231151143,427332.278199713,13,0,1,9,19,174936074,125744604,104025746,113024537,31010919,0,40011319,31211709,20310619,10100209,0,41211209,-1080090,10300109,10411319,0,21611319,40600019,32011219,0,10810619,0,0,0,40611509,10511509,0,20901909,0,0,32000819,0,30102009,0,41310619,0,0,0,0,41611909
23,335,602.842657302972,0,0,427333.831134744,427334.878177154,13,1,0,35,9,157836094,31410409,0,22863908,10700119,11701909,0,0,41001019,31110119,31411419,0,31911509,0,31410409,0,0,0,0,0,0,0,0,0,0,0,0,0,0,0,0,0,0,0,10701809,11002009,0,0,-1160090,0
23,336,422.273328644224,1,0,427336.56051731,427337.60756434,13,0,1,4,3,34523629,0,0,21501509,0,0,11811819,-1201091,21510719,0,0,0,0,0,0,0,0,0,0,0,0,0,0,0,0,0,0,0,0,0,0,0,0,0,0,0,0,21501509,0,0
23,337,676.46941926796,1,0,427339.207563724,427340.254605365,13,1,1,1,19,55730959,135635184,158637894,103915465,-3110131,0,41710709,0,0,0,10910119,0,0,31801419,21800409,0,11711209,10010119,0,30011719,0,30300309,11210809,21510419,0,20101909,22001119,42011919,41801719,0,0,10900009,0,30001309,11511519,0,20900609,30602019,0,0
23,338,744.926905550528,1,0,427342.136941979,427343.183984775,13,1,1,18,19,166835784,99454967,145404865,114423556,30400919,0,20710919,41100009,21801819,0,41611009,0,11211109,22010819,0,0,12000619,41710409,0,21602019,0,-2131101,10201609,31100019,0,0,31401609,0,42000009,30701619,0,31901319,11501009,0,40311209,30710019,0,0,0,0
23,339,705.415900214575,0,0,427358.454525986,427359.501537214,14,0,0,21,9,73312618,84422547,46962268,42512928,0,41901209,0,31411409,0,0,0,0,0,0,0,0,0,40411419,0,0,12010619,32000509,11810609,0,-4040040,0,0,0,0,31111619,0,0,21611219,0,0,20901709,0,0,0,0
23,340,485.055698547512,1,0,427361.289745122,427362.336784068,14,0,1,9,3,12311610,0,0,51221428,0,0,0,0,10300609,0,0,0,-2011001,0,0,0,0,0,0,0,0,0,0,0,0,0,0,0,0,0,0,0,0,0,30210909,0,0,21010519,0,0
23,341,642.400243028533,0,0,427363.960317746,427365.007365931,14,0,0,4,31,245036862,187738203,224268811,176136213,21801509,31910519,31302009,-3201050,11900109,41801009,41210419,41200119,20710119,10800009,0,31411819,21002019,30801919,30400319,0,31610209,31711909,21200609,31210409,12011709,11911709,11500809,31510119,41910719,21211009,41801719,21201209,0,10110419,41711719,21310519,30701709,0,30000119,21100519
23,342,515.099707467016,0,0,427366.748527193,427367.795579228,14,1,0,15,9,21100919,64741208,114024866,30501019,0,0,0,0,0,0,0,21100919,0,11910009,0,0,0,0,-1120081,31301109,0,20410009,0,0,0,20301519,0,20711619,41700309,0,31311419,0,0,0,0,0,30501019,0,0,0
23,343,580.438998003956,1,0,427369.466151082,427370.513198497,14,1,1,29,31,167447722,236889331,217758193,180855113,11210919,21700009,31301419,10510119,0,11010809,40001619,30312009,11400819,40310119,40701319,11110409,30110419,10611809,30511709,11210019,31311709,31011819,40310619,0,21710819,31610909,20002009,41611809,41411909,0,21100119,10900019,-3120200,40000619,21511109,21210719,31910109,0,30700819,21501519
23,344,844.679913658183,0,0,427372.266130756,427373.313180096,14,1,0,18,19,166835784,99454967,145404865,114423556,30400919,0,20710919,41100009,21801819,0,41611009,0,11211109,22010819,0,0,12000619,41710409,0,21602019,0,-2131101,10201609,31100019,0,0,31401609,0,42000009,30701619,0,31901319,11501009,0,40311209,30710019,0,0,0,0
23,345,1201.27447426785,0,0,427375.348461903,427376.395506239,14,0,0,36,19,93524256,143834456,156835193,76964166,0,0,21011519,0,0,31201109,31011109,0,10300519,0,40802019,41410519,0,0,20711409,40910509,0,0,20100119,30801409,31010609,0,41900309,0,11510109,10301619,11211019,10001119,21602009,0,0,0,11710109,30500809,0,-3150120
23,346,727.584347478114,0,0,427378.666085946,427379.713132206,14,1,0,10,0,0,0,0,0,0,0,0,0,0,0,0,0,0,-31411591,0,0,0,0,0,0,0,0,0,0,0,0,0,0,0,0,0,0,0,0,0,0,0,0,0,0
23,347,528.902150923386,1,0,427381.583713992,427382.630749858,14,1,1,16,31,196959402,178717005,238531211,180247702,21310919,11510919,40211809,31511009,40201909,0,10600609,30411719,11200509,30000819,21700619,30101619,11800519,40310909,0,-4001011,0,40801509,31701709,30710819,30510809,11300209,11501819,40201219,40201809,21901809,20501009,22001319,11400809,30811709,11710409,21910019,10311209,31200209,0,40902019
23,348,621.793973434251,0,0,427384.230756172,427385.277833614,14,1,0,33,3,12001409,32802628,0,3041160,0,0,0,0,12001409,0,0,0,0,0,0,0,20901509,0,0,0,11901119,0,0,0,0,0,0,0,0,0,0,0,0,0,0,0,-3041160,0,0,0
