sub_id,Trial,RT,Resp,Error,Fix_onset,Disp_onset,block,repeat,tid,tloc,d_setsize,quad1,quad2,quad3,quad4,loc1,loc2,loc3,loc4,loc5,loc6,loc7,loc8,loc9,loc10,loc11,loc12,loc13,loc14,loc15,loc16,loc17,loc18,loc19,loc20,loc21,loc22,loc23,loc24,loc25,loc26,loc27,loc28,loc29,loc30,loc31,loc32,loc33,loc34,loc35,loc36
21,1,2126.57394330017,0,0,549222.46007076,549223.507166114,1,0,0,27,19,104313557,157727193,99355937,135733675,0,0,0,0,0,0,41311319,41801619,21200619,21000719,10000919,21410709,0,31201909,21510809,41700109,10902019,0,0,0,11211719,31600609,11411719,41111819,0,0,-4020071,21200409,10010509,0,0,41610719,40911319,0,22000719,0
21,2,680.772596853785,0,0,549226.766089317,549227.813168503,1,0,0,11,31,218247813,187796752,228970722,197744712,31901119,0,11611319,40201019,41810709,30701719,20610319,0,41411609,30210419,-1020130,20510019,21511809,32011919,31610109,10110509,30601819,10210019,42011319,0,11600609,31802009,21112019,30611819,30911219,40011019,20910709,21000709,10110019,32010019,40700009,21810309,0,30700519,30301519,11111609
21,3,618.671464500949,1,0,549229.577976218,549230.625019988,1,1,1,29,9,72122757,91224737,21100009,33073348,31210519,0,0,0,0,0,20101619,20810619,0,0,0,0,0,0,0,40301609,20111119,30812009,0,21100009,0,0,0,0,0,0,0,11101109,-1161130,20811109,0,0,0,0,0,0
21,4,543.99827728048,0,0,549232.354488287,549233.401565163,1,1,0,3,9,93792738,63113347,52603728,30901619,0,31900109,-1191191,0,40100519,0,0,20600919,0,0,21411719,11701219,0,30000409,0,0,0,0,41202019,0,0,0,11401709,0,0,0,0,0,0,0,30901619,0,0,0,0,0
21,5,316.016311873682,1,0,549235.107505034,549236.154592304,1,0,1,36,3,0,82602347,0,2121040,0,0,0,0,0,0,0,0,0,20400409,0,0,21500519,0,40701419,0,0,0,0,0,0,0,0,0,0,0,0,0,0,0,0,0,0,0,0,-2121040
21,6,496.102204429917,0,0,549237.507576868,549238.554660288,1,1,0,25,19,144033475,133435684,56303707,145014865,40600309,20401119,41210919,0,30810009,0,0,0,11011119,10800209,0,0,40010419,0,10011809,40601309,10411919,21600019,21400509,22001519,0,0,11810509,0,-1091170,0,0,40401509,0,30311209,20600519,0,0,31700319,22001309,0
21,7,491.031498531811,0,1,549240.107655554,549241.154732815,1,0,1,19,9,22212828,0,135456086,93413137,0,0,0,11211619,11001209,0,0,0,0,0,0,0,0,0,0,0,0,0,-3120120,40311419,40601319,0,10911719,40511509,0,0,0,41700709,11001709,0,0,40710719,0,0,0,0
21,8,692.463476327248,0,0,549242.648892957,549243.695989081,1,1,0,30,0,0,0,0,0,0,0,0,0,0,0,0,0,0,0,0,0,0,0,0,0,0,0,0,0,0,0,0,0,0,0,0,0,0,-31810291,0,0,0,0,0,0
21,9,610.185385216028,0,0,549245.437226022,549246.484302128,1,0,0,13,9,62921827,42702540,83424127,52212118,21410009,10810709,0,0,0,0,30701109,0,0,0,0,0,-1091031,0,41611509,0,0,0,0,11200809,0,0,40711509,0,31511809,0,0,0,0,0,40501809,0,0,0,0,11710309
21,10,570.483206422068,1,0,549248.154942618,549249.202032198,1,1,1,2,3,2001101,11301719,0,73221618,0,-2001101,0,0,0,0,0,0,0,0,11301719,0,0,0,0,0,0,0,0,0,0,0,0,0,0,0,0,42011009,0,0,0,0,0,0,31210609,0
21,11,680.744109791704,1,0,549250.825644317,549251.872746216,1,1,1,35,3,0,20100419,41511018,1021030,0,0,0,0,0,0,0,0,0,0,0,0,0,20100419,0,0,0,0,10900609,0,0,0,0,0,30610409,0,0,0,0,0,0,0,0,0,-1021030,0
21,12,697.407915024087,1,0,549253.602156386,549254.649243656,1,0,1,33,19,188538783,74414976,112807765,64664187,0,22000109,10301809,40400419,11911709,41212009,21111909,0,41600819,0,11911319,21101019,0,0,30701019,10701619,0,0,30801209,0,30101709,10801219,20502019,20601609,0,0,0,0,0,41811219,0,0,-2041050,10800609,0,10011309
21,13,689.761050394736,1,0,549256.472829136,549257.519906397,1,0,1,32,31,228350341,198551041,189641922,149137385,40200409,40500419,21711809,11411119,31510219,20910819,20902019,11001619,30201909,11701909,30211419,11311419,21310919,41501019,10201119,20601019,10110509,41601709,31701519,21612019,21111309,10301819,21901409,41800619,20511909,20701319,0,0,31702019,31211309,40311209,-3090130,31810809,0,11011909,0
21,14,654.830462648533,0,0,549259.390569523,549260.437658718,1,1,0,12,3,21810109,1200080,0,51903418,0,0,0,0,0,0,0,0,21810109,0,0,-1200080,0,0,0,0,0,0,0,0,0,0,0,0,0,0,0,0,30901909,0,0,0,0,0,21001509,0
21,15,680.208629113622,1,0,549262.214179641,549263.261259212,1,0,1,21,19,206246784,144024956,105154366,136422165,42010909,40401619,41411019,0,0,41801819,20611209,0,20010209,0,0,0,21501009,40511019,40611509,41401419,0,0,31101019,0,-1141000,0,40800519,20610709,0,11501119,0,20510909,0,42000309,21510019,0,10900919,0,41500009,0
21,16,773.924680426717,1,0,549264.955497424,549266.002516556,1,1,1,8,9,12741859,20611019,92235336,61613457,0,0,0,0,10700809,0,0,-2041050,0,0,0,0,0,20611019,0,0,0,0,0,0,40912009,30310809,0,10400709,0,10611809,0,10211719,40701619,0,0,0,10700119,0,0,0
21,17,633.865103824064,0,0,549267.826101266,549268.873184686,1,1,0,10,19,133432585,88623506,123434575,72622375,30410419,0,40101019,31410619,0,0,11500319,0,20010209,-4090150,20501719,0,0,0,10710009,31511119,0,21810509,0,30901109,20001519,21210219,0,41010109,10311619,0,0,0,30310519,0,10910419,10300609,0,10000819,0,11100009
21,18,681.397003587335,0,0,549270.543829411,549271.590907827,1,1,0,28,31,271848311,216646383,169746202,170337863,21300709,31511619,40610209,32001209,21001509,21401619,21200209,41910319,40910909,20211509,41002009,41910109,0,20411319,0,41010309,31300219,20800909,21900509,11710409,21510309,10201919,11700319,31410209,0,20601809,40710719,-4100160,30100819,11211619,22000419,10610819,40301809,41900509,0,10111709
21,19,545.717512839474,0,0,549273.461562484,549274.508647829,1,0,0,22,31,187546803,209140822,181708253,186479251,0,21210719,22000209,20101419,0,41611519,10411609,30800419,41410909,30001019,0,10211119,31701119,31911909,32001719,20701509,21501009,31111419,0,41612019,31911419,-1060030,11110719,11900909,11010019,41401219,31701919,10100209,22011819,10101319,11311919,10011819,10711209,40210119,30310219,41710619
21,20,615.907059982419,1,1,549276.179284855,549277.22636712,1,0,0,24,3,21301319,41211509,13991320,0,0,21301319,0,0,0,0,0,0,0,0,0,0,0,0,41211509,0,0,0,0,0,0,0,11800319,-2191001,0,0,0,0,0,0,0,0,0,0,0,0
21,21,732.979077612981,1,0,549278.944069473,549279.991152508,1,1,1,4,31,162216493,151736722,245057813,176626002,20801909,11910209,10310209,-4161011,11100609,11310109,11610409,40000819,41011209,11711109,11110619,21300319,21501719,11910809,31401619,12000419,30800109,0,41912019,0,30411419,0,40000209,41411119,21111219,30200219,40011609,10200119,0,10700009,11710709,40200509,40601709,21401019,10411309,31400619
21,22,551.701730932109,0,0,549281.932400151,549282.979482417,1,1,0,9,19,115844556,133233275,135742365,116243775,30510219,31210319,0,0,41411419,0,10601519,0,-2111080,40900619,30200219,0,0,30010619,0,0,11210609,20911209,20311009,31710409,0,0,40910419,0,11010519,31800009,0,21310609,0,0,0,0,31410519,41310619,10210309,12001719
21,23,702.363517368212,1,0,549284.661877305,549285.708970349,1,0,1,1,9,85943497,83333537,11310009,50123418,-2120160,21611409,20600019,0,0,41611909,0,0,0,0,0,0,21611119,0,0,20811209,40911209,0,0,0,11310009,0,0,0,0,0,0,0,0,0,0,40111409,0,0,10012009,0
21,24,637.311274418607,0,0,549287.473747268,549288.520814905,1,0,0,17,0,0,0,0,0,0,0,0,0,0,0,0,0,0,0,0,0,0,0,0,0,-10610491,0,0,0,0,0,0,0,0,0,0,0,0,0,0,0,0,0,0,0
21,25,811.654704157263,1,0,549290.250277045,549291.297363545,1,0,1,18,3,0,34982139,11100709,0,0,0,0,0,0,0,0,0,0,0,0,21111919,0,0,0,0,10710019,-3160201,0,0,0,11100709,0,0,0,0,0,0,0,0,0,0,0,0,0,0
21,26,481.591100920923,1,0,549293.250368281,549294.297453241,1,1,1,16,31,267756421,229605534,156770203,229247302,41700819,41100019,11300809,20411509,30211219,40110409,10810709,41600809,30510119,40200619,21300309,41101109,11000419,31800819,41700509,-2090031,40411719,0,0,11311219,21111909,41901719,0,30610509,21211819,10311619,20311409,42010809,41311609,30401219,41611309,11400119,0,40510109,11602019,10400109
21,27,582.399287959561,0,0,549311.815616084,549312.862694885,2,0,0,11,31,189466922,206857503,240850541,165626193,41710109,11811319,21410619,20311109,20011519,31900419,32000309,10311519,0,31001509,-1101010,30410419,30011319,20810709,30311209,0,32010119,31201209,31201419,21700609,41611619,10710119,21712019,30600709,11011019,30401519,41901509,40401409,31900719,0,0,10000709,10901619,30700609,30410419,11310709
21,28,607.502207276411,0,0,549314.62746603,549315.67454637,2,1,0,9,19,115844556,133233275,135742365,116243775,30510219,31210319,0,0,41411419,0,10601519,0,-2111080,40900619,30200219,0,0,30010619,0,0,11210609,20911209,20311009,31710409,0,0,40910419,0,11010519,31800009,0,21310609,0,0,0,0,31410519,41310619,10210309,12001719
21,29,656.839958857745,0,0,549317.309887095,549318.356970516,2,0,0,13,3,50313138,1140110,0,41611509,0,0,0,0,20311619,30001519,0,0,0,0,0,0,-1140110,0,0,0,0,0,0,0,0,0,0,0,0,0,0,0,0,0,41611509,0,0,0,0,0
21,30,533.736372948624,0,1,549320.062957736,549321.110000351,2,1,1,3,9,93792738,63113347,52603728,30901619,0,31900109,-1191191,0,40100519,0,0,20600919,0,0,21411719,11701219,0,30000409,0,0,0,0,41202019,0,0,0,11401709,0,0,0,0,0,0,0,30901619,0,0,0,0,0
21,31,1041.1410969682,0,0,549322.827695004,549323.874783429,2,0,0,18,19,154355594,165115277,154714065,103723446,0,10001319,0,20711609,11910109,41010119,40311219,30411219,0,41001219,41701119,0,40911009,0,0,0,40301819,-1200111,0,0,30200509,32000509,0,40010519,0,40501109,12001419,31410009,0,10401809,20801619,41110009,0,0,0,0
21,32,627.074777381495,0,0,549325.980727765,549327.027872394,2,0,0,21,31,267959021,218036702,140407535,176548622,20410619,41100609,41110709,41911809,41201619,20201609,20310019,20601709,21110319,21111709,0,41601209,21211009,30100619,11410009,40400219,31101419,21100509,21202019,21700209,-4071061,20310819,0,30210809,0,11810909,31101709,30611919,10300919,20510209,20601509,30401819,31510209,11111219,0,21500819
21,33,790.36058858037,1,0,549328.757286799,549329.804369835,2,1,1,2,3,2001101,11301719,0,73221618,0,-2001101,0,0,0,0,0,0,0,0,11301719,0,0,0,0,0,0,0,0,0,0,0,0,0,0,0,0,42011009,0,0,0,0,0,0,31210609,0
21,34,686.464244732633,1,0,549331.722066336,549332.769155146,2,1,1,29,9,72122757,91224737,21100009,33073348,31210519,0,0,0,0,0,20101619,20810619,0,0,0,0,0,0,0,40301609,20111119,30812009,0,21100009,0,0,0,0,0,0,0,11101109,-1161130,20811109,0,0,0,0,0,0
21,35,573.573288042098,1,0,549334.580982763,549335.628053095,2,1,1,4,31,162216493,151736722,245057813,176626002,20801909,11910209,10310209,-4161011,11100609,11310109,11610409,40000819,41011209,11711109,11110619,21300319,21501719,11910809,31401619,12000419,30800109,0,41912019,0,30411419,0,40000209,41411119,21111219,30200219,40011609,10200119,0,10700009,11710709,40200509,40601709,21401019,10411309,31400619
21,36,810.673438711092,1,0,549337.345779315,549338.39292048,2,0,1,32,9,93724646,52021818,10801419,55631778,41811109,0,0,10200409,20211909,0,0,21501219,0,0,21610909,0,0,0,0,30410909,0,0,0,10801419,0,0,0,0,0,0,0,11200119,0,0,0,-3021050,0,0,0,41410609
21,37,634.651963948272,0,0,549340.239969716,549341.287047746,2,1,0,28,31,271848311,216646383,169746202,170337863,21300709,31511619,40610209,32001209,21001509,21401619,21200209,41910319,40910909,20211509,41002009,41910109,0,20411319,0,41010309,31300219,20800909,21900509,11710409,21510309,10201919,11700319,31410209,0,20601809,40710719,-4100160,30100819,11211619,22000419,10610819,40301809,41900509,0,10111709
21,38,633.284582640044,0,0,549343.087109032,549344.134197842,2,1,0,30,0,0,0,0,0,0,0,0,0,0,0,0,0,0,0,0,0,0,0,0,0,0,0,0,0,0,0,0,0,0,0,0,0,0,-31810291,0,0,0,0,0,0
21,39,557.761401520111,0,0,549345.863704253,549346.910803456,2,0,0,36,31,200160222,257420722,269360431,141009514,0,21301019,42011019,41400619,11310419,11812009,21711509,40302009,10311619,41001419,40301609,20501419,0,31601419,30200309,31700819,20111709,42002019,30510819,30901409,21910219,10010309,40011719,31801819,42001019,31301109,30912009,20812009,11201309,41011119,0,41700419,11501919,0,10701709,-4081030
21,40,509.858014411293,0,0,549348.675510697,549349.722592578,2,0,0,22,9,30912009,42002518,57641407,101912427,0,0,30912009,0,0,0,0,0,0,0,0,0,0,0,0,0,31201709,10800809,21410609,0,21510609,-3110070,11610119,0,0,0,0,0,30210309,0,40200909,31501209,0,0,0,0
21,41,501.119785592891,1,0,549351.440294161,549352.487371807,2,1,1,10,19,133432585,88623506,123434575,72622375,30410419,0,40101019,31410619,0,0,11500319,0,20010209,-4090150,20501719,0,0,0,10710009,31511119,0,21810509,0,30901109,20001519,21210219,0,41010109,10311619,0,0,0,30310519,0,10910419,10300609,0,10000819,0,11100009
21,42,628.200018312782,1,0,549354.040371307,549355.087452802,2,0,1,1,19,94355466,166036864,51110728,164737623,-2031000,10000719,40811709,0,0,21500619,0,20011419,0,0,0,30401909,11101509,20211709,31610109,0,31810109,40901519,0,0,40010319,0,0,0,0,0,11100409,0,0,30510119,10501809,10300419,20410919,41300919,40401619,11311819
21,43,469.487158348784,1,0,549356.758090213,549357.805175173,2,1,1,16,31,267756421,229605534,156770203,229247302,41700819,41100019,11300809,20411509,30211219,40110409,10810709,41600809,30510119,40200619,21300309,41101109,11000419,31800819,41700509,-2090031,40411719,0,0,11311219,21111909,41901719,0,30610509,21211819,10311619,20311409,42010809,41311609,30401219,41611309,11400119,0,40510109,11602019,10400109
21,44,499.888295424171,1,0,549359.346403722,549360.393569909,2,1,1,8,9,12741859,20611019,92235336,61613457,0,0,0,0,10700809,0,0,-2041050,0,0,0,0,0,20611019,0,0,0,0,0,0,40912009,30310809,0,10400709,0,10611809,0,10211719,40701619,0,0,0,10700119,0,0,0
21,45,845.597867039032,1,0,549362.087658756,549363.134741792,2,1,1,25,19,144033475,133435684,56303707,145014865,40600309,20401119,41210919,0,30810009,0,0,0,11011119,10800209,0,0,40010419,0,10011809,40601309,10411919,21600019,21400509,22001519,0,0,11810509,0,-1091170,0,0,40401509,0,30311209,20600519,0,0,31700319,22001309,0
21,46,544.678503298201,0,0,549365.087746913,549366.134831103,2,1,0,35,3,0,20100419,41511018,1021030,0,0,0,0,0,0,0,0,0,0,0,0,0,20100419,0,0,0,0,10900609,0,0,0,0,0,30610409,0,0,0,0,0,0,0,0,0,-1021030,0
21,47,893.55514862109,1,0,549367.699586156,549368.746671886,2,0,1,33,3,32000819,0,0,64921699,32000819,0,0,0,0,0,0,0,0,0,0,0,0,0,0,0,0,0,0,0,0,0,0,0,0,0,0,0,30910109,30901519,0,0,-3110071,0,0,0
21,48,691.268942551687,0,0,549370.676143188,549371.723223144,2,0,0,24,19,32222018,157526294,90427155,175444794,0,12010009,0,20212009,0,0,0,0,0,41801519,10600609,0,31910819,0,30600709,21901719,0,20710919,31601709,11211909,0,11410409,21411519,-4080200,0,0,10711409,0,30910419,40511319,0,11110719,0,41211419,20400709,31300209
21,49,407.534621073864,1,0,549373.558568412,549374.605675699,2,1,1,12,3,21810109,1200080,0,51903418,0,0,0,0,0,0,0,0,21810109,0,0,-1200080,0,0,0,0,0,0,0,0,0,0,0,0,0,0,0,0,30901909,0,0,0,0,0,21001509,0
21,50,609.754998818971,0,0,549376.111599479,549377.158685594,2,0,0,19,3,43912128,41010319,1140021,0,0,0,0,0,0,0,32011509,11900619,0,41010319,0,0,0,0,0,0,0,0,-1140021,0,0,0,0,0,0,0,0,0,0,0,0,0,0,0,0,0
21,51,594.722273293883,0,0,549378.876387176,549379.923465207,2,0,0,27,9,93102837,31211528,44080899,61302847,0,21101019,0,0,0,41600509,0,30401309,0,0,20400009,10811519,0,0,0,0,0,0,0,0,0,0,40010709,0,0,0,-4070190,0,0,0,20601219,0,0,0,20401119,20300509
21,52,572.945416672155,1,0,549381.535335633,549382.582376322,2,0,1,19,0,0,0,0,0,0,0,0,0,0,0,0,0,0,0,0,0,0,0,0,0,0,0,-11901691,0,0,0,0,0,0,0,0,0,0,0,0,0,0,0,0,0
21,53,535.64346942585,1,0,549389.841405004,549390.888495739,3,0,1,13,3,20010519,2041130,0,50513328,0,0,0,0,20010519,0,0,0,0,0,0,0,-2041130,0,0,0,0,0,0,0,0,0,0,0,0,0,0,0,10111619,40401709,0,0,0,0,0,0
21,54,662.587426020764,1,0,549392.488552097,549393.535625893,3,1,1,12,3,21810109,1200080,0,51903418,0,0,0,0,0,0,0,0,21810109,0,0,-1200080,0,0,0,0,0,0,0,0,0,0,0,0,0,0,0,0,30901909,0,0,0,0,0,21001509,0
21,55,536.121975863352,1,0,549395.371010427,549396.418056891,3,1,1,3,9,93792738,63113347,52603728,30901619,0,31900109,-1191191,0,40100519,0,0,20600919,0,0,21411719,11701219,0,30000409,0,0,0,0,41202019,0,0,0,11401709,0,0,0,0,0,0,0,30901619,0,0,0,0,0
21,56,595.047565293498,0,0,549398.076933744,549399.124021784,3,0,0,24,9,84924156,33213328,22721840,32812328,0,0,41711519,0,11210619,20001509,0,0,12000509,0,0,0,0,11501819,0,21711509,0,0,0,0,0,0,0,-2020021,0,20701819,0,0,0,22011109,0,10801219,0,0,0,0
21,57,701.697534881532,0,0,549400.806433611,549401.853521265,3,1,0,10,19,133432585,88623506,123434575,72622375,30410419,0,40101019,31410619,0,0,11500319,0,20010209,-4090150,20501719,0,0,0,10710009,31511119,0,21810509,0,30901109,20001519,21210219,0,41010109,10311619,0,0,0,30310519,0,10910419,10300609,0,10000819,0,11100009
21,58,485.336001147516,0,0,549403.606504905,549404.653598335,3,1,0,8,9,12741859,20611019,92235336,61613457,0,0,0,0,10700809,0,0,-2041050,0,0,0,0,0,20611019,0,0,0,0,0,0,40912009,30310809,0,10400709,0,10611809,0,10211719,40701619,0,0,0,10700119,0,0,0
21,59,638.282915810123,0,0,549406.159521729,549407.206607459,3,1,0,30,0,0,0,0,0,0,0,0,0,0,0,0,0,0,0,0,0,0,0,0,0,0,0,0,0,0,0,0,0,0,0,0,0,0,-31810291,0,0,0,0,0,0
21,60,632.76026584208,0,0,549408.924318281,549409.971395927,3,1,0,9,19,115844556,133233275,135742365,116243775,30510219,31210319,0,0,41411419,0,10601519,0,-2111080,40900619,30200219,0,0,30010619,0,0,11210609,20911209,20311009,31710409,0,0,40910419,0,11010519,31800009,0,21310609,0,0,0,0,31410519,41310619,10210309,12001719
21,61,573.693395825103,1,0,549411.677336567,549412.724419603,3,0,1,27,9,61012028,72525147,77142958,40501709,0,40010219,0,0,21001809,0,0,0,0,11012009,0,0,0,0,21101519,0,40411619,0,0,10311409,0,21700509,0,0,41001019,0,-4130021,0,0,40501709,0,0,0,0,0,0
21,62,501.779608544894,0,0,549414.453877508,549415.501015593,3,1,0,28,31,271848311,216646383,169746202,170337863,21300709,31511619,40610209,32001209,21001509,21401619,21200209,41910319,40910909,20211509,41002009,41910109,0,20411319,0,41010309,31300219,20800909,21900509,11710409,21510309,10201919,11700319,31410209,0,20601809,40710719,-4100160,30100819,11211619,22000419,10610819,40301809,41900509,0,10111709
21,63,724.051448050886,0,0,549417.006900491,549418.053981987,3,0,0,33,19,125416565,116114856,189556703,46985518,0,0,10811219,0,21802009,0,41300819,30000809,21501709,21201009,0,0,0,41401309,0,32010619,21501919,0,21610619,41211819,0,11610419,40701209,21811709,0,31400509,21210419,0,11911819,0,12010919,0,-1051061,22011719,0,0
21,64,807.278467924334,1,0,549419.936395661,549420.983482931,3,1,1,4,31,162216493,151736722,245057813,176626002,20801909,11910209,10310209,-4161011,11100609,11310109,11610409,40000819,41011209,11711109,11110619,21300319,21501719,11910809,31401619,12000419,30800109,0,41912019,0,30411419,0,40000209,41411119,21111219,30200219,40011609,10200119,0,10700009,11710709,40200509,40601709,21401019,10411309,31400619
21,65,575.223615625873,0,0,549422.889425804,549423.936512304,3,0,0,11,9,10700009,96292907,40202238,33702518,10700009,0,0,0,0,0,0,0,0,21410109,-1081061,0,31500009,0,12001009,0,0,30300719,0,10100219,0,0,0,30102019,0,0,0,21701309,0,0,0,0,0,12001209,0,0
21,66,616.977636353113,0,0,549425.583607812,549426.630705861,3,1,0,25,19,144033475,133435684,56303707,145014865,40600309,20401119,41210919,0,30810009,0,0,0,11011119,10800209,0,0,40010419,0,10011809,40601309,10411919,21600019,21400509,22001519,0,0,11810509,0,-1091170,0,0,40401509,0,30311209,20600519,0,0,31700319,22001309,0
21,67,409.343167557381,1,0,549428.454290956,549429.501376301,3,1,1,16,31,267756421,229605534,156770203,229247302,41700819,41100019,11300809,20411509,30211219,40110409,10810709,41600809,30510119,40200619,21300309,41101109,11000419,31800819,41700509,-2090031,40411719,0,0,11311219,21111909,41901719,0,30610509,21211819,10311619,20311409,42010809,41311609,30401219,41611309,11400119,0,40510109,11602019,10400109
21,68,442.847859929316,0,1,549430.924947692,549431.972036887,3,0,1,19,31,187637802,198359112,158806045,286817321,21300609,30301309,21100109,0,10610919,21300809,31211819,10811109,41001119,41510119,0,20802009,21311409,21300019,10411609,40810909,32011119,10201919,-3151181,30711409,0,40401219,30610009,21610609,11310209,21011409,0,30201519,21400119,40000409,10200119,41401109,40811609,40801419,30700609,31300409
21,69,902.195982402191,1,0,549433.607388006,549434.654487209,3,0,1,36,31,236449292,207821942,213428302,177079644,20100209,10910109,30601719,41211909,30501709,31300509,40211309,0,31611819,31301219,0,30202019,41801819,10601919,41202009,10011219,21900719,20801019,0,40001209,30501109,20811319,10000809,21000109,40300019,30511719,20302009,10410219,31311909,40100009,11911009,0,40501909,21301909,20501519,-1041161
21,70,636.410850682296,1,0,549436.678058754,549437.725148334,3,0,1,25,0,0,0,0,0,0,0,0,0,0,0,0,0,0,0,0,0,0,0,0,0,0,0,0,0,0,0,0,0,-40501191,0,0,0,0,0,0,0,0,0,0,0
21,71,543.714426690713,1,0,549439.525201535,549440.572079906,3,0,1,32,3,0,51110328,0,42491649,0,0,0,0,0,0,0,0,0,0,0,20910009,0,0,0,0,0,30200319,0,0,0,0,0,0,0,0,0,0,0,0,0,-2090140,0,40401509,0,0
21,72,772.169643314555,1,0,549442.313521127,549443.360599927,3,0,1,1,3,3181201,0,21101909,71713028,-3181201,0,0,0,0,0,0,0,0,0,0,0,0,0,0,0,0,0,0,0,0,0,0,0,0,21101909,0,0,0,0,0,0,30611209,0,41101819,0
21,73,696.425879490562,0,0,549445.290075079,549446.337157345,3,0,0,21,19,113611266,114134866,126885756,125857894,0,40200519,0,11210119,0,0,31100209,31100419,0,0,40110909,0,0,11910619,0,0,40811919,21301419,21811819,21210619,-1040161,0,20500219,21211819,0,41111119,0,20310119,30112009,20711119,0,0,11110909,11601919,0,32011819
21,74,754.555369610898,0,0,549448.148983038,549449.196070692,3,0,0,18,19,105136565,86593228,226636393,121914566,0,20811919,0,21601509,0,31001019,0,10611209,21110909,0,0,21711519,0,21411309,41400209,0,0,-2070191,21300809,40300619,40101109,21111409,0,40900219,41411919,21510309,0,0,40101719,10810819,0,31001319,0,0,40000709,0
21,75,508.866354939528,1,0,549451.078478592,549452.125561243,3,1,1,2,3,2001101,11301719,0,73221618,0,-2001101,0,0,0,0,0,0,0,0,11301719,0,0,0,0,0,0,0,0,0,0,0,0,0,0,0,0,42011009,0,0,0,0,0,0,31210609,0
21,76,714.376994059421,1,0,549453.807961905,549454.855053795,3,1,1,35,3,0,20100419,41511018,1021030,0,0,0,0,0,0,0,0,0,0,0,0,0,20100419,0,0,0,0,10900609,0,0,0,0,0,30610409,0,0,0,0,0,0,0,0,0,-1021030,0
21,77,854.705658275634,0,0,549456.678653134,549457.72572231,3,0,0,22,31,198357403,245359392,229548282,198227812,0,21910219,40411209,31011219,0,30110419,21601209,11401719,41911409,40700419,30501909,0,30500509,40411609,20211019,40411209,20911509,21711209,31610209,10600509,30700809,-2001090,21511109,41601609,30310419,41001009,20211519,30900619,0,41810819,10700819,11800609,41610609,20001519,10701109,30701709
21,78,636.767324525863,0,0,549459.725791218,549460.772875409,3,1,0,29,9,72122757,91224737,21100009,33073348,31210519,0,0,0,0,0,20101619,20810619,0,0,0,0,0,0,0,40301609,20111119,30812009,0,21100009,0,0,0,0,0,0,0,11101109,-1161130,20811109,0,0,0,0,0,0
21,79,626.15857028868,0,0,549470.773164899,549471.820252169,4,1,0,25,19,144033475,133435684,56303707,145014865,40600309,20401119,41210919,0,30810009,0,0,0,11011119,10800209,0,0,40010419,0,10011809,40601309,10411919,21600019,21400509,22001519,0,0,11810509,0,-1091170,0,0,40401509,0,30311209,20600519,0,0,31700319,22001309,0
21,80,611.654396168888,0,0,549473.608562522,549474.655648252,4,1,0,4,31,162216493,151736722,245057813,176626002,20801909,11910209,10310209,-4161011,11100609,11310109,11610409,40000819,41011209,11711109,11110619,21300319,21501719,11910809,31401619,12000419,30800109,0,41912019,0,30411419,0,40000209,41411119,21111219,30200219,40011609,10200119,0,10700009,11710709,40200509,40601709,21401019,10411309,31400619
21,81,630.363883799873,1,0,549476.302742605,549477.349821021,4,0,1,11,3,0,2141180,42113028,21911709,0,0,0,0,0,0,0,0,0,0,-2141180,0,0,0,0,0,0,0,0,0,0,21701019,0,0,20412009,0,0,0,0,0,0,0,21911709,0,0,0
21,82,636.470519588329,1,0,549479.008697874,549480.055788608,4,1,1,2,3,2001101,11301719,0,73221618,0,-2001101,0,0,0,0,0,0,0,0,11301719,0,0,0,0,0,0,0,0,0,0,0,0,0,0,0,0,42011009,0,0,0,0,0,0,31210609,0
21,83,893.788435030729,1,0,549481.738193891,549482.785333515,4,1,1,35,3,0,20100419,41511018,1021030,0,0,0,0,0,0,0,0,0,0,0,0,0,20100419,0,0,0,0,10900609,0,0,0,0,0,30610409,0,0,0,0,0,0,0,0,0,-1021030,0
21,84,642.609877046198,1,0,549484.832447347,549485.879485727,4,0,1,32,31,199866802,267959782,249667732,190778394,11000309,40810509,11701019,0,11611609,30110009,40910909,22011219,31711219,42000309,11611409,40710209,41511609,40301809,31212009,0,20311509,40300919,41610709,31811109,41201019,20412019,20012019,31410619,21400219,41810019,0,20210519,21901809,21711309,41210509,-3120201,0,30611619,21001609,31010819
21,85,626.215544529259,0,0,549487.714834075,549488.761922884,4,1,0,12,3,21810109,1200080,0,51903418,0,0,0,0,0,0,0,0,21810109,0,0,-1200080,0,0,0,0,0,0,0,0,0,0,0,0,0,0,0,0,30901909,0,0,0,0,0,21001509,0
21,86,915.834379382432,0,0,549490.597275466,549491.644387374,4,0,0,18,19,72223227,65914037,168926784,176847413,0,20210809,0,10301209,0,0,0,41711209,0,0,0,10511309,41111919,10210709,0,0,0,-4080100,0,0,11901809,0,42000619,31500709,11901209,41312019,30310419,10610419,21301019,42010909,20412019,30311009,0,0,21101219,31100819
21,87,486.160972504877,1,0,549493.573830574,549494.620909759,4,1,1,3,9,93792738,63113347,52603728,30901619,0,31900109,-1191191,0,40100519,0,0,20600919,0,0,21411719,11701219,0,30000409,0,0,0,0,41202019,0,0,0,11401709,0,0,0,0,0,0,0,30901619,0,0,0,0,0
21,88,745.479529956356,0,0,549496.197437304,549497.244524959,4,0,0,33,9,93022637,63911628,51821618,52503148,0,0,20011919,0,31100009,41910709,0,0,0,21900019,0,0,0,0,0,0,42011609,0,40111209,0,0,0,0,0,11710409,0,0,0,0,0,0,31101009,-1191030,0,0,20211109
21,89,684.037065831944,1,0,549499.173994336,549500.221167067,4,0,1,21,19,105935285,144836875,135093336,64324956,0,21210519,11210019,21401619,40801219,11311909,0,0,0,31310519,20111319,41301909,31801719,0,0,0,20311409,0,0,40610419,-1171151,11700119,30611219,0,20600019,30400409,0,11112009,31100509,0,0,0,0,10300419,11812019,0
21,90,548.162784893066,1,0,549502.032901909,549503.07998302,4,1,1,30,0,0,0,0,0,0,0,0,0,0,0,0,0,0,0,0,0,0,0,0,0,0,0,0,0,0,0,0,0,0,0,0,0,0,-31810291,0,0,0,0,0,0
21,91,492.946679354645,1,0,549504.832977824,549505.880124378,4,0,1,2,0,0,0,0,0,0,-22010501,0,0,0,0,0,0,0,0,0,0,0,0,0,0,0,0,0,0,0,0,0,0,0,0,0,0,0,0,0,0,0,0,0,0
21,92,580.074123688973,1,0,549507.550709434,549508.597795549,4,1,1,16,31,267756421,229605534,156770203,229247302,41700819,41100019,11300809,20411509,30211219,40110409,10810709,41600809,30510119,40200619,21300309,41101109,11000419,31800819,41700509,-2090031,40411719,0,0,11311219,21111909,41901719,0,30610509,21211819,10311619,20311409,42010809,41311609,30401219,41611309,11400119,0,40510109,11602019,10400109
21,93,516.519763856195,0,0,549510.327256919,549511.374346498,4,1,0,9,19,115844556,133233275,135742365,116243775,30510219,31210319,0,0,41411419,0,10601519,0,-2111080,40900619,30200219,0,0,30010619,0,0,11210609,20911209,20311009,31710409,0,0,40910419,0,11010519,31800009,0,21310609,0,0,0,0,31410519,41310619,10210309,12001719
21,94,816.399732953869,1,0,549513.021452016,549514.068549294,4,0,1,1,3,2100081,30410509,10201819,21200309,-2100081,0,0,0,0,0,0,0,0,0,30410509,0,0,0,0,0,0,0,0,0,0,10201819,0,0,0,0,0,0,0,0,0,0,0,0,21200309,0
21,95,506.513088592328,0,0,549516.033308813,549517.080401857,4,1,0,28,31,271848311,216646383,169746202,170337863,21300709,31511619,40610209,32001209,21001509,21401619,21200209,41910319,40910909,20211509,41002009,41910109,0,20411319,0,41010309,31300219,20800909,21900509,11710409,21510309,10201919,11700319,31410209,0,20601809,40710719,-4100160,30100819,11211619,22000419,10610819,40301809,41900509,0,10111709
21,96,799.105361802503,0,0,549518.621621167,549519.668702663,4,0,0,36,19,143935175,155234684,116034475,64822197,0,0,30310809,40510819,40911309,0,11500719,20701519,0,10011809,0,11710209,0,21501219,40400419,0,30810909,40800119,0,0,40700809,20311019,0,31800109,11411719,11810819,0,0,0,11910909,0,0,20510909,0,31200209,-1200170
21,97,613.052959437482,1,0,549521.527421698,549522.574670559,4,0,1,19,31,176749592,176469002,209631312,166038913,20810509,40211709,0,11501309,20500509,21501919,41301909,10311309,10610419,10311019,20812009,0,20210319,40200209,31201609,11411919,21010909,21311009,-1190090,30001609,21600519,30110919,31211619,31500919,41501909,11711819,10801909,21001019,0,40002019,0,21011609,20311419,11700019,22011319,30001509
21,98,851.596328662708,0,0,549524.398253729,549525.445349083,4,1,0,8,9,12741859,20611019,92235336,61613457,0,0,0,0,10700809,0,0,-2041050,0,0,0,0,0,20611019,0,0,0,0,0,0,40912009,30310809,0,10400709,0,10611809,0,10211719,40701619,0,0,0,10700119,0,0,0
21,99,675.206831423566,0,0,549527.386581713,549528.433663978,4,0,0,24,31,219860891,134645664,206746924,278148741,20211119,12001309,40401009,11411609,10401609,31011109,31500709,41910609,21011809,0,41811809,0,40810609,10200209,10211919,11510509,20100609,0,10300909,0,30101809,12010009,40610809,-2090131,40111219,30510419,41011619,40400419,10001619,40900419,20811109,40411519,11800209,30910419,41611219,41301809
21,100,528.990574064665,0,0,549530.139602694,549531.186674565,4,0,0,27,9,72912337,31210918,93832877,42001509,41400009,0,0,0,0,10110709,0,0,21401619,0,10610509,0,20600409,0,0,0,0,0,30600719,0,0,20000209,0,40201819,0,0,-3030130,0,0,0,0,42001509,0,0,0,0
21,101,538.367838249542,0,0,549532.916149794,549533.963245533,4,1,0,29,9,72122757,91224737,21100009,33073348,31210519,0,0,0,0,0,20101619,20810619,0,0,0,0,0,0,0,40301609,20111119,30812009,0,21100009,0,0,0,0,0,0,0,11101109,-1161130,20811109,0,0,0,0,0,0
21,102,449.775232351385,1,0,549535.539853919,549536.586876516,4,1,1,10,19,133432585,88623506,123434575,72622375,30410419,0,40101019,31410619,0,0,11500319,0,20010209,-4090150,20501719,0,0,0,10710009,31511119,0,21810509,0,30901109,20001519,21210219,0,41010109,10311619,0,0,0,30310519,0,10910419,10300609,0,10000819,0,11100009
21,103,374.483797699213,0,0,549538.163367489,549539.210458223,4,0,0,22,3,41210909,0,23801800,41911619,0,0,0,0,0,41210909,0,0,0,0,0,0,0,0,0,0,0,0,0,0,0,-2190091,0,0,21611709,0,0,0,0,0,0,0,41911619,0,0,0
21,104,661.475273780525,1,0,549540.681091476,549541.728177976,4,0,1,13,9,71822238,4200091,144333246,94911147,0,41510619,0,0,0,0,30311619,0,0,0,0,0,-4200091,0,0,0,0,0,0,40810909,0,41210619,20400509,0,0,41911209,0,0,42010109,31400919,0,21500119,0,0,0,0
21,105,577.065653749742,0,0,549547.5165761,549548.563694552,5,1,0,28,31,271848311,216646383,169746202,170337863,21300709,31511619,40610209,32001209,21001509,21401619,21200209,41910319,40910909,20211509,41002009,41910109,0,20411319,0,41010309,31300219,20800909,21900509,11710409,21510309,10201919,11700319,31410209,0,20601809,40710719,-4100160,30100819,11211619,22000419,10610819,40301809,41900509,0,10111709
21,106,473.424923955463,0,0,549550.293133594,549551.3402174,5,0,0,36,9,10511009,132515546,60412828,26510589,0,0,10511009,0,0,0,0,0,0,40401709,0,30001809,0,21710809,0,40401219,0,0,0,0,0,0,40101609,0,0,20311219,0,0,0,0,0,11410219,0,12000309,0,-3100061
21,107,669.760018703528,0,0,549552.857914825,549553.905005174,5,0,0,1,19,83963226,177439193,156716765,82415247,-1140170,11310309,30400619,0,10800119,30312009,0,0,0,30002009,31400709,0,21001519,0,21510909,11011509,21411919,41100619,21611709,31100409,41601719,41000919,0,0,21402009,0,0,10302019,40511619,0,0,0,0,0,31601609,0
21,108,584.437271230854,0,0,549555.610935421,549556.658025386,5,0,0,22,19,82912647,95725685,77357066,176326393,20500719,0,41610409,20801519,0,0,0,0,0,0,21210619,0,10500919,0,40800519,11711809,0,11501819,30110319,0,10901709,-4131100,0,21011919,0,11202019,0,11401109,31801209,20111109,0,20200019,42000719,40500809,0,10311419
21,109,664.590378059074,0,0,549558.422815778,549559.469875716,5,0,0,18,31,190439102,128587913,228378451,225646213,10000609,11211019,30711309,0,21411219,21701109,32001609,41401619,22000609,11001209,11410219,40201509,11800019,0,20600619,21901709,10501509,-1171120,11310919,40410719,41212009,11711919,31212019,30110019,10010519,21400319,31000009,0,41210819,30310909,40111519,30100309,0,20701519,31901019,31310119
21,110,570.952088804916,1,0,549561.140513896,549562.187598087,5,1,1,2,3,2001101,11301719,0,73221618,0,-2001101,0,0,0,0,0,0,0,0,11301719,0,0,0,0,0,0,0,0,0,0,0,0,0,0,0,0,42011009,0,0,0,0,0,0,31210609,0
21,111,673.936075298116,1,0,549563.846540768,549564.893566829,5,1,1,4,31,162216493,151736722,245057813,176626002,20801909,11910209,10310209,-4161011,11100609,11310109,11610409,40000819,41011209,11711109,11110619,21300319,21501719,11910809,31401619,12000419,30800109,0,41912019,0,30411419,0,40000209,41411119,21111219,30200219,40011609,10200119,0,10700009,11710709,40200509,40601709,21401019,10411309,31400619
21,112,565.320494933985,0,0,549566.681851004,549567.728937504,5,0,0,11,0,0,0,0,0,0,0,0,0,0,0,0,0,0,0,-21911201,0,0,0,0,0,0,0,0,0,0,0,0,0,0,0,0,0,0,0,0,0,0,0,0,0
21,113,421.253474778496,1,0,549569.328986548,549570.376071893,5,0,1,21,31,218136883,228040612,199837293,148927532,31900209,21410509,30310309,0,40801709,0,42010519,11302019,40401609,40301809,41611609,30102019,21400119,10711119,40301809,31911919,11700209,0,30701609,40010509,-2201191,10800319,21900809,20701019,11201019,21010709,41310109,10001319,31500819,10800519,12010409,0,11601509,20411119,31800019,20801819
21,114,475.636139744893,1,0,549571.893765469,549572.940857359,5,0,1,27,19,154734993,125004185,108195737,72123347,10410419,40010519,11400809,0,10101709,0,40500309,21811009,20500219,10601819,41300219,31200719,0,20800609,0,21100819,0,0,0,10701109,0,0,32011519,21011309,40300719,0,-4171081,10810919,0,20611719,0,40700709,0,0,0,0
21,115,627.434149500914,1,0,549574.482072819,549575.52896933,5,1,1,12,3,21810109,1200080,0,51903418,0,0,0,0,0,0,0,0,21810109,0,0,-1200080,0,0,0,0,0,0,0,0,0,0,0,0,0,0,0,0,30901909,0,0,0,0,0,21001509,0
21,116,509.345631347969,0,0,549577.246863596,549578.293949327,5,1,0,9,19,115844556,133233275,135742365,116243775,30510219,31210319,0,0,41411419,0,10601519,0,-2111080,40900619,30200219,0,0,30010619,0,0,11210609,20911209,20311009,31710409,0,0,40910419,0,11010519,31800009,0,21310609,0,0,0,0,31410519,41310619,10210309,12001719
21,117,627.034741453826,0,0,549579.929364734,549580.976384636,5,1,0,8,9,12741859,20611019,92235336,61613457,0,0,0,0,10700809,0,0,-2041050,0,0,0,0,0,20611019,0,0,0,0,0,0,40912009,30310809,0,10400709,0,10611809,0,10211719,40701619,0,0,0,10700119,0,0,0
21,118,579.25569685176,1,0,549582.6468215,549583.694115476,5,1,1,10,19,133432585,88623506,123434575,72622375,30410419,0,40101019,31410619,0,0,11500319,0,20010209,-4090150,20501719,0,0,0,10710009,31511119,0,21810509,0,30901109,20001519,21210219,0,41010109,10311619,0,0,0,30310519,0,10910419,10300609,0,10000819,0,11100009
21,119,561.109791975468,1,0,549585.400044952,549586.447133377,5,1,1,29,9,72122757,91224737,21100009,33073348,31210519,0,0,0,0,0,20101619,20810619,0,0,0,0,0,0,0,40301609,20111119,30812009,0,21100009,0,0,0,0,0,0,0,11101109,-1161130,20811109,0,0,0,0,0,0
21,120,438.348436146043,1,0,549588.117772328,549589.164855748,5,1,1,16,31,267756421,229605534,156770203,229247302,41700819,41100019,11300809,20411509,30211219,40110409,10810709,41600809,30510119,40200619,21300309,41101109,11000419,31800819,41700509,-2090031,40411719,0,0,11311219,21111909,41901719,0,30610509,21211819,10311619,20311409,42010809,41311609,30401219,41611309,11400119,0,40510109,11602019,10400109
21,121,524.872646667063,1,0,549590.694322585,549591.74140793,5,0,1,19,3,0,0,23881510,72912238,0,0,0,0,0,0,0,0,0,0,0,0,0,0,0,0,0,0,-3180201,20701309,0,0,0,0,0,0,0,0,0,0,0,0,31910719,0,41001519,0
21,122,428.806023905054,1,0,549593.294398191,549594.341478147,5,0,1,33,31,197038022,206836723,238739932,251626783,21800219,31802019,21201809,0,40110909,20401219,20100119,11011019,30610709,10401919,20900019,40310319,30501119,0,21911819,41000019,0,41811509,40101319,31201319,31800309,41600019,21701719,30212019,20811919,0,21311309,40810919,41310019,32011019,41610609,10011709,-4070161,30401019,10800519,40600809
21,123,476.951551507227,0,0,549595.965057929,549597.012147124,5,1,0,30,0,0,0,0,0,0,0,0,0,0,0,0,0,0,0,0,0,0,0,0,0,0,0,0,0,0,0,0,0,0,0,0,0,0,-31810291,0,0,0,0,0,0
21,124,575.496937846765,1,0,549598.600430606,549599.647519031,5,0,1,32,9,21210618,73611727,93011347,32181349,10800409,0,0,0,0,0,0,10410209,0,0,20500409,0,31910409,0,0,0,21200909,0,41710419,41300509,10000419,0,0,0,0,0,0,0,0,0,0,-1181130,31000219,0,0,0
21,125,522.236819029786,0,0,549601.341692955,549602.388775605,5,1,0,3,9,93792738,63113347,52603728,30901619,0,31900109,-1191191,0,40100519,0,0,20600919,0,0,21411719,11701219,0,30000409,0,0,0,0,41202019,0,0,0,11401709,0,0,0,0,0,0,0,30901619,0,0,0,0,0
21,126,569.234393071383,1,0,549603.953526809,549605.000621393,5,1,1,25,19,144033475,133435684,56303707,145014865,40600309,20401119,41210919,0,30810009,0,0,0,11011119,10800209,0,0,40010419,0,10011809,40601309,10411919,21600019,21400509,22001519,0,0,11810509,0,-1091170,0,0,40401509,0,30311209,20600519,0,0,31700319,22001309,0
21,127,423.929338459857,0,0,549606.74184948,549607.78893675,5,0,0,11,3,30900419,23641240,0,10000419,0,0,0,0,0,0,30900419,0,0,0,-2041131,21600109,0,0,0,0,0,0,0,0,0,0,0,0,0,0,0,0,0,0,0,0,10000419,0,0,0
21,128,659.244425129145,1,0,549609.400748276,549610.447835931,5,1,1,35,3,0,20100419,41511018,1021030,0,0,0,0,0,0,0,0,0,0,0,0,0,20100419,0,0,0,0,10900609,0,0,0,0,0,30610409,0,0,0,0,0,0,0,0,0,-1021030,0
21,129,488.44379093498,0,0,549612.165540208,549613.212630943,5,0,0,24,3,61502128,0,4071201,30200609,0,0,0,20801909,0,0,0,0,40700219,0,0,0,0,0,0,0,0,0,0,0,0,0,0,-4071201,0,0,0,0,30200609,0,0,0,0,0,0,0
21,130,529.074110672809,0,0,549614.859732226,549615.906811796,5,0,0,13,9,0,42870610,61614227,143915975,0,0,0,0,0,0,0,0,0,0,0,0,-1170001,0,41700609,0,0,0,11101209,0,0,0,0,10501809,0,40011209,0,0,21010619,0,40500509,0,21701819,0,30701009,30002019
21,131,441.411185543984,0,0,549624.448247839,549625.495336264,6,1,0,10,19,133432585,88623506,123434575,72622375,30410419,0,40101019,31410619,0,0,11500319,0,20010209,-4090150,20501719,0,0,0,10710009,31511119,0,21810509,0,30901109,20001519,21210219,0,41010109,10311619,0,0,0,30310519,0,10910419,10300609,0,10000819,0,11100009
21,132,507.049339124933,0,0,549627.036565198,549628.083648233,6,1,0,35,3,0,20100419,41511018,1021030,0,0,0,0,0,0,0,0,0,0,0,0,0,20100419,0,0,0,0,10900609,0,0,0,0,0,30610409,0,0,0,0,0,0,0,0,0,-1021030,0
21,133,649.685844429769,1,0,549629.718992038,549630.766083542,6,1,1,25,19,144033475,133435684,56303707,145014865,40600309,20401119,41210919,0,30810009,0,0,0,11011119,10800209,0,0,40010419,0,10011809,40601309,10411919,21600019,21400509,22001519,0,0,11810509,0,-1091170,0,0,40401509,0,30311209,20600519,0,0,31700319,22001309,0
21,134,557.124291080981,1,0,549632.601418416,549633.648514925,6,1,1,30,0,0,0,0,0,0,0,0,0,0,0,0,0,0,0,0,0,0,0,0,0,0,0,0,0,0,0,0,0,0,0,0,0,0,-31810291,0,0,0,0,0,0
21,135,415.354333003052,0,0,549635.319158495,549636.36624692,6,1,0,8,9,12741859,20611019,92235336,61613457,0,0,0,0,10700809,0,0,-2041050,0,0,0,0,0,20611019,0,0,0,0,0,0,40912009,30310809,0,10400709,0,10611809,0,10211719,40701619,0,0,0,10700119,0,0,0
21,136,633.018959662877,1,0,549637.895703363,549638.942799872,6,1,1,4,31,162216493,151736722,245057813,176626002,20801909,11910209,10310209,-4161011,11100609,11310109,11610409,40000819,41011209,11711109,11110619,21300319,21501719,11910809,31401619,12000419,30800109,0,41912019,0,30411419,0,40000209,41411119,21111219,30200219,40011609,10200119,0,10700009,11710709,40200509,40601709,21401019,10411309,31400619
21,137,454.614576534368,1,0,549640.589906159,549641.636989964,6,0,1,21,19,104422666,102134456,147884084,194037265,11910309,30600619,31310719,0,0,0,30601019,0,0,0,0,0,20110309,0,20611119,0,20801209,40611819,11500109,10800909,-1051010,22010619,30910009,0,40210909,31400519,0,40211109,41611809,31201419,0,40412019,0,0,0,40600909
21,138,595.144960447215,0,0,549643.213504804,549644.260590919,6,1,0,2,3,2001101,11301719,0,73221618,0,-2001101,0,0,0,0,0,0,0,0,11301719,0,0,0,0,0,0,0,0,0,0,0,0,0,0,0,0,42011009,0,0,0,0,0,0,31210609,0
21,139,526.900236145593,0,0,549646.001854038,549647.048912051,6,0,0,9,0,0,0,0,0,0,0,0,0,0,0,0,0,-40202001,0,0,0,0,0,0,0,0,0,0,0,0,0,0,0,0,0,0,0,0,0,0,0,0,0,0,0
21,140,603.824675199576,0,0,549648.707789674,549649.75486963,6,1,0,12,3,21810109,1200080,0,51903418,0,0,0,0,0,0,0,0,21810109,0,0,-1200080,0,0,0,0,0,0,0,0,0,0,0,0,0,0,0,0,30901909,0,0,0,0,0,21001509,0
21,141,627.04051588662,1,0,549651.472574677,549652.519660022,6,0,1,24,3,41601509,20102019,13950869,0,0,41601509,0,0,0,0,0,0,0,0,0,0,0,0,20102019,0,0,0,11900719,0,0,0,0,-2050150,0,0,0,0,0,0,0,0,0,0,0,0
21,142,478.689265204594,1,0,549654.307949972,549655.355033777,6,1,1,29,9,72122757,91224737,21100009,33073348,31210519,0,0,0,0,0,20101619,20810619,0,0,0,0,0,0,0,40301609,20111119,30812009,0,21100009,0,0,0,0,0,0,0,11101109,-1161130,20811109,0,0,0,0,0,0
21,143,893.616357469,1,0,549656.872734667,549657.919818857,6,0,1,1,19,114383366,133825774,195042784,82512027,-1170010,40300109,0,0,0,20800019,21011819,0,31101409,11000509,21200809,30010709,11101109,20411019,40101619,0,0,0,0,40400619,41210009,0,30411319,20400609,31910119,0,30710109,41510709,0,0,10100409,0,0,0,0,30900909
21,144,397.438249900006,1,0,549659.919875061,549660.96697234,6,0,1,11,31,116416204,203966633,166439522,277117921,11710119,20801209,0,30501519,0,11201619,0,31601519,10600219,41100319,-4120001,31610119,21410009,21700809,11700619,30811219,21201919,20311619,31311919,10101909,20100209,30410209,12001419,0,21801319,20311919,20400619,31901909,21400719,40700009,20301509,30100609,30311419,40300619,30401119,31700009
21,145,560.02689676825,1,0,549662.555264677,549663.602340783,6,0,1,32,31,198048502,168258622,287517612,176196894,20100719,31100109,0,20011319,40701309,11200809,21910909,31111309,21912019,30510509,41300419,0,10601509,11301619,20611209,11011319,21211919,21710119,41601109,40300309,0,40810219,11101819,40701419,40200019,40800809,32001909,30611419,41910509,0,10510319,-2030181,30010619,10511919,20611209,30000719
21,146,480.233343667351,1,0,549665.308275649,549666.355357144,6,1,1,3,9,93792738,63113347,52603728,30901619,0,31900109,-1191191,0,40100519,0,0,20600919,0,0,21411719,11701219,0,30000409,0,0,0,0,41202019,0,0,0,11401709,0,0,0,0,0,0,0,30901619,0,0,0,0,0
21,147,501.870844396763,0,0,549667.896637663,549668.943673733,6,1,0,28,31,271848311,216646383,169746202,170337863,21300709,31511619,40610209,32001209,21001509,21401619,21200209,41910319,40910909,20211509,41002009,41910109,0,20411319,0,41010309,31300219,20800909,21900509,11710409,21510309,10201919,11700319,31410209,0,20601809,40710719,-4100160,30100819,11211619,22000419,10610819,40301809,41900509,0,10111709
21,148,507.451238459907,1,0,549670.543727012,549671.590818516,6,0,1,13,19,166836374,54683879,135905775,174744994,42010919,0,0,20500909,0,21310509,30611809,20701619,31700609,0,0,21510719,-2071151,0,0,0,31102009,0,0,30000819,0,31000309,11600809,0,31601919,0,31701919,20011719,41600509,40900819,0,20810009,21311119,0,0,30110819
21,149,760.571154532954,1,1,549673.190857551,549674.237951365,6,0,0,36,9,81811647,73615746,0,42583448,30801019,0,10500009,0,0,40510619,0,0,0,30301809,20400509,0,11711419,0,0,11202009,0,0,0,0,0,0,0,0,0,0,0,0,0,11401209,0,0,0,0,30001109,-1181130
21,150,803.884652093984,0,0,549676.061531456,549677.108621036,6,0,0,19,31,229748501,106115155,179640273,237160431,30510619,21201509,41000809,12000909,41411809,30700719,30400609,12011009,10510509,0,0,0,10701009,31501809,11600519,0,31910009,20401809,-4201141,30810509,10000719,40311209,11501019,21101619,10000419,10501919,41211719,20711819,20301409,40400809,21301609,11400819,41610819,10710519,40310719,30411909
21,151,592.890244093724,1,0,549678.979269148,549680.026350644,6,0,1,18,3,0,1161021,51601228,11600919,0,0,0,0,0,0,0,0,0,0,0,0,0,0,0,0,0,-1161021,0,41301009,0,0,10300219,0,0,0,0,0,0,0,0,0,0,0,11600919,0
21,152,467.107329634018,1,0,549681.696997678,549682.744079174,6,0,1,27,9,63611628,60922318,65885038,32511428,0,0,0,0,21911009,41700619,0,0,0,0,0,0,40711309,0,20211009,0,0,0,0,20011119,0,30912019,0,0,0,11810709,-3151191,21200019,0,0,0,11311409,0,0,0,0
21,153,494.854545919225,0,0,549684.332362656,549685.379450311,6,0,0,33,9,31813218,43203857,74833837,44961739,0,0,0,20412009,0,0,0,11401209,0,0,21501819,0,0,11000419,10701619,0,0,0,41710309,0,0,0,21111609,0,0,12011919,0,41900719,0,0,0,0,-3061020,0,0,0
21,154,575.481154490262,0,0,549687.026555058,549688.073651182,6,1,0,16,31,267756421,229605534,156770203,229247302,41700819,41100019,11300809,20411509,30211219,40110409,10810709,41600809,30510119,40200619,21300309,41101109,11000419,31800819,41700509,-2090031,40411719,0,0,11311219,21111909,41901719,0,30610509,21211819,10311619,20311409,42010809,41311609,30401219,41611309,11400119,0,40510109,11602019,10400109
21,155,526.025989791378,0,0,549689.850177494,549690.897286322,6,1,0,9,19,115844556,133233275,135742365,116243775,30510219,31210319,0,0,41411419,0,10601519,0,-2111080,40900619,30200219,0,0,30010619,0,0,11210609,20911209,20311009,31710409,0,0,40910419,0,11010519,31800009,0,21310609,0,0,0,0,31410519,41310619,10210309,12001719
21,156,528.876240714453,0,0,549692.556273274,549693.603268923,6,0,0,22,3,30111519,0,24750210,11411209,0,0,0,0,30111519,0,0,0,0,0,0,0,0,0,0,0,0,0,0,0,0,-4050001,0,20700209,0,0,0,0,0,0,0,0,0,11411209,0,0
21,157,403.484446695074,1,0,549701.94464114,549702.991733029,7,0,1,18,31,155238902,177421942,207930922,239545303,11010109,0,10211209,10011919,41401209,10701809,11100819,30500209,30301619,31702019,20012009,40611419,10301619,31700219,20001509,11401119,10602019,-1090010,31801919,41711309,30102019,11211009,11101619,30501819,10701019,40800209,0,11101619,41311519,40701019,0,0,41510709,41810009,31910019,31200409
21,158,512.1658553835,0,0,549704.591824419,549705.638872423,7,0,0,11,3,41402019,32600389,0,40211609,0,0,0,0,41402019,0,0,0,0,0,-2200180,0,30400209,0,0,0,0,0,0,0,0,0,0,0,0,0,0,0,0,0,0,0,0,0,40211609,0
21,159,710.757591179572,1,0,549707.16833695,549708.215408051,7,0,1,19,31,177038621,190957761,219125813,87457684,21000319,31711719,30510009,40811009,10901009,10700319,10100909,10501819,10801509,10200409,31710419,41212019,30110419,21200219,21811519,10900419,12011819,11800519,-2171010,41310209,0,41110419,20111309,41810119,20101019,21301509,31210219,0,0,0,11111209,11211719,12011619,11011819,12000009,30111309
21,160,594.08208320383,1,0,549710.003707625,549711.0507922,7,0,1,33,19,116059114,125743465,165444165,106292798,0,40111119,0,11111419,20511519,21711619,11401519,11211919,0,0,11500409,41511919,0,30410109,0,11610119,0,30710909,0,0,20411419,30301509,41110009,41710709,0,31910519,0,31400719,0,31610819,41110219,0,-2171041,0,0,0
21,161,843.442470650189,0,0,549712.768494168,549713.815582978,7,1,0,10,19,133432585,88623506,123434575,72622375,30410419,0,40101019,31410619,0,0,11500319,0,20010209,-4090150,20501719,0,0,0,10710009,31511119,0,21810509,0,30901109,20001519,21210219,0,41010109,10311619,0,0,0,30310519,0,10910419,10300609,0,10000819,0,11100009
21,162,499.584946082905,0,0,549715.780396006,549716.82744093,7,0,0,21,3,0,52911428,33471130,0,0,0,0,0,0,0,0,0,0,0,0,21611319,0,0,0,0,0,31300109,0,0,-2061111,31410019,0,0,0,0,0,0,0,0,0,0,0,0,0,0
21,163,445.484842406586,0,0,549718.392190594,549719.439277094,7,1,0,9,19,115844556,133233275,135742365,116243775,30510219,31210319,0,0,41411419,0,10601519,0,-2111080,40900619,30200219,0,0,30010619,0,0,11210609,20911209,20311009,31710409,0,0,40910419,0,11010519,31800009,0,21310609,0,0,0,0,31410519,41310619,10210309,12001719
21,164,493.994158110581,1,0,549720.909976175,549721.957004931,7,1,1,2,3,2001101,11301719,0,73221618,0,-2001101,0,0,0,0,0,0,0,0,11301719,0,0,0,0,0,0,0,0,0,0,0,0,0,0,0,0,42011009,0,0,0,0,0,0,31210609,0
21,165,561.251457547769,1,0,549723.639405979,549724.686496328,7,0,1,13,31,154825703,179120133,247758641,226458483,20800719,30600419,0,0,20300809,21011419,10310309,31400819,20401209,11101919,10210219,11901819,-2180201,21400219,30011419,40101609,31611719,20601009,11200809,31810319,30701719,30201319,21110419,10510509,30811719,40701209,40710619,0,40511919,40311709,41301019,0,41211709,31010509,20911409,11200209
21,166,470.620098523796,1,0,549726.310067642,549727.357154912,7,1,1,3,9,93792738,63113347,52603728,30901619,0,31900109,-1191191,0,40100519,0,0,20600919,0,0,21411719,11701219,0,30000409,0,0,0,0,41202019,0,0,0,11401709,0,0,0,0,0,0,0,30901619,0,0,0,0,0
21,167,526.750486227684,0,0,549728.968987226,549730.016049088,7,1,0,30,0,0,0,0,0,0,0,0,0,0,0,0,0,0,0,0,0,0,0,0,0,0,0,0,0,0,0,0,0,0,0,0,0,0,-31810291,0,0,0,0,0,0
21,168,331.711555249058,0,0,549731.67494365,549732.722025145,7,0,0,4,0,0,0,0,0,0,0,0,-42000101,0,0,0,0,0,0,0,0,0,0,0,0,0,0,0,0,0,0,0,0,0,0,0,0,0,0,0,0,0,0,0,0
21,169,355.803566984832,1,0,549734.086838405,549735.133853687,7,0,1,27,3,31911319,40701119,21201590,0,0,0,31911319,0,0,0,0,0,0,0,40701119,0,0,0,0,0,0,0,0,0,20110419,0,0,0,0,0,-1091171,0,0,0,0,0,0,0,0,0
21,170,93.0665561463684,1,1,549736.592717913,549737.639827896,7,0,0,22,9,53022428,82313218,4170031,137133775,0,0,0,41111419,0,0,11911009,0,0,0,0,41701209,0,40612009,0,0,0,0,0,0,0,-4170031,0,0,0,0,0,30900919,21701319,31210609,0,0,11510219,0,41810709,0
21,171,562.529527931474,0,0,549738.769256006,549739.81635136,7,1,0,12,3,21810109,1200080,0,51903418,0,0,0,0,0,0,0,0,21810109,0,0,-1200080,0,0,0,0,0,0,0,0,0,0,0,0,0,0,0,0,30901909,0,0,0,0,0,21001509,0
21,172,476.608936092816,1,0,549741.48699416,549742.53407835,7,1,1,29,9,72122757,91224737,21100009,33073348,31210519,0,0,0,0,0,20101619,20810619,0,0,0,0,0,0,0,40301609,20111119,30812009,0,21100009,0,0,0,0,0,0,0,11101109,-1161130,20811109,0,0,0,0,0,0
21,173,659.811857505701,0,0,549744.11059627,549745.15768354,7,0,0,1,9,23162240,53213147,50012838,94712337,-2161131,0,0,0,0,0,21001109,0,0,31500719,0,0,11601019,0,0,10111409,0,0,0,0,40001319,10011519,0,0,0,0,0,0,12000219,41610609,0,0,0,41101509,0,0
21,174,593.819154892117,0,0,549746.863615712,549747.910713375,7,1,0,35,3,0,20100419,41511018,1021030,0,0,0,0,0,0,0,0,0,0,0,0,0,20100419,0,0,0,0,10900609,0,0,0,0,0,30610409,0,0,0,0,0,0,0,0,0,-1021030,0
21,175,770.312976674177,0,0,549749.534318951,549750.581372344,7,0,0,24,19,122623656,101125556,116217934,67117075,0,20310809,30402019,0,0,0,40510019,0,31400809,40211909,0,20510909,0,0,10201219,0,30201519,0,0,0,21301509,20110109,21401819,-1081050,11201619,11110719,30011109,11811819,0,20700709,0,11601809,0,0,11901019,11101719
21,176,442.006720113568,1,0,549752.522614213,549753.569697248,7,1,1,28,31,271848311,216646383,169746202,170337863,21300709,31511619,40610209,32001209,21001509,21401619,21200209,41910319,40910909,20211509,41002009,41910109,0,20411319,0,41010309,31300219,20800909,21900509,11710409,21510309,10201919,11700319,31410209,0,20601809,40710719,-4100160,30100819,11211619,22000419,10610819,40301809,41900509,0,10111709
21,177,884.528584079817,1,0,549755.016800532,549756.063888957,7,1,1,4,31,162216493,151736722,245057813,176626002,20801909,11910209,10310209,-4161011,11100609,11310109,11610409,40000819,41011209,11711109,11110619,21300319,21501719,11910809,31401619,12000419,30800109,0,41912019,0,30411419,0,40000209,41411119,21111219,30200219,40011609,10200119,0,10700009,11710709,40200509,40601709,21401019,10411309,31400619
21,178,579.11364606116,1,0,549758.087478595,549759.134563555,7,0,1,32,19,205134474,114537474,127024085,63842508,0,20311009,30810309,41000509,41501019,0,40200609,0,31311019,21201109,0,11711109,10312009,0,0,30501009,30211019,10601219,0,0,11210519,0,42000419,11200909,0,21111319,41500919,0,40601909,0,0,-2140180,0,21100419,0,0
21,179,181.569081149064,1,1,549760.875790102,549761.922885456,7,1,0,8,9,12741859,20611019,92235336,61613457,0,0,0,0,10700809,0,0,-2041050,0,0,0,0,0,20611019,0,0,0,0,0,0,40912009,30310809,0,10400709,0,10611809,0,10211719,40701619,0,0,0,10700119,0,0,0
21,180,497.523480211385,1,1,549763.275873485,549764.32295036,7,0,0,36,9,41110019,62313147,103924237,23841469,0,0,0,0,0,41110019,0,0,0,0,0,0,11300919,0,0,0,20200709,30811519,0,41911309,20801819,0,0,0,0,0,41211109,0,0,0,0,0,10700419,0,11010909,-2130141
21,181,423.318790271878,1,0,549765.875947551,549766.923033666,7,1,1,16,31,267756421,229605534,156770203,229247302,41700819,41100019,11300809,20411509,30211219,40110409,10810709,41600809,30510119,40200619,21300309,41101109,11000419,31800819,41700509,-2090031,40411719,0,0,11311219,21111909,41901719,0,30610509,21211819,10311619,20311409,42010809,41311609,30401219,41611309,11400119,0,40510109,11602019,10400109
21,182,930.566065362655,1,0,549768.534850197,549769.581937082,7,1,1,25,19,144033475,133435684,56303707,145014865,40600309,20401119,41210919,0,30810009,0,0,0,11011119,10800209,0,0,40010419,0,10011809,40601309,10411919,21600019,21400509,22001519,0,0,11810509,0,-1091170,0,0,40401509,0,30311209,20600519,0,0,31700319,22001309,0
21,183,635.291769052856,0,0,549775.440932811,549776.488016616,8,1,0,8,9,12741859,20611019,92235336,61613457,0,0,0,0,10700809,0,0,-2041050,0,0,0,0,0,20611019,0,0,0,0,0,0,40912009,30310809,0,10400709,0,10611809,0,10211719,40701619,0,0,0,10700119,0,0,0
21,184,586.240043514408,1,0,549778.24101219,549779.28810177,8,1,1,4,31,162216493,151736722,245057813,176626002,20801909,11910209,10310209,-4161011,11100609,11310109,11610409,40000819,41011209,11711109,11110619,21300319,21501719,11910809,31401619,12000419,30800109,0,41912019,0,30411419,0,40000209,41411119,21111219,30200219,40011609,10200119,0,10700009,11710709,40200509,40601709,21401019,10411309,31400619
21,185,587.739851442166,0,0,549781.064633086,549782.111717662,8,0,0,22,9,40302018,103833637,76052269,42701428,0,0,0,10200609,0,30101409,0,0,0,0,0,0,0,31511809,30510719,0,0,41811109,40000619,0,0,-4050141,0,32001509,0,0,0,0,0,0,0,11901019,30800409,0,0,0
21,186,543.049733387306,1,0,549783.747065701,549784.794148351,8,1,1,29,9,72122757,91224737,21100009,33073348,31210519,0,0,0,0,0,20101619,20810619,0,0,0,0,0,0,0,40301609,20111119,30812009,0,21100009,0,0,0,0,0,0,0,11101109,-1161130,20811109,0,0,0,0,0,0
21,187,562.154575949535,0,0,549786.358901095,549787.40598259,8,1,0,35,3,0,20100419,41511018,1021030,0,0,0,0,0,0,0,0,0,0,0,0,0,20100419,0,0,0,0,10900609,0,0,0,0,0,30610409,0,0,0,0,0,0,0,0,0,-1021030,0
21,188,445.748155820183,1,0,549789.1354532,549790.182542394,8,1,1,30,0,0,0,0,0,0,0,0,0,0,0,0,0,0,0,0,0,0,0,0,0,0,0,0,0,0,0,0,0,0,0,0,0,0,-31810291,0,0,0,0,0,0
21,189,553.237725282088,1,0,549791.676709081,549792.723791731,8,0,1,21,19,41211219,215636684,88394036,217435212,0,0,0,41211219,0,0,0,0,0,40300319,41611319,0,31311319,0,30411709,0,41000209,31001809,21211509,20301409,-3160000,0,0,0,21810609,21910509,0,40401209,31410309,20610009,31400009,31310919,41101219,0,10000919,11200619
21,190,768.641861039214,0,0,549794.441516027,549795.488607531,8,0,0,1,9,84443218,72121918,72312737,21611819,-1021081,0,31200709,20411319,0,0,31810109,0,0,0,0,0,0,0,0,0,30411809,41710109,30600509,0,0,0,0,21101209,0,20611019,0,0,0,0,0,0,0,0,0,21611819
21,191,674.533149693161,0,0,549797.288639945,549798.335723365,8,1,0,25,19,144033475,133435684,56303707,145014865,40600309,20401119,41210919,0,30810009,0,0,0,11011119,10800209,0,0,40010419,0,10011809,40601309,10411919,21600019,21400509,22001519,0,0,11810509,0,-1091170,0,0,40401509,0,30311209,20600519,0,0,31700319,22001309,0
21,192,530.821448424831,0,0,549800.159306921,549801.206396885,8,1,0,12,3,21810109,1200080,0,51903418,0,0,0,0,0,0,0,0,21810109,0,0,-1200080,0,0,0,0,0,0,0,0,0,0,0,0,0,0,0,0,30901909,0,0,0,0,0,21001509,0
21,193,335.760959540494,0,0,549802.924161602,549803.971178809,8,0,0,27,0,0,0,0,0,0,0,0,0,0,0,0,0,0,0,0,0,0,0,0,0,0,0,0,0,0,0,0,0,0,0,-40111691,0,0,0,0,0,0,0,0,0
21,194,454.904837184586,1,0,549805.37122485,549806.418317509,8,1,1,28,31,271848311,216646383,169746202,170337863,21300709,31511619,40610209,32001209,21001509,21401619,21200209,41910319,40910909,20211509,41002009,41910109,0,20411319,0,41010309,31300219,20800909,21900509,11710409,21510309,10201919,11700319,31410209,0,20601809,40710719,-4100160,30100819,11211619,22000419,10610819,40301809,41900509,0,10111709
21,195,879.062908352353,0,0,549807.947776262,549808.994854678,8,0,0,36,31,217748812,157339422,238366931,200214685,0,11901609,12000419,30510319,40311309,20701509,21010409,40201919,41111319,11102019,10701019,10811809,40200819,31501719,0,11110709,21010809,20900519,41610709,10710619,31310109,40510019,10301909,40801719,30811019,11300619,21010209,41201719,0,40910409,41001109,10010909,41000209,0,21900209,-4190121
21,196,540.506681310944,1,0,549811.065518882,549812.112603457,8,0,1,13,19,144935075,156889084,41801138,146446375,22001909,0,20711219,0,31610019,30310419,0,0,40301509,10301919,11101419,11110609,-1150181,41810919,0,30312009,21000819,30101209,0,30900319,0,0,0,0,10900819,0,0,21400319,31411719,0,30211619,41911009,21511709,0,0,0
21,197,428.370248060673,1,0,549813.724413828,549814.771498018,8,1,1,16,31,267756421,229605534,156770203,229247302,41700819,41100019,11300809,20411509,30211219,40110409,10810709,41600809,30510119,40200619,21300309,41101109,11000419,31800819,41700509,-2090031,40411719,0,0,11311219,21111909,41901719,0,30610509,21211819,10311619,20311409,42010809,41311609,30401219,41611309,11400119,0,40510109,11602019,10400109
21,198,689.232498989441,0,0,549816.324487895,549817.371584019,8,0,0,33,31,239139841,168537383,208570122,228790894,31600819,21100919,30100209,30001809,20312019,11900209,11911819,41801419,40410619,0,0,40601219,31010909,20511009,11501609,31910109,21201509,11801019,41111909,31511319,40712009,20911119,11111419,11311719,0,20900419,31000209,0,40511419,11511309,31611709,20011809,-1020101,41811119,41111719,41201709
21,199,411.434660549276,1,0,549819.077521579,549820.12460038,8,1,1,10,19,133432585,88623506,123434575,72622375,30410419,0,40101019,31410619,0,0,11500319,0,20010209,-4090150,20501719,0,0,0,10710009,31511119,0,21810509,0,30901109,20001519,21210219,0,41010109,10311619,0,0,0,30310519,0,10910419,10300609,0,10000819,0,11100009
21,200,588.253774214536,1,0,549821.724650579,549822.771734384,8,0,1,18,19,175424784,126404706,164636285,44812327,31911119,21210509,0,40000719,10601209,40500209,0,31201019,0,0,21600819,40211619,0,11900719,20401209,0,31200209,-1090131,0,31000819,0,0,31311619,20210819,0,41901919,40211109,21100809,12010809,11700709,0,0,0,0,0,0
21,201,399.801140185446,0,0,549824.560105561,549825.607115838,8,1,0,3,9,93792738,63113347,52603728,30901619,0,31900109,-1191191,0,40100519,0,0,20600919,0,0,21411719,11701219,0,30000409,0,0,0,0,41202019,0,0,0,11401709,0,0,0,0,0,0,0,30901619,0,0,0,0,0
21,202,352.042883401737,1,0,549827.171941339,549828.21896971,8,0,1,24,9,82012947,52113318,64493017,11101209,30500509,11201119,0,0,0,40311319,0,0,0,0,0,0,0,0,20511709,31601609,0,0,0,11411809,0,0,0,-2160170,0,40210119,10710919,11101209,0,0,0,0,0,0,0,0
21,203,619.029093417339,0,0,549829.68959103,549830.73667599,8,0,0,11,3,0,43112129,10101609,31310619,0,0,0,0,0,0,0,0,0,40101109,-3011020,0,0,0,0,0,0,0,0,0,0,0,0,0,0,10101609,0,0,0,0,0,0,0,0,0,31310619
21,204,666.783500579186,1,0,549832.383792671,549833.430883405,8,0,1,32,3,0,0,20300509,43722868,0,0,0,0,0,0,0,0,0,0,0,0,0,0,0,0,0,0,0,0,0,0,0,0,20300509,0,0,0,20411319,0,0,-2100130,21211419,0,0,0
21,205,536.274805432186,0,0,549835.254460416,549836.301552305,8,0,0,19,31,170539831,240342292,137846704,187628892,12002009,11812019,20111919,10901119,11800419,40801319,40910109,11400709,10800209,31800209,11300109,20610909,41710109,31700209,21000019,41810019,0,40410709,-3110200,40810319,31800519,20000819,11811919,0,20101709,10211219,0,21100709,31710109,10502009,41000909,21400619,20801519,0,30411009,10702009
21,206,555.708404746838,0,0,549837.842828205,549838.8898662,8,0,0,27,3,0,31112228,2190190,30811219,0,0,0,0,0,0,0,0,0,0,0,0,0,20000919,0,11111309,0,0,0,0,0,0,0,0,0,0,-2190190,0,0,0,0,0,30811219,0,0,0
21,207,638.966221595183,1,0,549840.560498606,549841.607584721,8,1,1,2,3,2001101,11301719,0,73221618,0,-2001101,0,0,0,0,0,0,0,0,11301719,0,0,0,0,0,0,0,0,0,0,0,0,0,0,0,0,42011009,0,0,0,0,0,0,31210609,0
21,208,431.435307255015,1,0,549843.384111033,549844.431199073,8,1,1,9,19,115844556,133233275,135742365,116243775,30510219,31210319,0,0,41411419,0,10601519,0,-2111080,40900619,30200219,0,0,30010619,0,0,11210609,20911209,20311009,31710409,0,0,40910419,0,11010519,31800009,0,21310609,0,0,0,0,31410519,41310619,10210309,12001719
21,209,406.477903248742,1,0,549853.902067537,549854.949163276,9,1,1,16,31,267756421,229605534,156770203,229247302,41700819,41100019,11300809,20411509,30211219,40110409,10810709,41600809,30510119,40200619,21300309,41101109,11000419,31800819,41700509,-2090031,40411719,0,0,11311219,21111909,41901719,0,30610509,21211819,10311619,20311409,42010809,41311609,30401219,41611309,11400119,0,40510109,11602019,10400109
21,210,704.287552274764,1,0,549856.408027118,549857.455110538,9,0,1,32,31,315960231,178536903,216237713,200958652,20111319,40301409,40510319,41910709,20111419,31101409,40701109,40501919,40710619,21800619,0,30310519,31510619,21302009,41100819,0,11601109,20911209,0,30000209,21511319,0,40410309,31901319,30601619,41201819,20611119,10611709,32000909,11900009,10711109,-1111060,30510919,21200209,41911609,41001119
21,211,434.893796453252,0,0,549859.278752223,549860.325785598,9,1,0,2,3,2001101,11301719,0,73221618,0,-2001101,0,0,0,0,0,0,0,0,11301719,0,0,0,0,0,0,0,0,0,0,0,0,0,0,0,0,42011009,0,0,0,0,0,0,31210609,0
21,212,362.747877836227,1,1,549861.831723621,549862.878803191,9,0,0,27,19,156236194,153535146,125895615,85933656,40001219,31610319,0,11801009,0,0,20910719,40701919,11211009,41811109,30311909,0,0,0,0,40100609,0,41311519,0,0,10700609,31401919,41110909,30101119,11501019,0,-1080040,22011019,0,0,21501309,21210009,21211319,0,0,0
21,213,426.685658865608,1,0,549864.278849233,549865.325934963,9,1,1,10,19,133432585,88623506,123434575,72622375,30410419,0,40101019,31410619,0,0,11500319,0,20010209,-4090150,20501719,0,0,0,10710009,31511119,0,21810509,0,30901109,20001519,21210219,0,41010109,10311619,0,0,0,30310519,0,10910419,10300609,0,10000819,0,11100009
21,214,429.493179195561,1,0,549866.784811893,549867.831891079,9,0,1,11,19,124426775,96522856,138755294,113603956,0,21100819,30212009,31901519,0,30211319,0,11001109,0,0,-2100110,31310409,10801909,31610009,0,0,20700419,0,0,12010319,11911419,40710409,0,30300109,31811419,0,12011619,0,40502019,0,0,0,0,11401019,20700509,41000409
21,215,616.283936775289,0,0,549869.373121553,549870.420206128,9,0,0,18,3,31910419,1021121,11510109,31610619,0,0,0,31910419,0,0,0,0,0,0,0,0,0,0,0,0,0,-1021121,0,0,0,0,0,11510109,0,0,0,0,0,0,31610619,0,0,0,0,0
21,216,384.265270782635,0,0,549872.232019502,549873.279116011,9,0,0,20,0,0,0,0,0,0,0,0,0,0,0,0,0,0,0,0,0,0,0,0,0,0,0,0,-31801401,0,0,0,0,0,0,0,0,0,0,0,0,0,0,0,0
21,217,785.647511482239,0,0,549874.70270588,549875.749777366,9,0,0,1,9,136375627,62013318,21601909,61122138,-1070171,0,42001809,0,0,11901609,0,40200419,41201619,0,0,0,0,21901909,0,0,40111409,0,21601909,0,0,0,0,0,0,0,0,30511819,0,0,30610319,0,0,0,0,0
21,218,1078.68095010053,1,0,549877.608659147,549878.655733713,9,1,1,25,19,144033475,133435684,56303707,145014865,40600309,20401119,41210919,0,30810009,0,0,0,11011119,10800209,0,0,40010419,0,10011809,40601309,10411919,21600019,21400509,22001519,0,0,11810509,0,-1091170,0,0,40401509,0,30311209,20600519,0,0,31700319,22001309,0
21,219,744.987934827805,0,0,549880.891103849,549881.938190734,9,1,0,12,3,21810109,1200080,0,51903418,0,0,0,0,0,0,0,0,21810109,0,0,-1200080,0,0,0,0,0,0,0,0,0,0,0,0,0,0,0,0,30901909,0,0,0,0,0,21001509,0
21,220,483.111311681569,1,0,549883.702955719,549884.750043759,9,1,1,9,19,115844556,133233275,135742365,116243775,30510219,31210319,0,0,41411419,0,10601519,0,-2111080,40900619,30200219,0,0,30010619,0,0,11210609,20911209,20311009,31710409,0,0,40910419,0,11010519,31800009,0,21310609,0,0,0,0,31410519,41310619,10210309,12001719
21,221,625.511835911311,1,0,549886.267740799,549887.314822295,9,0,1,13,3,53300228,2110160,40810119,0,0,0,0,0,0,0,41900019,11400209,0,0,0,0,-2110160,0,0,0,0,0,0,0,0,0,0,40810119,0,0,0,0,0,0,0,0,0,0,0,0
21,222,512.57006439846,0,0,549888.9854624,549890.032549285,9,1,0,8,9,12741859,20611019,92235336,61613457,0,0,0,0,10700809,0,0,-2041050,0,0,0,0,0,20611019,0,0,0,0,0,0,40912009,30310809,0,10400709,0,10611809,0,10211719,40701619,0,0,0,10700119,0,0,0
21,223,851.460437523201,1,0,549891.679656727,549892.726747076,9,0,1,36,31,209459182,272260441,149527603,189447704,21601919,10210109,31111409,40801809,41110709,21801209,20911609,0,21910409,41410209,42011919,31001009,30810619,11302019,41110819,21701819,31601509,21310519,20000419,0,11311409,42011209,21601419,12000309,21002019,0,21600819,20301909,11800319,40400509,41910619,21800409,0,10501909,41602009,-1130021
21,224,482.728275586851,0,0,549894.703283321,549895.750360967,9,0,0,33,31,218037091,176817683,209337403,263081682,40800009,30100709,11211909,11411309,30901109,21600609,21410519,10300309,40300609,30801209,40100909,10200809,41301619,11601119,31500509,11311509,0,0,42011819,11501009,30301319,0,41701509,0,31311019,41200709,11310019,41610909,31001719,10402009,40910019,20501609,-4131070,31602019,41311619,41610709
21,225,708.981766249053,0,0,549897.268058392,549898.315146432,9,0,0,19,19,46133746,136934185,160490454,84112676,10811609,12000109,0,11710419,11611609,0,0,0,0,21910519,31601119,41900219,0,0,20710609,20811719,0,0,-4151060,20911619,40601519,21911609,30412019,10900809,0,31601819,0,0,0,0,0,11900119,41500319,20701819,10010419,0
21,226,443.709017592482,1,0,549900.162330404,549901.209349536,9,0,1,21,9,0,133735346,55332918,51922838,0,0,0,0,0,0,0,0,0,0,0,0,0,41211609,0,20810609,30511409,41201719,0,0,-3010181,11910009,0,0,10101709,0,30311019,0,0,0,0,0,0,40611619,0,11311219
21,227,620.421112165786,1,0,549902.703522767,549903.750605032,9,1,1,3,9,93792738,63113347,52603728,30901619,0,31900109,-1191191,0,40100519,0,0,20600919,0,0,21411719,11701219,0,30000409,0,0,0,0,41202019,0,0,0,11401709,0,0,0,0,0,0,0,30901619,0,0,0,0,0
21,228,488.788331043907,0,0,549905.515359623,549906.562445738,9,1,0,35,3,0,20100419,41511018,1021030,0,0,0,0,0,0,0,0,0,0,0,0,0,20100419,0,0,0,0,10900609,0,0,0,0,0,30610409,0,0,0,0,0,0,0,0,0,-1021030,0
21,229,485.7455996098,0,0,549908.22133414,549909.268412941,9,0,0,24,9,132825366,41010419,34601609,94023837,30911909,40310619,0,40001819,21601019,0,0,0,0,41010419,0,0,0,0,0,0,0,0,31411419,0,0,0,0,-3190190,0,0,0,0,10902009,0,42011209,0,0,0,41110619,0
21,230,374.777522869408,1,0,549910.891988104,549911.939108096,9,1,1,29,9,72122757,91224737,21100009,33073348,31210519,0,0,0,0,0,20101619,20810619,0,0,0,0,0,0,0,40301609,20111119,30812009,0,21100009,0,0,0,0,0,0,0,11101109,-1161130,20811109,0,0,0,0,0,0
21,231,390.344189247116,1,0,549913.468571083,549914.515629096,9,1,1,30,0,0,0,0,0,0,0,0,0,0,0,0,0,0,0,0,0,0,0,0,0,0,0,0,0,0,0,0,0,0,0,0,0,0,-31810291,0,0,0,0,0,0
21,232,520.802839542739,0,0,549915.950962199,549916.998059863,9,1,0,28,31,271848311,216646383,169746202,170337863,21300709,31511619,40610209,32001209,21001509,21401619,21200209,41910319,40910909,20211509,41002009,41910109,0,20411319,0,41010309,31300219,20800909,21900509,11710409,21510309,10201919,11700319,31410209,0,20601809,40710719,-4100160,30100819,11211619,22000419,10610819,40301809,41900509,0,10111709
21,233,633.049756521359,1,0,549918.715752207,549919.762831777,9,1,1,4,31,162216493,151736722,245057813,176626002,20801909,11910209,10310209,-4161011,11100609,11310109,11610409,40000819,41011209,11711109,11110619,21300319,21501719,11910809,31401619,12000419,30800109,0,41912019,0,30411419,0,40000209,41411119,21111219,30200219,40011609,10200119,0,10700009,11710709,40200509,40601709,21401019,10411309,31400619
21,234,337.252683355473,0,0,549921.433481122,549922.480569161,9,0,0,22,3,0,0,1040140,64022447,0,0,0,0,0,0,0,0,0,0,0,0,0,0,0,0,0,0,0,0,0,-1040140,0,0,0,0,0,0,0,0,0,0,0,32000009,21110419,10912019
21,235,889.22356790863,0,0,549936.304501491,549937.351595306,10,1,0,9,19,115844556,133233275,135742365,116243775,30510219,31210319,0,0,41411419,0,10601519,0,-2111080,40900619,30200219,0,0,30010619,0,0,11210609,20911209,20311009,31710409,0,0,40910419,0,11010519,31800009,0,21310609,0,0,0,0,31410519,41310619,10210309,12001719
21,236,721.202351967804,0,0,549939.363427851,549940.410509731,10,0,0,27,31,197671012,220559441,129023764,210046892,20012019,22001409,20611909,20701719,21211319,40610509,41711819,0,10810309,41511719,11911519,10910919,21001719,40200209,21110619,20510309,21400809,32001619,20500619,0,11710409,42010109,11710809,0,30311119,11710609,-1070090,31910809,31311109,11411519,0,31610709,30400519,40700009,11301209,21401009
21,237,509.699025540613,0,0,549942.29292764,549943.340006056,10,0,0,19,19,105614856,124914456,118466966,165935884,40900219,0,11901809,0,31801419,0,0,21011409,0,0,21810419,40602009,31300119,31201909,0,0,0,0,-3040011,0,0,11500919,0,10701809,31011109,30402009,31811109,0,0,41800619,0,10710119,30301719,31710309,21002009,30411109
21,238,407.519992440939,0,0,549945.045940152,549946.093030117,10,1,0,8,9,12741859,20611019,92235336,61613457,0,0,0,0,10700809,0,0,-2041050,0,0,0,0,0,20611019,0,0,0,0,0,0,40912009,30310809,0,10400709,0,10611809,0,10211719,40701619,0,0,0,10700119,0,0,0
21,239,429.287225124426,1,0,549947.540129551,549948.587207197,10,1,1,16,31,267756421,229605534,156770203,229247302,41700819,41100019,11300809,20411509,30211219,40110409,10810709,41600809,30510119,40200619,21300309,41101109,11000419,31800819,41700509,-2090031,40411719,0,0,11311219,21111909,41901719,0,30610509,21211819,10311619,20311409,42010809,41311609,30401219,41611309,11400119,0,40510109,11602019,10400109
21,240,589.016766985878,1,0,549950.081388512,549951.128465388,10,0,1,13,31,261278121,208726753,215629012,176428374,31511219,20711409,30601309,41600909,21811909,31310019,30610519,41210109,11910719,11201319,30600119,21001609,-1201011,30112019,30600019,11200219,31700019,41110419,30301819,30311709,10300919,40100609,40600419,11611109,31701009,20701419,0,0,30501309,0,0,41411519,21701309,30101419,31910909,20801909
21,241,571.715851430781,1,0,549952.810881065,549953.857970259,10,1,1,30,0,0,0,0,0,0,0,0,0,0,0,0,0,0,0,0,0,0,0,0,0,0,0,0,0,0,0,0,0,0,0,0,0,0,-31810291,0,0,0,0,0,0
21,242,556.225792272016,0,0,549955.552133019,549956.599217209,10,0,0,33,31,177857713,186441202,204844212,150686793,40701719,11901519,0,10710409,41411019,0,30111209,11510719,31511119,11311309,20901719,10701719,0,41801009,20801509,10011009,40001609,30911319,0,40710109,20301219,10910709,41310309,30100219,40800619,10301019,10410009,10900719,31700209,41700109,10411219,10710619,-3060161,11401719,20001719,10800319
21,243,403.631501831114,1,0,549958.28163635,549959.328787139,10,1,1,28,31,271848311,216646383,169746202,170337863,21300709,31511619,40610209,32001209,21001509,21401619,21200209,41910319,40910909,20211509,41002009,41910109,0,20411319,0,41010309,31300219,20800909,21900509,11710409,21510309,10201919,11700319,31410209,0,20601809,40710719,-4100160,30100819,11211619,22000419,10610819,40301809,41900509,0,10111709
21,244,522.249522735365,1,0,549960.858173519,549961.905253089,10,0,1,24,19,135113846,132633775,157454994,93133156,0,0,0,0,30610509,31801409,0,30900209,41801719,0,0,0,30100519,31310319,0,40300709,20510409,10411819,21510709,41602009,0,20910709,10200519,-1120110,21100119,0,41010819,0,40311709,21310319,10210319,0,0,0,21300809,0
21,245,1254.55228995997,0,0,549963.434719926,549964.481803731,10,1,0,4,31,162216493,151736722,245057813,176626002,20801909,11910209,10310209,-4161011,11100609,11310109,11610409,40000819,41011209,11711109,11110619,21300319,21501719,11910809,31401619,12000419,30800109,0,41912019,0,30411419,0,40000209,41411119,21111219,30200219,40011609,10200119,0,10700009,11710709,40200509,40601709,21401019,10411309,31400619
21,246,504.419285920449,0,0,549966.870115008,549967.917200353,10,1,0,10,19,133432585,88623506,123434575,72622375,30410419,0,40101019,31410619,0,0,11500319,0,20010209,-4090150,20501719,0,0,0,10710009,31511119,0,21810509,0,30901109,20001519,21210219,0,41010109,10311619,0,0,0,30310519,0,10910419,10300609,0,10000819,0,11100009
21,247,708.744245232083,0,0,549969.493761774,549970.540800538,10,1,0,35,3,0,20100419,41511018,1021030,0,0,0,0,0,0,0,0,0,0,0,0,0,20100419,0,0,0,0,10900609,0,0,0,0,0,30610409,0,0,0,0,0,0,0,0,0,-1021030,0
21,248,417.995165102184,1,0,549972.423225377,549973.470299558,10,0,1,11,9,96033765,63572649,41101509,11910219,0,31511119,0,0,0,10011509,11300209,31600209,11610719,20300109,-2161021,0,41111519,0,0,0,0,0,41101509,0,0,0,0,0,0,0,0,0,0,0,0,0,11910219,0,0,0
21,249,818.229452474043,0,0,549974.929225763,549975.976279541,10,1,0,12,3,21810109,1200080,0,51903418,0,0,0,0,0,0,0,0,21810109,0,0,-1200080,0,0,0,0,0,0,0,0,0,0,0,0,0,0,0,0,30901909,0,0,0,0,0,21001509,0
21,250,1045.52926693577,1,0,549977.858679357,549978.905764317,10,1,1,29,9,72122757,91224737,21100009,33073348,31210519,0,0,0,0,0,20101619,20810619,0,0,0,0,0,0,0,40301609,20111119,30812009,0,21100009,0,0,0,0,0,0,0,11101109,-1161130,20811109,0,0,0,0,0,0
21,251,459.401566185988,1,0,549981.058770516,549982.105859326,10,0,1,21,9,70522238,21902019,97535917,73122528,0,0,30211719,40310519,0,0,0,0,0,0,0,0,0,0,0,0,21902019,0,0,31301909,-2121061,31600819,0,0,22001209,10510919,0,0,0,0,41811419,31311109,0,0,0,0
21,252,634.529161499813,0,0,549983.670612839,549984.717709733,10,0,0,32,3,21211909,0,53501928,2081011,21211909,0,0,0,0,0,0,0,0,0,0,0,0,0,0,0,0,0,41901309,0,0,11600619,0,0,0,0,0,0,0,0,0,-2081011,0,0,0,0
21,253,347.639314946719,1,0,549986.435412471,549987.482486652,10,0,1,16,0,0,0,0,0,0,0,0,0,0,0,0,0,0,0,0,0,0,0,0,-31301291,0,0,0,0,0,0,0,0,0,0,0,0,0,0,0,0,0,0,0,0
21,254,667.284719762392,0,0,549989.011946174,549990.059033059,10,0,0,36,9,70412028,42112128,103005166,43841730,30000019,0,0,0,0,40412009,0,0,0,0,0,0,0,0,0,10700109,31412019,0,0,30001719,0,21101119,41601419,10300909,0,0,0,41811709,0,0,0,0,0,0,0,-2030021
21,255,662.246350664645,0,0,549991.776733872,549992.823819602,10,0,0,22,19,156426574,65405066,126821676,154821875,0,0,21301309,30701709,20001109,31611819,20810419,0,32000209,0,11900219,0,0,0,21301809,0,10701019,21502019,0,30300519,31200119,-4110120,0,20200709,0,0,41010209,0,11100709,40610609,0,0,0,41910319,20800219,40400019
21,256,725.575508549809,1,0,549994.588606915,549995.635657229,10,0,1,1,3,21261059,11511509,0,31711119,-1060140,0,0,0,20200919,0,0,0,0,0,0,11511509,0,0,0,0,0,0,0,0,0,0,0,0,0,0,0,0,31711119,0,0,0,0,0,0,0
21,257,804.387796088122,1,0,549997.494548249,549998.541644758,10,1,1,25,19,144033475,133435684,56303707,145014865,40600309,20401119,41210919,0,30810009,0,0,0,11011119,10800209,0,0,40010419,0,10011809,40601309,10411919,21600019,21400509,22001519,0,0,11810509,0,-1091170,0,0,40401509,0,30311209,20600519,0,0,31700319,22001309,0
21,258,581.096580019221,1,0,550000.412289406,550001.459374751,10,1,1,3,9,93792738,63113347,52603728,30901619,0,31900109,-1191191,0,40100519,0,0,20600919,0,0,21411719,11701219,0,30000409,0,0,0,0,41202019,0,0,0,11401709,0,0,0,0,0,0,0,30901619,0,0,0,0,0
21,259,632.202457403764,1,0,550003.141773874,550004.188864993,10,0,1,18,3,61902818,2001181,0,11310409,0,0,41801409,0,0,20101409,0,0,0,0,0,0,0,0,0,0,0,-2001181,0,0,0,0,0,0,0,0,0,0,0,0,0,0,11310409,0,0,0
21,260,482.323681586422,0,0,550006.000689916,550007.047772951,10,1,0,2,3,2001101,11301719,0,73221618,0,-2001101,0,0,0,0,0,0,0,0,11301719,0,0,0,0,0,0,0,0,0,0,0,0,0,0,0,0,42011009,0,0,0,0,0,0,31210609,0
21,261,658.713563927449,0,0,550017.048067061,550018.095154331,11,1,0,30,0,0,0,0,0,0,0,0,0,0,0,0,0,0,0,0,0,0,0,0,0,0,0,0,0,0,0,0,0,0,0,0,0,0,-31810291,0,0,0,0,0,0
21,262,422.868001041934,1,0,550019.848154525,550020.895239485,11,0,1,36,3,30310319,41911809,40100209,4021131,0,0,0,0,30310319,0,0,0,0,0,0,0,0,0,0,0,41911809,0,0,40100209,0,0,0,0,0,0,0,0,0,0,0,0,0,0,0,-4021131
21,263,705.742704682052,0,0,550022.41293691,550023.460023025,11,0,0,1,3,3011031,0,40911219,41520428,-3011031,0,0,0,0,0,0,0,0,0,0,0,0,0,0,0,0,0,0,0,0,0,40911219,0,0,0,0,0,0,0,0,30810409,10710019,0,0,0
21,264,541.637696675025,1,0,550025.260106254,550026.307162727,11,1,1,2,3,2001101,11301719,0,73221618,0,-2001101,0,0,0,0,0,0,0,0,11301719,0,0,0,0,0,0,0,0,0,0,0,0,0,0,0,0,42011009,0,0,0,0,0,0,31210609,0
21,265,586.121860425919,1,0,550027.989571089,550029.036654894,11,1,1,4,31,162216493,151736722,245057813,176626002,20801909,11910209,10310209,-4161011,11100609,11310109,11610409,40000819,41011209,11711109,11110619,21300319,21501719,11910809,31401619,12000419,30800109,0,41912019,0,30411419,0,40000209,41411119,21111219,30200219,40011609,10200119,0,10700009,11710709,40200509,40601709,21401019,10411309,31400619
21,266,637.980721425265,0,0,550030.636717796,550031.683792363,11,1,0,29,9,72122757,91224737,21100009,33073348,31210519,0,0,0,0,0,20101619,20810619,0,0,0,0,0,0,0,40301609,20111119,30812009,0,21100009,0,0,0,0,0,0,0,11101109,-1161130,20811109,0,0,0,0,0,0
21,267,477.18291298952,1,0,550033.354438242,550034.401516658,11,1,1,28,31,271848311,216646383,169746202,170337863,21300709,31511619,40610209,32001209,21001509,21401619,21200209,41910319,40910909,20211509,41002009,41910109,0,20411319,0,41010309,31300219,20800909,21900509,11710409,21510309,10201919,11700319,31410209,0,20601809,40710719,-4100160,30100819,11211619,22000419,10610819,40301809,41900509,0,10111709
21,268,570.863932720385,1,0,550035.895691429,550036.942772924,11,0,1,11,9,42611728,107532878,125843646,0,0,0,0,0,0,0,31300709,11311019,0,0,-3031141,0,0,0,0,41700319,21101409,41700009,42011309,0,20310609,31610919,0,0,0,31910809,0,0,0,0,0,0,0,0,0,0
21,269,488.424927927554,1,0,550038.672243534,550039.719323489,11,1,1,9,19,115844556,133233275,135742365,116243775,30510219,31210319,0,0,41411419,0,10601519,0,-2111080,40900619,30200219,0,0,30010619,0,0,11210609,20911209,20311009,31710409,0,0,40910419,0,11010519,31800009,0,21310609,0,0,0,0,31410519,41310619,10210309,12001719
21,270,458.468035794795,1,0,550041.225260357,550042.272338388,11,1,1,12,3,21810109,1200080,0,51903418,0,0,0,0,0,0,0,0,21810109,0,0,-1200080,0,0,0,0,0,0,0,0,0,0,0,0,0,0,0,0,30901909,0,0,0,0,0,21001509,0
21,271,442.460974096321,1,1,550043.83710499,550044.884184176,11,1,0,35,3,0,20100419,41511018,1021030,0,0,0,0,0,0,0,0,0,0,0,0,0,20100419,0,0,0,0,10900609,0,0,0,0,0,30610409,0,0,0,0,0,0,0,0,0,-1021030,0
21,272,625.974558992311,0,0,550046.519539144,550047.56661679,11,0,0,21,3,20110919,11601109,42311779,0,0,0,0,0,0,0,20110919,0,0,0,0,0,11601109,0,0,0,0,0,0,40210619,-2101160,0,0,0,0,0,0,0,0,0,0,0,0,0,0,0
21,273,414.410408702679,1,0,550049.296079315,550050.343170435,11,0,1,22,31,226966812,216425093,169208303,225440892,31311019,40310109,30710219,30900809,0,21111809,30200819,11310509,31111519,20800409,0,31100409,41710409,30911519,0,30201119,20500409,41200819,31002019,10200709,21511709,-2160091,41611019,10210219,10901209,10600219,31011109,20201709,21410409,0,30601809,40000819,11411209,30201919,31011709,40601309
21,274,437.318280572072,0,0,550051.849101914,550052.896188798,11,1,0,8,9,12741859,20611019,92235336,61613457,0,0,0,0,10700809,0,0,-2041050,0,0,0,0,0,20611019,0,0,0,0,0,0,40912009,30310809,0,10400709,0,10611809,0,10211719,40701619,0,0,0,10700119,0,0,0
21,275,409.773553954437,1,0,550054.425726468,550055.47279218,11,1,1,16,31,267756421,229605534,156770203,229247302,41700819,41100019,11300809,20411509,30211219,40110409,10810709,41600809,30510119,40200619,21300309,41101109,11000419,31800819,41700509,-2090031,40411719,0,0,11311219,21111909,41901719,0,30610509,21211819,10311619,20311409,42010809,41311609,30401219,41611309,11400119,0,40510109,11602019,10400109
21,276,854.842319502495,0,0,550057.025733166,550058.072815047,11,1,0,25,19,144033475,133435684,56303707,145014865,40600309,20401119,41210919,0,30810009,0,0,0,11011119,10800209,0,0,40010419,0,10011809,40601309,10411919,21600019,21400509,22001519,0,0,11810509,0,-1091170,0,0,40401509,0,30311209,20600519,0,0,31700319,22001309,0
21,277,773.681000107899,0,0,550060.119928494,550061.167016919,11,1,0,10,19,133432585,88623506,123434575,72622375,30410419,0,40101019,31410619,0,0,11500319,0,20010209,-4090150,20501719,0,0,0,10710009,31511119,0,21810509,0,30901109,20001519,21210219,0,41010109,10311619,0,0,0,30310519,0,10910419,10300609,0,10000819,0,11100009
21,278,604.752046172507,0,0,550062.990610098,550064.03772932,11,0,0,19,9,10001919,31301009,95253917,103523966,0,0,0,0,0,10001919,0,0,0,0,0,31301009,0,0,0,0,0,0,-1140180,0,0,0,41601509,40911109,11601119,0,0,31910719,30311419,20200609,0,0,0,0,0,21101219
21,279,740.005770116113,1,0,550065.649574338,550066.69658808,11,0,1,33,19,92413956,185256913,103523066,105845797,31000809,0,0,20512009,0,0,20100919,0,20800219,0,20210219,11311209,41801919,11111009,40300419,0,30111419,30410719,0,0,21811019,0,30300819,0,0,31410809,20000419,31911209,30600709,0,0,0,-1020151,0,31911819,10401909
21,280,536.534654092975,1,0,550068.590771936,550069.637858821,11,0,1,18,31,208648522,201545745,248540221,226850212,21111209,21811319,20201519,21012009,31000109,10402019,41500219,0,41610119,40801009,41612009,30410409,31611419,0,0,41800619,11300209,-4010071,20300009,20700709,30701619,21201819,12011909,40001109,40410719,21611319,41601009,31000019,10601109,40301609,40712019,0,40812009,10410619,41911709,11101119
21,281,647.074269363657,0,0,550071.226144613,550072.273229188,11,0,0,32,31,217337942,237337403,227049111,159957673,0,22001419,21701919,41111109,40011119,40010719,10300419,11900319,30300919,41811519,30410319,41210609,30100419,0,0,41901909,31601319,20301309,31101119,11010119,21010019,20601709,30000709,30811309,31100709,20501509,30911909,30110409,20001619,11710219,31111019,-3190070,11311809,20711309,31811219,0
21,282,894.798572524451,0,0,550074.108629505,550075.155670579,11,0,0,27,19,207448784,135636875,116286046,53625157,41711809,30011509,0,41310609,0,42011519,10601919,41801419,0,0,30800909,41611719,10911819,0,0,40610919,0,11701509,20001419,41500309,0,0,11101419,11900809,0,30711919,-1070171,10311719,0,0,0,0,21801519,0,21511919,0
21,283,604.835197795182,1,0,550077.0733717,550078.120467054,11,1,1,3,9,93792738,63113347,52603728,30901619,0,31900109,-1191191,0,40100519,0,0,20600919,0,0,21411719,11701219,0,30000409,0,0,0,0,41202019,0,0,0,11401709,0,0,0,0,0,0,0,30901619,0,0,0,0,0
21,284,623.36028914433,0,0,550079.75580701,550080.80288812,11,0,0,24,9,11800419,130826485,26101979,81911918,0,0,0,0,11800419,0,0,0,0,0,40001719,0,0,0,30011119,30001919,20601019,10210709,0,0,0,0,0,-4091160,22010819,0,0,0,0,0,40510309,0,41401609,0,0,0
21,285,577.071043197066,0,0,550082.497065124,550083.544150854,11,0,0,13,19,163137604,158259834,103015265,21811109,0,0,40500919,40601019,20212019,20001019,30111519,11711109,0,11801909,40912019,40811309,-1011051,10810309,10010709,21600519,21302009,0,40211709,21401709,0,0,0,20200219,10101309,0,11100319,21811109,0,0,0,0,0,0,0,0
21,286,587.379527860321,1,0,550085.320677166,550086.367762896,11,0,1,32,0,0,0,0,0,0,0,0,0,0,0,0,0,0,0,0,0,0,0,0,0,0,0,0,0,0,0,0,0,0,0,0,0,0,0,0,-21301391,0,0,0,0
21,287,909.172244835645,0,0,550096.379827958,550097.426909068,12,1,0,28,31,271848311,216646383,169746202,170337863,21300709,31511619,40610209,32001209,21001509,21401619,21200209,41910319,40910909,20211509,41002009,41910109,0,20411319,0,41010309,31300219,20800909,21900509,11710409,21510309,10201919,11700319,31410209,0,20601809,40710719,-4100160,30100819,11211619,22000419,10610819,40301809,41900509,0,10111709
21,288,453.087821486406,1,0,550099.532865338,550100.579942214,12,1,1,9,19,115844556,133233275,135742365,116243775,30510219,31210319,0,0,41411419,0,10601519,0,-2111080,40900619,30200219,0,0,30010619,0,0,11210609,20911209,20311009,31710409,0,0,40910419,0,11010519,31800009,0,21310609,0,0,0,0,31410519,41310619,10210309,12001719
21,289,816.32813019678,0,0,550102.238823687,550103.285905567,12,0,0,1,19,106686005,105446365,192624785,135125266,-4061130,10510219,20001719,0,0,20701709,11301109,0,40110119,0,0,10810409,41010109,12012019,0,0,21211809,20402019,0,40401719,0,0,0,40211319,40610719,41200409,30200619,31711909,40900019,0,0,0,41701319,0,0,20812019
21,290,766.218531876802,0,0,550105.297742347,550106.344824997,12,0,0,22,3,11900409,31402019,4131060,30711819,0,0,11900409,0,0,0,0,0,0,0,0,0,0,31402019,0,0,0,0,0,0,0,-4131060,0,0,0,0,0,0,0,0,0,0,30711819,0,0,0
21,291,403.814743156545,1,0,550108.180179889,550109.227258305,12,1,1,30,0,0,0,0,0,0,0,0,0,0,0,0,0,0,0,0,0,0,0,0,0,0,0,0,0,0,0,0,0,0,0,0,0,0,-31810291,0,0,0,0,0,0
21,292,485.755608649924,1,0,550110.792026062,550111.839128345,12,0,1,21,31,185767213,259054201,190059353,148876993,30611719,40411309,10710719,0,30201009,0,20910319,11811719,41110419,21000619,21411509,41911809,10702009,41401609,30911909,30502009,20011219,41201509,10900619,41700719,-1020031,10301419,20211509,41800809,31001609,21511819,11610819,0,30511009,0,11211019,31611519,31311209,11210409,21511019,11510809
21,293,796.743241371587,1,0,550113.345097935,550114.392115911,12,0,1,19,31,140145932,226346392,176410353,225525602,20701119,21700019,21411519,11901319,11600909,0,21010519,10110219,21710309,20711209,10500019,41611409,20900419,41701709,0,20100009,30310709,40510909,-1071080,22001319,21201709,20111909,0,40710809,20201609,20101009,31010909,40200009,30400909,11211819,20200019,42000119,20710009,30501809,0,30300909
21,294,546.372716315091,0,0,550116.380423107,550117.427494209,12,0,0,33,3,53212228,0,20511809,4160141,0,31801009,21411219,0,0,0,0,0,0,0,0,0,0,0,0,0,0,0,0,0,0,20511809,0,0,0,0,0,0,0,0,0,0,-4160141,0,0,0
21,295,838.631613412872,0,0,550119.098146248,550120.145233133,12,0,0,18,19,250166203,146034127,62121728,135245374,0,21611819,42010909,0,42011909,40010819,31800309,41310219,31410219,0,30001809,0,31711709,0,40900019,0,41410509,-2010081,0,30510609,0,0,31611119,0,0,0,0,20410509,0,0,30000819,41210509,11402009,10910319,0,21311209
21,296,478.52719668299,0,0,550122.039411984,550123.086497714,12,1,0,16,31,267756421,229605534,156770203,229247302,41700819,41100019,11300809,20411509,30211219,40110409,10810709,41600809,30510119,40200619,21300309,41101109,11000419,31800819,41700509,-2090031,40411719,0,0,11311219,21111909,41901719,0,30610509,21211819,10311619,20311409,42010809,41311609,30401219,41611309,11400119,0,40510109,11602019,10400109
21,297,336.045830743387,1,0,550124.568903843,550125.615983799,12,0,1,18,0,0,0,0,0,0,0,0,0,0,0,0,0,0,0,0,0,0,0,0,0,0,-21210401,0,0,0,0,0,0,0,0,0,0,0,0,0,0,0,0,0,0
21,298,688.032575650141,0,0,550127.07484995,550128.121964168,12,1,0,25,19,144033475,133435684,56303707,145014865,40600309,20401119,41210919,0,30810009,0,0,0,11011119,10800209,0,0,40010419,0,10011809,40601309,10411919,21600019,21400509,22001519,0,0,11810509,0,-1091170,0,0,40401509,0,30311209,20600519,0,0,31700319,22001309,0
21,299,398.729793843813,1,0,550129.922002741,550130.969077307,12,0,1,36,19,177553784,113212627,187627693,87741308,0,10610719,0,0,21300609,20611619,41710019,41410309,41910509,41901709,0,0,0,0,30200509,41110409,0,0,40500819,12002009,30201219,0,21212019,41600709,21010709,21100209,0,0,0,20400309,0,41300619,22010309,0,0,-4030071
21,300,489.077436737716,1,0,550132.486772422,550133.533860462,12,1,1,8,9,12741859,20611019,92235336,61613457,0,0,0,0,10700809,0,0,-2041050,0,0,0,0,0,20611019,0,0,0,0,0,0,40912009,30310809,0,10400709,0,10611809,0,10211719,40701619,0,0,0,10700119,0,0,0
21,301,318.766472977586,0,0,550135.03979656,550136.086877286,12,1,0,35,3,0,20100419,41511018,1021030,0,0,0,0,0,0,0,0,0,0,0,0,0,20100419,0,0,0,0,10900609,0,0,0,0,0,30610409,0,0,0,0,0,0,0,0,0,-1021030,0
21,302,524.437255924568,0,0,550137.522221167,550138.569300738,12,0,0,24,31,153944893,258559093,199890663,206965751,10410909,20000109,41010619,10410219,20010109,0,0,20801119,31301809,41912009,31210609,31311909,0,40801319,31201219,41410719,40711309,0,20200809,21910019,11210809,22001419,30101819,-2151151,31101809,20801719,40411109,20711019,40210109,10611319,41111119,20800109,10801019,21010419,11500519,30210119
21,303,485.220512840897,0,0,550140.169350552,550141.216441672,12,0,0,13,3,0,45680879,30711309,40611109,0,0,0,0,0,0,0,0,0,0,0,0,-4080170,0,0,41600709,0,0,30711309,0,0,0,0,0,0,0,0,0,0,40611109,0,0,0,0,0,0
21,304,170.852922950871,1,1,550142.851827437,550143.89893049,12,0,0,11,9,51412118,41994948,71623038,61821138,0,0,0,0,0,0,0,20811209,30600909,0,-1171091,0,10200619,0,0,0,10411519,20211719,40511919,0,0,31111119,0,0,0,0,0,0,0,20910219,0,0,0,0,0,40910919
21,305,467.07229828462,0,0,550145.263626722,550146.310709757,12,0,0,32,9,53401318,81312138,51511118,96844118,0,0,0,0,0,0,0,11600409,41800909,0,0,0,41200919,0,40111219,0,0,0,0,0,0,0,0,0,20400509,31110609,0,21900319,0,31412009,0,-3020071,0,0,0,40511719
21,306,508.621519780718,0,0,550147.910775739,550148.957896501,12,1,0,29,9,72122757,91224737,21100009,33073348,31210519,0,0,0,0,0,20101619,20810619,0,0,0,0,0,0,0,40301609,20111119,30812009,0,21100009,0,0,0,0,0,0,0,11101109,-1161130,20811109,0,0,0,0,0,0
21,307,642.137144925073,1,0,550150.628486176,550151.675561127,12,1,1,3,9,93792738,63113347,52603728,30901619,0,31900109,-1191191,0,40100519,0,0,20600919,0,0,21411719,11701219,0,30000409,0,0,0,0,41202019,0,0,0,11401709,0,0,0,0,0,0,0,30901619,0,0,0,0,0
21,308,440.904961898923,0,1,550153.381513317,550154.428589038,12,0,1,27,9,82413737,73803438,65463669,43801728,40810809,0,20901209,0,0,0,20701719,0,0,0,41801619,32001819,0,0,0,0,0,0,0,30010909,0,0,0,0,0,31301619,-4151141,0,0,0,11801709,32000019,0,0,0,0
21,309,614.361056708731,1,0,550156.05217652,550157.099268794,12,1,1,12,3,21810109,1200080,0,51903418,0,0,0,0,0,0,0,0,21810109,0,0,-1200080,0,0,0,0,0,0,0,0,0,0,0,0,0,0,0,0,30901909,0,0,0,0,0,21001509,0
21,310,711.251111119054,1,0,550158.875793567,550159.922872367,12,1,1,4,31,162216493,151736722,245057813,176626002,20801909,11910209,10310209,-4161011,11100609,11310109,11610409,40000819,41011209,11711109,11110619,21300319,21501719,11910809,31401619,12000419,30800109,0,41912019,0,30411419,0,40000209,41411119,21111219,30200219,40011609,10200119,0,10700009,11710709,40200509,40601709,21401019,10411309,31400619
21,311,435.522052808665,1,0,550161.675873716,550162.722962525,12,1,1,10,19,133432585,88623506,123434575,72622375,30410419,0,40101019,31410619,0,0,11500319,0,20010209,-4090150,20501719,0,0,0,10710009,31511119,0,21810509,0,30901109,20001519,21210219,0,41010109,10311619,0,0,0,30310519,0,10910419,10300609,0,10000819,0,11100009
21,312,575.990842888132,1,0,550164.35830325,550165.405388595,12,1,1,2,3,2001101,11301719,0,73221618,0,-2001101,0,0,0,0,0,0,0,0,11301719,0,0,0,0,0,0,0,0,0,0,0,0,0,0,0,0,42011009,0,0,0,0,0,0,31210609,0
21,313,1114.24595338758,0,0,550175.993945785,550177.041026895,13,1,0,28,31,271848311,216646383,169746202,170337863,21300709,31511619,40610209,32001209,21001509,21401619,21200209,41910319,40910909,20211509,41002009,41910109,0,20411319,0,41010309,31300219,20800909,21900509,11710409,21510309,10201919,11700319,31410209,0,20601809,40710719,-4100160,30100819,11211619,22000419,10610819,40301809,41900509,0,10111709
21,314,949.081147671677,0,0,550179.241094957,550180.288181072,13,1,0,30,0,0,0,0,0,0,0,0,0,0,0,0,0,0,0,0,0,0,0,0,0,0,0,0,0,0,0,0,0,0,0,0,0,0,-31810291,0,0,0,0,0,0
21,315,445.069469627924,1,0,550182.347072784,550183.394152355,13,0,1,21,31,141038703,170465592,221417242,175356632,32001919,31111419,0,11501409,21512019,12000319,0,21710009,11201609,21700109,20310419,11201609,31410709,12011519,31810009,21910709,20110509,0,10800719,41800819,-2190110,20901119,20911419,11910509,30900209,41101019,40901319,20400419,10011309,40811309,10700819,0,30711119,30710719,10410819,21600119
21,316,1012.47805857565,0,0,550184.923614957,550185.970701842,13,0,0,21,0,0,0,0,0,0,0,0,0,0,0,0,0,0,0,0,0,0,0,0,0,0,0,0,0,-20610791,0,0,0,0,0,0,0,0,0,0,0,0,0,0,0
21,317,458.99697218556,1,0,550188.006063971,550189.053150086,13,1,1,16,31,267756421,229605534,156770203,229247302,41700819,41100019,11300809,20411509,30211219,40110409,10810709,41600809,30510119,40200619,21300309,41101109,11000419,31800819,41700509,-2090031,40411719,0,0,11311219,21111909,41901719,0,30610509,21211819,10311619,20311409,42010809,41311609,30401219,41611309,11400119,0,40510109,11602019,10400109
21,318,610.176531015895,1,0,550190.606141887,550191.653216838,13,1,1,12,3,21810109,1200080,0,51903418,0,0,0,0,0,0,0,0,21810109,0,0,-1200080,0,0,0,0,0,0,0,0,0,0,0,0,0,0,0,0,30901909,0,0,0,0,0,21001509,0
21,319,651.4920812333,0,0,550193.288577581,550194.335663311,13,1,0,2,3,2001101,11301719,0,73221618,0,-2001101,0,0,0,0,0,0,0,0,11301719,0,0,0,0,0,0,0,0,0,0,0,0,0,0,0,0,42011009,0,0,0,0,0,0,31210609,0
21,320,893.304154044017,0,0,550196.123943252,550197.171032447,13,1,0,25,19,144033475,133435684,56303707,145014865,40600309,20401119,41210919,0,30810009,0,0,0,11011119,10800209,0,0,40010419,0,10011809,40601309,10411919,21600019,21400509,22001519,0,0,11810509,0,-1091170,0,0,40401509,0,30311209,20600519,0,0,31700319,22001309,0
21,321,769.805982941762,0,0,550199.265262806,550200.312368169,13,0,0,36,9,20012009,103313447,42622818,84921698,0,20012009,0,0,0,0,0,0,0,41302019,0,0,40110119,21901309,0,0,0,0,0,0,0,12011409,0,0,0,0,30611409,0,0,40110109,10510709,0,0,0,31210709,-3090171
21,322,426.776894601062,0,0,550202.112357467,550203.159451281,13,0,0,22,19,123923427,84514957,117517704,155947494,0,0,40010309,42011409,0,0,0,0,41901709,11801619,0,0,31312019,0,0,0,41401319,0,31701119,11111319,0,-1190201,30602019,10800109,11501409,10401119,10210409,30701519,40211319,11710709,11711519,0,41111919,0,20500509,0
21,323,732.379693421535,1,0,550204.747731683,550205.794820108,13,0,1,13,9,62411038,26161830,83923646,52012018,0,0,31000719,0,0,0,0,0,31410319,0,0,0,-4161121,0,0,0,0,22000709,0,0,10611209,0,0,20710419,11901309,0,40700709,0,31810509,0,0,0,0,0,20201509,0
21,324,521.108113578521,1,0,550207.594870615,550208.642050276,13,0,1,18,19,218337913,138845595,41000819,105757655,40810619,0,31701319,30401209,30410109,11801419,31311619,41901619,0,10600519,12010619,0,30710909,31801219,31601409,21010819,0,-1110101,0,0,0,0,0,0,0,0,41000819,0,21212019,32011709,21711509,0,20111709,10710709,0,0
21,325,1195.34567906521,0,0,550210.218484274,550211.265567695,13,1,0,10,19,133432585,88623506,123434575,72622375,30410419,0,40101019,31410619,0,0,11500319,0,20010209,-4090150,20501719,0,0,0,10710009,31511119,0,21810509,0,30901109,20001519,21210219,0,41010109,10311619,0,0,0,30310519,0,10910419,10300609,0,10000819,0,11100009
21,326,485.997364041395,1,0,550213.500935521,550214.548015477,13,1,1,8,9,12741859,20611019,92235336,61613457,0,0,0,0,10700809,0,0,-2041050,0,0,0,0,0,20611019,0,0,0,0,0,0,40912009,30310809,0,10400709,0,10611809,0,10211719,40701619,0,0,0,10700119,0,0,0
21,327,869.857721729204,1,0,550216.148094933,550217.195148326,13,0,1,27,3,20510309,82300038,4131040,0,20510309,0,0,0,0,0,0,0,0,0,0,0,0,41500019,40800019,0,0,0,0,0,0,0,0,0,0,0,-4131040,0,0,0,0,0,0,0,0,0
21,328,1242.25394206587,1,0,550219.230569739,550220.27759657,13,0,1,32,31,177959002,228759131,155266183,218686914,21111619,31300509,31911009,10710119,0,20101409,20912009,20410919,21501409,11601819,11301309,31810609,31311709,31010009,40011319,41300819,10210019,20201519,40411709,0,10910309,0,10011209,21210409,11211419,41510809,20000319,40311619,41500809,31211709,40810209,-2041041,11111409,30000109,0,21700009
21,329,629.833022714593,1,0,550222.560074379,550223.60714394,13,0,1,1,31,190777083,148037493,197937493,232168321,-2120171,20011509,31210319,32000219,11010009,22011209,21410919,20001309,31001419,10102019,32000519,11010509,11201619,41110009,30701209,11911609,0,0,31100109,20300209,41111019,11911319,0,21311409,0,40301409,31902019,31010719,21910109,32001909,40511909,11101509,11111619,11210119,31900109,41410319
21,330,621.71227124054,0,0,550225.313054169,550226.360126811,13,1,0,29,9,72122757,91224737,21100009,33073348,31210519,0,0,0,0,0,20101619,20810619,0,0,0,0,0,0,0,40301609,20111119,30812009,0,21100009,0,0,0,0,0,0,0,11101109,-1161130,20811109,0,0,0,0,0,0
21,331,573.525552870706,1,0,550228.113132008,550229.160219663,13,1,1,4,31,162216493,151736722,245057813,176626002,20801909,11910209,10310209,-4161011,11100609,11310109,11610409,40000819,41011209,11711109,11110619,21300319,21501719,11910809,31401619,12000419,30800109,0,41912019,0,30411419,0,40000209,41411119,21111219,30200219,40011609,10200119,0,10700009,11710709,40200509,40601709,21401019,10411309,31400619
21,332,638.075806782581,1,0,550230.842620326,550231.889706056,13,0,1,19,3,20212009,30511919,2121071,11300019,0,0,0,0,0,0,0,0,20212009,0,0,0,0,0,0,0,0,30511919,-2121071,0,0,0,0,0,0,0,0,0,0,0,0,0,0,0,11300019,0
21,333,597.099407226779,0,0,550233.701526744,550234.748618249,13,0,0,11,19,107037074,116633357,154745884,83533927,11901809,10100609,12011419,40411019,11001409,0,0,21610809,0,10511819,-4120001,0,0,40000109,31900519,0,0,30100909,0,11300009,30811919,30911309,30701419,0,0,21010309,30010919,0,30710309,0,21412009,0,0,0,31411609,0
21,334,550.135709811002,1,0,550236.360433624,550237.40750973,13,1,1,9,19,115844556,133233275,135742365,116243775,30510219,31210319,0,0,41411419,0,10601519,0,-2111080,40900619,30200219,0,0,30010619,0,0,11210609,20911209,20311009,31710409,0,0,40910419,0,11010519,31800009,0,21310609,0,0,0,0,31410519,41310619,10210309,12001719
21,335,833.72336125467,0,0,550239.042864314,550240.089987,13,0,0,33,3,10111309,0,21000319,13911139,0,10111309,0,0,0,0,0,0,0,0,0,0,0,0,0,0,0,0,0,0,0,21000319,0,0,0,0,0,0,0,0,0,0,-2011020,11900119,0,0
21,336,689.861525199376,0,0,550242.042968638,550243.090034736,13,1,0,35,3,0,20100419,41511018,1021030,0,0,0,0,0,0,0,0,0,0,0,0,0,20100419,0,0,0,0,10900609,0,0,0,0,0,30610409,0,0,0,0,0,0,0,0,0,-1021030,0
21,337,420.697591151111,1,0,550244.948939229,550245.996006481,13,1,1,3,9,93792738,63113347,52603728,30901619,0,31900109,-1191191,0,40100519,0,0,20600919,0,0,21411719,11701219,0,30000409,0,0,0,0,41202019,0,0,0,11401709,0,0,0,0,0,0,0,30901619,0,0,0,0,0
21,338,447.846192982979,1,1,550247.454918828,550248.501957207,13,0,0,24,9,0,81923847,75174547,102013337,0,0,0,0,0,0,0,0,0,0,40301409,31211719,0,0,0,0,0,10410719,21810719,0,0,0,0,-1041190,40511919,0,11810719,0,0,30610909,0,0,0,30000519,0,41401909
21,339,840.157213737257,0,0,550253.89035279,550254.937446989,14,0,0,32,19,176234794,92403666,82413156,156346426,0,0,11311719,30710019,20601409,40400619,32000219,0,41210809,0,32002019,10000809,0,0,30000819,0,20400019,0,21700519,10210709,0,20301419,0,0,0,30200509,0,11111319,30110609,0,32011409,-2100161,40701609,40311319,0,0
21,340,754.118053941056,0,0,550256.79632723,550257.843413345,14,1,0,10,19,133432585,88623506,123434575,72622375,30410419,0,40101019,31410619,0,0,11500319,0,20010209,-4090150,20501719,0,0,0,10710009,31511119,0,21810509,0,30901109,20001519,21210219,0,41010109,10311619,0,0,0,30310519,0,10910419,10300609,0,10000819,0,11100009
21,341,691.526481299661,1,0,550259.725812391,550260.772903126,14,1,1,25,19,144033475,133435684,56303707,145014865,40600309,20401119,41210919,0,30810009,0,0,0,11011119,10800209,0,0,40010419,0,10011809,40601309,10411919,21600019,21400509,22001519,0,0,11810509,0,-1091170,0,0,40401509,0,30311209,20600519,0,0,31700319,22001309,0
21,342,489.890474360436,1,0,550262.549438292,550263.596521713,14,1,1,8,9,12741859,20611019,92235336,61613457,0,0,0,0,10700809,0,0,-2041050,0,0,0,0,0,20611019,0,0,0,0,0,0,40912009,30310809,0,10400709,0,10611809,0,10211719,40701619,0,0,0,10700119,0,0,0
21,343,507.780380081385,1,0,550265.137809161,550266.184843306,14,1,1,3,9,93792738,63113347,52603728,30901619,0,31900109,-1191191,0,40100519,0,0,20600919,0,0,21411719,11701219,0,30000409,0,0,0,0,41202019,0,0,0,11401709,0,0,0,0,0,0,0,30901619,0,0,0,0,0
21,344,1130.10095560458,0,0,550267.820185571,550268.867268606,14,1,0,2,3,2001101,11301719,0,73221618,0,-2001101,0,0,0,0,0,0,0,0,11301719,0,0,0,0,0,0,0,0,0,0,0,0,0,0,0,0,42011009,0,0,0,0,0,0,31210609,0
21,345,473.268244997598,1,0,550271.126159087,550272.173251746,14,0,1,21,3,32212138,0,4081091,10200609,0,0,0,21401619,10810519,0,0,0,0,0,0,0,0,0,0,0,0,0,0,0,-4081091,0,0,0,0,0,0,0,0,0,0,0,10200609,0,0,0
21,346,569.280203431845,0,0,550273.843941512,550274.890988746,14,1,0,4,31,162216493,151736722,245057813,176626002,20801909,11910209,10310209,-4161011,11100609,11310109,11610409,40000819,41011209,11711109,11110619,21300319,21501719,11910809,31401619,12000419,30800109,0,41912019,0,30411419,0,40000209,41411119,21111219,30200219,40011609,10200119,0,10700009,11710709,40200509,40601709,21401019,10411309,31400619
21,347,616.899874294177,1,0,550276.620443187,550277.667513518,14,0,1,18,31,219448941,176949923,261245812,239227513,21311019,30510609,21901119,31710109,21601519,20901019,40700519,20601909,10211119,20501719,30411409,31510219,20211119,31001619,0,32011819,10110919,-1191100,40710509,31910009,21900019,40200019,21601609,31411709,0,41811419,31700519,41501919,31201719,41911209,0,31600719,0,40311319,21000209,31700419
21,348,517.27890688926,1,0,550279.302914297,550280.349984244,14,1,1,16,31,267756421,229605534,156770203,229247302,41700819,41100019,11300809,20411509,30211219,40110409,10810709,41600809,30510119,40200619,21300309,41101109,11000419,31800819,41700509,-2090031,40411719,0,0,11311219,21111909,41901719,0,30610509,21211819,10311619,20311409,42010809,41311609,30401219,41611309,11400119,0,40510109,11602019,10400109
