sub_id,Trial,RT,Resp,Error,Fix_onset,Disp_onset,block,repeat,tid,tloc,d_setsize,quad1,quad2,quad3,quad4,loc1,loc2,loc3,loc4,loc5,loc6,loc7,loc8,loc9,loc10,loc11,loc12,loc13,loc14,loc15,loc16,loc17,loc18,loc19,loc20,loc21,loc22,loc23,loc24,loc25,loc26,loc27,loc28,loc29,loc30,loc31,loc32,loc33,loc34,loc35,loc36
20,1,2013.39977490716,1,0,634877.686549718,634878.733631599,1,1,1,34,3,20610719,22011809,11910509,2091031,20610719,0,0,0,0,0,0,0,0,0,0,22011809,0,0,0,0,0,0,0,0,11910509,0,0,0,0,0,0,0,0,0,0,0,0,-2091031,0,0
20,2,658.332187216729,0,0,634881.898362553,634882.945441354,1,1,0,27,3,20800119,0,12440170,41500619,0,0,0,20800119,0,0,0,0,0,0,0,0,0,0,0,0,0,0,0,0,0,10310119,0,0,0,0,-2130051,0,0,0,0,0,0,0,0,41500619
20,3,851.289249490947,0,0,634884.651360052,634885.698421914,1,1,0,7,9,75143559,21511728,83102328,80620747,41101219,31901309,0,0,0,0,-2141031,0,0,0,0,0,0,0,11500309,0,0,10011419,41401809,0,0,41700519,0,0,0,0,0,10110109,0,30000619,0,0,40510019,0,0,0
20,4,900.560402893461,1,0,634887.604331296,634888.651398548,1,0,1,6,31,242617023,179030103,188236573,297551121,31110709,31210419,40900119,41601509,31010419,-4181101,22000219,10001509,30601019,12000119,21701919,0,0,11712009,41001919,30701709,21911919,40000509,12001309,40511509,30900909,41401309,0,0,11210209,41210409,11000919,41301609,40000019,41110219,20900009,31101809,40012019,21511609,41201809,20412019
20,5,733.553559053689,1,0,634890.569073107,634891.616137664,1,0,1,22,31,186645423,250555321,180836984,209457602,21402019,21111819,0,30510219,20010519,31610019,21900819,0,40100009,20310509,21400109,40910619,20710209,41310519,21800219,40401209,11710709,32001219,20300009,0,20800309,-4001011,21910009,21701709,40212009,21410819,30501109,31911509,21611609,41211609,10401519,0,21610519,41510609,10400209,30800019
20,6,804.439885425381,0,0,634893.510283408,634894.55735528,1,0,0,30,3,0,31910019,11910019,12992799,0,0,0,0,0,0,0,0,0,0,0,0,31910019,0,0,0,0,0,0,0,0,11910019,0,0,0,0,0,0,0,-1181190,0,0,0,0,0,11811609
20,7,874.405770213343,0,0,634896.451500255,634897.498565967,1,1,0,36,9,83534057,41122718,31410909,87133118,0,0,0,0,21910819,21311319,40311919,0,0,0,10311609,0,0,0,0,30811109,0,0,0,0,0,31410909,0,0,0,0,0,0,10800609,0,0,0,0,41310819,30900619,-4121071
20,8,783.968431525864,1,0,634899.498597149,634900.545659011,1,0,1,14,19,164533554,144275296,132915336,112415466,40110409,21200409,0,20901409,20110109,0,0,30301209,31910009,30101309,0,20000119,0,-1140031,0,40911609,31311109,20811119,0,40011009,11200909,0,40701709,0,0,41001709,0,30900019,0,40411919,0,10501709,0,0,0,30601819
20,9,722.427032422274,0,0,634902.475101441,634903.522184092,1,1,0,9,19,120305766,195342804,114057695,85516066,0,11901509,0,31410509,31910709,0,0,41001919,-4081120,11510019,41410319,30610319,0,30400419,0,0,41100819,40310909,10111919,21911019,0,21512019,0,0,40011219,20511519,0,20701619,11811319,41201119,0,0,0,0,0,11802009
20,10,607.555836555548,0,0,634905.275142324,634906.322201492,1,0,0,10,19,248126803,24741240,198345493,81314556,41710319,30210409,41901919,30900019,0,41001219,21002009,41400909,0,-3030031,21711209,0,0,0,0,0,0,0,41211009,20610209,0,10200819,11911209,0,31110919,41700419,41600909,10600709,0,30012019,0,0,0,30201219,0,10500609
20,11,682.456535869278,1,0,634908.02812173,634909.075183207,1,1,1,32,0,0,0,0,0,0,0,0,0,0,0,0,0,0,0,0,0,0,0,0,0,0,0,0,0,0,0,0,0,0,0,0,0,0,0,0,-10710191,0,0,0,0
20,12,834.879903588444,1,0,634910.792847064,634911.83991855,1,1,1,11,19,72313238,134736696,146536084,145943874,0,41301219,0,0,0,0,0,0,31012019,30001309,-1011041,0,31210909,0,20701509,0,21500009,30311919,20611419,0,20800719,0,21210409,41712019,0,20801009,21400509,40001109,0,0,30610219,11200809,20810009,0,31911019,11410709
20,13,708.646969869733,0,0,634913.698827663,634914.745840251,1,0,0,28,3,0,62822838,0,34091119,0,0,0,0,0,0,0,0,0,0,0,42011119,0,20811719,0,0,0,0,0,0,0,0,0,0,0,0,0,-3181110,0,30910009,0,0,0,0,0,0
20,14,743.319248664193,0,0,634916.522333456,634917.569409178,1,1,0,35,9,82421847,53311528,42002338,63291879,0,0,0,0,30810319,0,0,40411319,11200209,0,31600909,0,0,21710619,0,0,0,0,0,0,0,31001019,11001319,0,0,0,0,0,40400109,0,0,0,20701709,0,-2190061,0
20,15,813.683953136206,1,0,634919.498842369,634920.54591424,1,0,1,15,31,167546293,169329114,208259342,310740331,20600809,0,21000619,11211409,42011709,0,11711709,20600019,40410019,20901509,11501319,10301119,10310809,31101309,-3191021,0,40011219,42010809,21611419,11511419,40711309,30201419,0,30800719,21710519,10611119,41101419,40700719,31102009,10001419,41910509,41300019,41810909,31301209,31611519,41002019
20,16,709.759506979026,1,0,634922.463603812,634923.510658745,1,0,1,24,9,50112118,113113347,52941799,43121328,0,10101609,0,40010509,0,0,0,0,0,0,41511919,40600509,31000919,0,0,0,0,0,0,0,0,0,20510709,-1130071,0,0,31301019,0,0,11810809,0,0,0,0,31310519,0
20,17,675.773228518665,1,0,634925.263657784,634926.310698858,1,1,1,20,19,74534846,126035345,146674105,123432556,0,0,0,11201209,30211909,0,11310319,0,21811409,0,20601209,0,40400209,11810609,0,11511809,0,41711509,20511019,-2040111,30111019,31101009,0,0,10800419,31900009,20210519,30200609,0,41810519,0,31211419,0,0,20210009,0
20,18,709.138564998284,0,0,634928.040127507,634929.087196299,1,0,0,19,19,135357294,115335174,94292718,84803166,21811709,30501219,0,0,0,11310609,20110719,41611219,10011819,21711319,10000809,0,20901809,11210309,0,40300909,11210019,0,-1070081,0,0,0,31810319,41011009,0,0,20401309,0,11400019,0,0,10001819,0,0,32000009,31401319
20,19,615.923347882926,0,0,634930.875517815,634931.92255735,1,0,0,12,9,136333576,44472789,33301238,33513528,41500819,41910419,20911819,0,0,0,32010519,0,0,0,0,-4061080,40411709,0,0,0,0,0,0,21600419,0,0,0,11700819,0,0,0,21811919,0,0,0,0,0,11701609,0,0
20,20,641.942474409007,1,0,634933.675490945,634934.722605162,1,0,1,23,9,142133756,30810009,93322347,41611319,0,20201309,0,0,41410719,0,40210719,40311009,0,30810009,0,0,0,0,0,0,0,0,0,0,0,0,-1111010,0,30400419,31100509,30710409,0,0,0,0,0,41611319,0,0,0
20,21,601.860724040307,1,0,634936.381410412,634937.428476509,1,0,1,2,0,0,0,0,0,0,-41410401,0,0,0,0,0,0,0,0,0,0,0,0,0,0,0,0,0,0,0,0,0,0,0,0,0,0,0,0,0,0,0,0,0,0
20,22,599.629490287043,1,0,634939.063797217,634940.11085061,1,1,1,18,3,42001809,1011141,52001938,0,0,0,0,0,0,0,42001809,0,0,0,0,0,0,0,0,0,0,-1011141,30400019,21601919,0,0,0,0,0,0,0,0,0,0,0,0,0,0,0,0
20,23,933.660886134021,0,0,634941.769711295,634942.816780857,1,1,0,33,31,206959792,146648683,228139892,182637902,10401209,41500619,41611109,12010709,10310519,0,20811909,40201809,30111909,10200419,20111409,21911809,21711309,0,0,21601209,10301309,40811219,0,31111709,31201809,30101009,40611009,11611309,41700919,11500109,30302019,41701219,20210309,10601019,11500609,10000319,-4101190,41900709,30811419,11811109
20,24,618.126094574109,1,0,634944.899160192,634945.946227444,1,0,1,21,3,0,10700819,24571400,31810819,0,0,0,0,0,0,0,0,0,0,10700819,0,0,0,0,0,0,0,0,0,-3060081,0,0,0,21511319,0,0,0,0,0,0,0,31810819,0,0,0
20,25,722.421257989481,0,0,634947.628604624,634948.675677651,1,1,0,26,31,187247103,188157551,242038253,166366032,21811609,40510209,31711719,31611619,10000119,0,0,41600219,10001609,30000419,12000319,41210019,10900319,11311819,21300609,11111819,30011309,20310919,21110719,0,41911519,41900119,30401709,40611519,41401019,-3100130,21601519,41410419,20110819,0,30511509,30710209,10201319,11810819,10410019,11200919
20,26,737.267277436331,0,0,634950.569829555,634951.616891032,1,1,0,8,31,210367752,227556011,199647392,165123584,41901409,20310019,20011609,22010319,41410519,41710419,10600609,-1011030,11401819,31111209,11000509,40111419,21710009,10000119,40311209,21501309,31500119,20310109,42011019,30110009,11400709,31701609,30611209,10501919,11810209,31500709,0,20800219,0,31911709,40600119,21300119,0,20100509,0,30410909
20,27,765.252014505677,0,0,634986.558508623,634987.605572795,2,0,0,30,9,105124356,20111719,71711838,45184109,0,0,0,31500219,21711119,0,0,40211709,11701309,0,0,20111719,0,0,0,0,0,0,0,0,0,0,0,41101419,0,0,30610419,0,0,-2161081,0,11711609,0,0,31311419,0
20,28,758.500184165314,1,0,634989.429135948,634990.47620243,2,1,1,26,31,187247103,188157551,242038253,166366032,21811609,40510209,31711719,31611619,10000119,0,0,41600219,10001609,30000419,12000319,41210019,10900319,11311819,21300609,11111819,30011309,20310919,21110719,0,41911519,41900119,30401709,40611519,41401019,-3100130,21601519,41410419,20110819,0,30511509,30710209,10201319,11810819,10410019,11200919
20,29,588.697753846645,1,0,634992.382113736,634993.429182143,2,1,1,32,0,0,0,0,0,0,0,0,0,0,0,0,0,0,0,0,0,0,0,0,0,0,0,0,0,0,0,0,0,0,0,0,0,0,0,0,-10710191,0,0,0,0
20,30,673.670956748538,1,0,634995.040995594,634996.088032434,2,1,1,33,31,206959792,146648683,228139892,182637902,10401209,41500619,41611109,12010709,10310519,0,20811909,40201809,30111909,10200419,20111409,21911809,21711309,0,0,21601209,10301309,40811219,0,31111709,31201809,30101009,40611009,11611309,41700919,11500109,30302019,41701219,20210309,10601019,11500609,10000319,-4101190,41900709,30811419,11811109
20,31,618.937592254952,1,0,634997.958652829,634999.005717002,2,0,1,12,3,0,32070139,21511319,21511809,0,0,0,0,0,0,0,0,0,0,0,-1070120,0,0,0,0,31000019,0,0,0,0,0,0,21511319,0,0,0,0,0,0,0,0,0,21511809,0,0
20,32,1258.44474986661,0,0,635000.829284773,635001.876339322,2,0,0,6,31,233650202,196028612,197126623,194967092,41510919,21701709,40411209,31201909,40202019,-4101110,10710209,31810609,12000509,0,10401619,20101609,20101919,40510609,21100319,21001019,41511009,21300509,30300719,21501619,21901719,30610109,41710219,0,0,10200219,40902019,40211509,0,21010209,40310509,20701809,11502019,20810709,10010009,30410319
20,33,677.008568309247,0,0,635004.158743988,635005.205799691,2,0,0,23,19,53424727,218035613,124245476,145635375,0,0,31401309,0,0,11511509,0,0,10511909,40300519,0,11400709,0,40300719,20910009,32011519,42010219,31101919,41011009,30000909,0,30201519,-1031120,0,0,22000919,0,21200819,40710509,0,12001219,0,30811019,0,0,40911809
20,34,583.059230702929,1,0,635007.064639126,635008.111715232,2,0,1,10,3,42712028,4011081,10510409,0,0,0,21400119,0,0,0,0,0,21311909,-4011081,0,0,0,0,0,0,0,0,10510409,0,0,0,0,0,0,0,0,0,0,0,0,0,0,0,0,0
20,35,610.458442126401,1,0,635009.794093567,635010.841158509,2,0,1,21,9,80912218,113125556,32381910,52511818,0,0,40600409,0,0,40311809,0,0,0,0,0,21001109,0,30412009,31010519,30701919,0,0,0,0,-2181001,0,0,0,0,30200909,0,0,41600609,0,0,0,0,0,0,10911209
20,36,638.191414764151,0,0,635012.476483451,635013.523557247,2,0,0,15,31,165858802,239089293,196558193,260237392,20711519,10001819,0,10210109,20510519,21301109,10511209,31702009,40910509,31202009,20911409,31110009,40310709,10611519,-3021101,40401119,30411109,31110309,30211419,0,31810419,0,30901119,10712009,20811909,31700709,40410609,0,21000509,20911819,31700609,31111609,41711309,40400309,31600809,41800419
20,37,606.539154541679,1,0,635015.358874798,635016.405933581,2,1,1,11,19,72313238,134736696,146536084,145943874,0,41301219,0,0,0,0,0,0,31012019,30001309,-1011041,0,31210909,0,20701509,0,21500009,30311919,20611419,0,20800719,0,21210409,41712019,0,20801009,21400509,40001109,0,0,30610219,11200809,20810009,0,31911019,11410709
20,38,639.473334769718,0,0,635018.147132026,635019.194209286,2,1,0,7,9,75143559,21511728,83102328,80620747,41101219,31901309,0,0,0,0,-2141031,0,0,0,0,0,0,0,11500309,0,0,10011419,41401809,0,0,41700519,0,0,0,0,0,10110109,0,30000619,0,0,40510019,0,0,0
20,39,575.371175305918,1,0,635020.853059963,635021.900121825,2,0,1,22,19,106915094,92813756,108072667,155267204,11401519,10501609,10900019,11300019,0,0,0,20900719,41911209,0,20900209,0,0,30710419,0,0,30301719,10901409,31601809,0,0,-4050030,0,41310009,31110819,0,0,22011909,20211919,20411819,0,0,0,11510719,40810719,40310119
20,40,615.056415786967,0,0,635023.523730865,635024.570747687,2,1,0,9,19,120305766,195342804,114057695,85516066,0,11901509,0,31410509,31910709,0,0,41001919,-4081120,11510019,41410319,30610319,0,30400419,0,0,41100819,40310909,10111919,21911019,0,21512019,0,0,40011219,20511519,0,20701619,11811319,41201119,0,0,0,0,0,11802009
20,41,674.848937313072,0,0,635026.276706035,635027.323720548,2,1,0,35,9,82421847,53311528,42002338,63291879,0,0,0,0,30810319,0,0,40411319,11200209,0,31600909,0,0,21710619,0,0,0,0,0,0,0,31001019,11001319,0,0,0,0,0,40400109,0,0,0,20701709,0,-2190061,0
20,42,614.106717170216,0,0,635029.194331319,635030.2414055,2,1,0,8,31,210367752,227556011,199647392,165123584,41901409,20310019,20011609,22010319,41410519,41710419,10600609,-1011030,11401819,31111209,11000509,40111419,21710009,10000119,40311209,21501309,31500119,20310109,42011019,30110009,11400709,31701609,30611209,10501919,11810209,31500709,0,20800219,0,31911709,40600119,21300119,0,20100509,0,30410909
20,43,775.071983691305,1,0,635031.900255021,635032.947313804,2,0,1,28,9,101920537,40010219,72301828,84644038,40000509,0,0,21010019,0,40910009,0,0,0,0,0,40010219,0,0,0,0,0,0,0,40601819,0,0,31700009,0,0,0,0,-3121191,0,31011219,0,0,0,0,40010619,10501009
20,44,582.293543266132,0,0,635034.75910562,635035.806172872,2,0,0,3,0,0,0,0,0,0,0,-11811301,0,0,0,0,0,0,0,0,0,0,0,0,0,0,0,0,0,0,0,0,0,0,0,0,0,0,0,0,0,0,0,0,0
20,45,631.052784970962,1,0,635037.394471368,635038.441304862,2,0,1,24,3,30710019,0,43600819,21511909,0,0,0,0,0,0,0,30710019,0,0,0,0,0,0,0,0,0,0,0,0,0,0,0,-3100110,0,40500709,0,0,0,0,0,0,21511909,0,0,0
20,46,476.505116326734,1,0,635040.276821909,635041.323896475,2,1,1,18,3,42001809,1011141,52001938,0,0,0,0,0,0,0,42001809,0,0,0,0,0,0,0,0,0,0,-1011141,30400019,21601919,0,0,0,0,0,0,0,0,0,0,0,0,0,0,0,0
20,47,686.024738941342,1,0,635042.959212563,635044.006289438,2,1,1,20,19,74534846,126035345,146674105,123432556,0,0,0,11201209,30211909,0,11310319,0,21811409,0,20601209,0,40400209,11810609,0,11511809,0,41711509,20511019,-2040111,30111019,31101009,0,0,10800419,31900009,20210519,30200609,0,41810519,0,31211419,0,0,20210009,0
20,48,786.951878922991,1,0,635045.700437185,635046.747492503,2,1,1,34,3,20610719,22011809,11910509,2091031,20610719,0,0,0,0,0,0,0,0,0,0,22011809,0,0,0,0,0,0,0,0,11910509,0,0,0,0,0,0,0,0,0,0,0,0,-2091031,0,0
20,49,568.215520936064,0,0,635048.618107894,635049.665174376,2,0,0,14,19,116744756,133196354,132122256,116726475,32011809,0,41911219,21611219,21210509,0,0,0,0,11911519,11810209,41900319,11011609,-4161080,0,11001409,0,41400209,30701009,0,30800419,0,0,40310709,30310119,0,0,20900519,0,0,21801219,0,41411919,11902009,0,20710809
20,50,733.325662091374,0,0,635051.382846702,635052.429922808,2,1,0,36,9,83534057,41122718,31410909,87133118,0,0,0,0,21910819,21311319,40311919,0,0,0,10311609,0,0,0,0,30811109,0,0,0,0,0,31410909,0,0,0,0,0,0,10800609,0,0,0,0,41310819,30900619,-4121071
20,51,586.086178664118,0,0,635054.277020164,635055.324068937,2,1,0,27,3,20800119,0,12440170,41500619,0,0,0,20800119,0,0,0,0,0,0,0,0,0,0,0,0,0,0,0,0,0,10310119,0,0,0,0,-2130051,0,0,0,0,0,0,0,0,41500619
20,52,890.99681773223,0,0,635057.018216299,635058.065268152,2,0,0,19,31,207140311,197535893,209855575,258635951,10910309,31801019,30711809,20401809,40711309,10101819,20200709,21801509,20500019,40800819,0,31701019,11500009,30210319,41410609,11001509,30911609,0,-3201091,0,30811319,41710809,0,41401509,31410119,20110109,41210619,11610619,30400409,41510319,20600119,10110019,40201319,42001809,40800819,21400519
20,53,788.529448909685,1,0,635093.18342268,635094.230428724,3,0,1,10,3,21611019,22181649,21501409,0,21611019,0,0,0,0,0,0,0,0,-1180040,0,0,21001609,0,0,0,0,0,21501409,0,0,0,0,0,0,0,0,0,0,0,0,0,0,0,0,0
20,54,738.474130048417,0,0,635096.042241713,635097.089301265,3,1,0,35,9,82421847,53311528,42002338,63291879,0,0,0,0,30810319,0,0,40411319,11200209,0,31600909,0,0,21710619,0,0,0,0,0,0,0,31001019,11001319,0,0,0,0,0,40400109,0,0,0,20701709,0,-2190061,0
20,55,694.840729935095,1,0,635098.948149554,635100.006973129,3,1,1,36,9,83534057,41122718,31410909,87133118,0,0,0,0,21910819,21311319,40311919,0,0,0,10311609,0,0,0,0,30811109,0,0,0,0,0,31410909,0,0,0,0,0,0,10800609,0,0,0,0,41310819,30900619,-4121071
20,56,937.419260037132,0,0,635101.783641107,635102.842381915,3,0,0,19,31,189426641,134756093,144832943,148525683,20100819,11401619,20200109,22001409,11910219,41311309,21100419,21000719,20400019,20400109,0,20011909,0,21311309,31010319,10900619,20211319,10910509,-4200201,31101919,11501619,10512009,11810919,10501719,21701519,31701119,11801919,21010609,0,20700709,31701609,0,21910509,30200419,11200419,11801409
20,57,599.004698684439,0,0,635104.924693498,635105.971793472,3,0,0,15,9,31913028,140994476,82923057,0,0,0,20111219,0,0,0,0,0,11801809,31801619,21700009,42001219,0,41311509,-4180120,0,0,0,10611219,0,41600119,30711719,0,0,0,0,0,0,0,0,0,0,0,0,0,0
20,58,587.689156178385,0,0,635107.771802788,635108.818890828,3,0,0,12,3,80610318,4030191,11710609,0,0,0,0,0,0,0,0,40610209,40000109,0,0,-4030191,0,0,0,0,0,0,0,0,0,0,0,0,11710609,0,0,0,0,0,0,0,0,0,0,0
20,59,468.978744582273,0,0,635110.571860224,635111.618935945,3,0,0,21,3,31911019,10000509,2150021,40211209,0,0,0,0,0,0,31911019,0,0,0,0,10000509,0,0,0,0,0,0,0,0,-2150021,0,0,0,0,0,0,0,0,0,0,40211209,0,0,0,0
20,60,676.408029277809,1,0,635113.113044887,635114.16010752,3,1,1,7,9,75143559,21511728,83102328,80620747,41101219,31901309,0,0,0,0,-2141031,0,0,0,0,0,0,0,11500309,0,0,10011419,41401809,0,0,41700519,0,0,0,0,0,10110109,0,30000619,0,0,40510019,0,0,0
20,61,676.995864487253,0,0,635116.042487703,635117.089551105,3,1,0,18,3,42001809,1011141,52001938,0,0,0,0,0,0,0,42001809,0,0,0,0,0,0,0,0,0,0,-1011141,30400019,21601919,0,0,0,0,0,0,0,0,0,0,0,0,0,0,0,0
20,62,601.83493164368,1,0,635118.783686533,635119.830765718,3,0,1,22,19,114625375,157038674,34923189,156427064,10511919,0,10700109,0,0,0,40901209,21001119,31511019,0,31601819,42001909,0,21010719,10412009,0,40611609,11400609,20501409,0,0,-4111071,0,0,10310709,0,0,0,0,41900209,30601009,31411719,30001909,12011409,0,10500809
20,63,753.474903758615,0,0,635121.524902301,635122.571969168,3,1,0,33,31,206959792,146648683,228139892,182637902,10401209,41500619,41611109,12010709,10310519,0,20811909,40201809,30111909,10200419,20111409,21911809,21711309,0,0,21601209,10301309,40811219,0,31111709,31201809,30101009,40611009,11611309,41700919,11500109,30302019,41701219,20210309,10601019,11500609,10000319,-4101190,41900709,30811419,11811109
20,64,535.931924940087,0,0,635124.395530781,635125.442595723,3,1,0,27,3,20800119,0,12440170,41500619,0,0,0,20800119,0,0,0,0,0,0,0,0,0,0,0,0,0,0,0,0,0,10310119,0,0,0,0,-2130051,0,0,0,0,0,0,0,0,41500619
20,65,717.164231115021,0,0,635127.066194369,635128.113209266,3,1,0,8,31,210367752,227556011,199647392,165123584,41901409,20310019,20011609,22010319,41410519,41710419,10600609,-1011030,11401819,31111209,11000509,40111419,21710009,10000119,40311209,21501309,31500119,20310109,42011019,30110009,11400709,31701609,30611209,10501919,11810209,31500709,0,20800219,0,31911709,40600119,21300119,0,20100509,0,30410909
20,66,621.640788158402,1,0,635129.948593799,635130.995661436,3,1,1,11,19,72313238,134736696,146536084,145943874,0,41301219,0,0,0,0,0,0,31012019,30001309,-1011041,0,31210909,0,20701509,0,21500009,30311919,20611419,0,20800719,0,21210409,41712019,0,20801009,21400509,40001109,0,0,30610219,11200809,20810009,0,31911019,11410709
20,67,611.971338745207,1,0,635132.70152547,635133.74865162,3,0,1,24,9,102524247,0,53883618,95724646,0,0,0,40701119,0,0,40611419,0,21211709,0,0,0,0,0,0,0,0,0,0,0,40210719,0,0,-3071090,0,0,10601809,11901909,0,0,0,30601809,41610509,11610419,0,0
20,68,678.589602932334,1,0,635135.513314206,635136.583903728,3,1,1,32,0,0,0,0,0,0,0,0,0,0,0,0,0,0,0,0,0,0,0,0,0,0,0,0,0,0,0,0,0,0,0,0,0,0,0,0,-10710191,0,0,0,0
20,69,697.828411939554,0,0,635138.383931907,635139.430993769,3,0,0,6,9,34183239,31100919,11410109,127326665,0,0,0,0,21201519,-2081111,0,10900609,0,0,0,0,0,0,0,0,31100919,0,0,11410109,0,0,0,0,0,0,0,0,41211319,0,0,21811509,20900809,0,11501909,31901119
20,70,492.626096704043,0,0,635141.313444785,635142.383807594,3,0,0,14,19,206635184,95194907,53133547,266047203,0,42002009,0,30710619,30710909,41401019,21510309,0,40300319,21110819,30201309,41701719,0,-2181060,0,0,0,0,0,0,0,11110619,0,20412009,0,21610919,0,41510519,41511609,40111209,40001919,0,20600809,0,40910319,41400819
20,71,560.008372063749,0,0,635144.007545566,635145.101466198,3,0,0,23,19,147735584,136647984,94843738,123413866,40301609,0,41810809,12010209,0,11811719,21400719,0,20400519,11811409,0,41100819,0,11301919,0,10711609,30210619,31511609,0,40011509,11300219,40511009,-3021001,0,0,0,0,0,0,30401719,0,31301919,40710209,0,0,21000019
20,72,661.348741385154,1,0,635146.689717822,635147.736989228,3,0,1,7,0,0,0,0,0,0,0,0,0,0,0,-10910291,0,0,0,0,0,0,0,0,0,0,0,0,0,0,0,0,0,0,0,0,0,0,0,0,0,0,0,0,0
20,73,505.894960951991,1,0,635149.525239142,635150.572338345,3,1,1,9,19,120305766,195342804,114057695,85516066,0,11901509,0,31410509,31910709,0,0,41001919,-4081120,11510019,41410319,30610319,0,30400419,0,0,41100819,40310909,10111919,21911019,0,21512019,0,0,40011219,20511519,0,20701619,11811319,41201119,0,0,0,0,0,11802009
20,74,616.38953560032,1,0,635152.195668506,635153.242945729,3,0,1,28,31,179028102,235136991,195480012,137757595,31701109,30100309,31401219,0,10700209,21400819,20602009,21310509,11811919,40900709,10310109,20202009,40710809,40000609,20810109,31501709,20000709,10700219,30511619,41511309,10211119,10901419,20211509,40011519,0,30110209,12011309,-2120101,0,0,40011809,20311519,11300009,31810519,21101919,11101719
20,75,554.900106275454,1,0,635154.878345353,635155.92531752,3,0,1,30,31,154347923,239459231,199580831,121994505,30001719,10411419,0,10110809,21901219,10310919,31411819,40200019,0,41311719,11610619,20001609,21501419,41711509,30810419,20410719,20700809,31400409,20111219,20010309,11301119,11911019,41600509,30911709,11011709,11111719,41611519,11300109,0,-4080131,0,22000919,20800419,11101409,30811409,21900109
20,76,523.925762507133,1,0,635157.537145984,635158.584182824,3,1,1,34,3,20610719,22011809,11910509,2091031,20610719,0,0,0,0,0,0,0,0,0,0,22011809,0,0,0,0,0,0,0,0,11910509,0,0,0,0,0,0,0,0,0,0,0,0,-2091031,0,0
20,77,568.022270570509,0,0,635160.290083044,635161.337148371,3,1,0,20,19,74534846,126035345,146674105,123432556,0,0,0,11201209,30211909,0,11310319,0,21811409,0,20601209,0,40400209,11810609,0,11511809,0,41711509,20511019,-2040111,30111019,31101009,0,0,10800419,31900009,20210519,30200609,0,41810519,0,31211419,0,0,20210009,0
20,78,740.320017910562,1,0,635162.94893757,635163.996003667,3,1,1,26,31,187247103,188157551,242038253,166366032,21811609,40510209,31711719,31611619,10000119,0,0,41600219,10001609,30000419,12000319,41210019,10900319,11311819,21300609,11111819,30011309,20310919,21110719,0,41911519,41900119,30401709,40611519,41401019,-3100130,21601519,41410419,20110819,0,30511509,30710209,10201319,11810819,10410019,11200919
20,79,754.555874154903,0,0,635198.808202386,635199.855286577,4,1,0,8,31,210367752,227556011,199647392,165123584,41901409,20310019,20011609,22010319,41410519,41710419,10600609,-1011030,11401819,31111209,11000509,40111419,21710009,10000119,40311209,21501309,31500119,20310109,42011019,30110009,11400709,31701609,30611209,10501919,11810209,31500709,0,20800219,0,31911709,40600119,21300119,0,20100509,0,30410909
20,80,624.054493382573,1,0,635201.631837142,635202.678837795,4,1,1,34,3,20610719,22011809,11910509,2091031,20610719,0,0,0,0,0,0,0,0,0,0,22011809,0,0,0,0,0,0,0,0,11910509,0,0,0,0,0,0,0,0,0,0,0,0,-2091031,0,0
20,81,528.328176005743,0,0,635204.3965209,635205.443577758,4,1,0,26,31,187247103,188157551,242038253,166366032,21811609,40510209,31711719,31611619,10000119,0,0,41600219,10001609,30000419,12000319,41210019,10900319,11311819,21300609,11111819,30011309,20310919,21110719,0,41911519,41900119,30401709,40611519,41401019,-3100130,21601519,41410419,20110819,0,30511509,30710209,10201319,11810819,10410019,11200919
20,82,567.983774468303,1,0,635206.996545307,635208.043617948,4,0,1,24,9,33122328,71800928,44761999,75512156,0,0,0,0,11410509,0,0,21711819,0,0,0,0,0,0,0,40800319,31000609,0,0,41610809,0,0,0,-3151190,0,0,0,31710419,0,11300019,20600709,11901009,0,0,0,0
20,83,422.988228499889,0,0,635209.796588499,635210.843643432,4,0,0,16,0,0,0,0,0,0,0,0,0,0,0,0,0,0,0,0,0,0,0,0,-40311291,0,0,0,0,0,0,0,0,0,0,0,0,0,0,0,0,0,0,0,0
20,84,549.83594478108,1,0,635212.384865822,635213.431921525,4,0,1,12,9,100526056,74881029,40102019,52222038,0,40011409,0,10401419,40011219,10102009,0,0,0,0,0,-3170011,0,31310809,0,0,0,40400209,0,40102019,0,0,0,0,0,0,0,0,31610319,0,0,0,0,20611719,0,0
20,85,467.249114997685,0,0,635215.114294856,635216.161366727,4,1,0,11,19,72313238,134736696,146536084,145943874,0,41301219,0,0,0,0,0,0,31012019,30001309,-1011041,0,31210909,0,20701509,0,21500009,30311919,20611419,0,20800719,0,21210409,41712019,0,20801009,21400509,40001109,0,0,30610219,11200809,20810009,0,31911019,11410709
20,86,687.639265321195,1,0,635217.690851657,635218.737884647,4,1,1,27,3,20800119,0,12440170,41500619,0,0,0,20800119,0,0,0,0,0,0,0,0,0,0,0,0,0,0,0,0,0,10310119,0,0,0,0,-2130051,0,0,0,0,0,0,0,0,41500619
20,87,535.615486907773,0,0,635220.443789487,635221.49083826,4,0,0,30,3,40910809,0,52412518,1091160,0,0,40910809,0,0,0,0,0,0,0,0,0,0,0,0,0,0,0,10501109,0,0,0,0,41911409,0,0,0,0,0,-1091160,0,0,0,0,0,0
20,88,479.56093645189,0,0,635223.19678737,635224.243821515,4,0,0,28,3,0,30511419,0,53482769,0,0,0,0,0,0,0,0,0,0,0,0,0,30511419,0,0,0,0,0,0,0,0,0,0,0,0,0,-1070041,31600819,0,0,0,20811909,0,0,0
20,89,565.717509365641,1,0,635225.79678175,635226.843851696,4,0,1,21,9,102903037,0,66541116,51321428,0,0,40901009,40501319,0,0,0,0,21500709,0,0,0,0,0,0,0,0,0,11210209,0,-3130180,10600009,10200509,0,0,0,31400209,20710809,0,0,0,30610619,0,0,0,0
20,90,675.882172537968,1,0,635228.467399912,635229.514469089,4,1,1,7,9,75143559,21511728,83102328,80620747,41101219,31901309,0,0,0,0,-2141031,0,0,0,0,0,0,0,11500309,0,0,10011419,41401809,0,0,41700519,0,0,0,0,0,10110109,0,30000619,0,0,40510019,0,0,0
20,91,447.829374345019,0,0,635231.361554126,635232.408664109,4,0,0,15,19,115735865,130574915,96134355,63223466,0,0,41701009,12001209,20811819,10211309,31010519,0,0,31310509,21500719,0,11300319,31601819,-4051130,0,0,30810419,11910019,11202009,0,0,30910709,0,31210009,10901609,0,11010119,0,11311919,0,0,10100119,30801309,0,0
20,92,711.42754284665,0,0,635233.89099594,635234.938066657,4,1,0,36,9,83534057,41122718,31410909,87133118,0,0,0,0,21910819,21311319,40311919,0,0,0,10311609,0,0,0,0,30811109,0,0,0,0,0,31410909,0,0,0,0,0,0,10800609,0,0,0,0,41310819,30900619,-4121071
20,93,642.824804759584,1,0,635236.66750185,635237.714581036,4,0,1,10,19,122312156,97916017,203575403,82725846,30110119,10300519,0,41100709,40800809,0,0,0,0,-3091161,30911609,20910509,0,21100719,0,21902019,0,0,11010509,40410119,11010719,0,0,40310619,30111209,30310809,40411419,0,0,0,31311809,10301309,0,30110819,11001909,0
20,94,518.25605740305,0,0,635239.538121475,635240.585195272,4,0,0,23,19,122844956,153134065,118656806,174226765,0,10611919,0,41011209,0,0,30510319,0,40711509,30010909,0,31410019,0,31401909,0,20000209,40311019,0,11501909,0,0,31701709,-3131061,21400009,0,20511309,30410809,0,41101109,31110909,40001119,0,41811909,0,0,20201719
20,95,616.026902454905,0,0,635242.126437294,635243.17346759,4,0,0,19,3,10201309,62102418,2090080,0,0,0,0,0,0,0,0,0,10201309,0,0,0,0,30500409,0,31602009,0,0,-2090080,0,0,0,0,0,0,0,0,0,0,0,0,0,0,0,0,0
20,96,484.456870006397,0,0,635244.914658721,635245.961734057,4,1,0,18,3,42001809,1011141,52001938,0,0,0,0,0,0,0,42001809,0,0,0,0,0,0,0,0,0,0,-1011141,30400019,21601919,0,0,0,0,0,0,0,0,0,0,0,0,0,0,0,0
20,97,577.453044243157,1,0,635247.514698141,635248.561761928,4,0,1,22,31,225946022,198668292,180207424,208648411,11501209,30000419,40610509,0,40400419,31010409,40311019,21600419,10511619,41412019,12000409,31500519,20110009,0,30511609,21811809,20910809,20411109,0,21001009,21101309,-4080140,20711709,42011819,40200319,31101119,0,20600219,11801519,10910609,20210809,41400509,30401809,20600309,32011709,20710919
20,98,717.295502778143,1,0,635250.19707994,635251.244160666,4,0,1,6,31,178667263,215546903,217239322,179057392,10911119,40811319,10200419,10610719,31800909,-1121131,10400009,21611519,41200119,40601909,0,20301219,41010109,31210209,40301419,0,11912019,30210019,11500919,30500419,0,41202019,30211719,22002019,30000409,21711409,30110409,30812009,30900219,30910709,0,21811409,21600709,10111009,11100209,21811119
20,99,527.225262834691,0,0,635253.150047335,635254.197126136,4,0,0,14,31,138347454,140136824,310159921,290340851,0,21811309,0,11210409,21302009,31710209,41511809,0,10801709,10500409,21811419,10211619,11110019,-3180031,11101309,40710809,31511209,0,10610709,41211519,41501719,42010619,40700009,40500709,41611409,11511709,40501519,10511019,41100319,20601519,31800409,31212019,40510219,40701819,32001909,41901619
20,100,672.10031603463,1,0,635255.855984126,635256.903036749,4,1,1,32,0,0,0,0,0,0,0,0,0,0,0,0,0,0,0,0,0,0,0,0,0,0,0,0,0,0,0,0,0,0,0,0,0,0,0,0,-10710191,0,0,0,0
20,101,749.538292991929,1,0,635258.632510438,635259.679554208,4,1,1,35,9,82421847,53311528,42002338,63291879,0,0,0,0,30810319,0,0,40411319,11200209,0,31600909,0,0,21710619,0,0,0,0,0,0,0,31001019,11001319,0,0,0,0,0,40400109,0,0,0,20701709,0,-2190061,0
20,102,845.648801419884,1,0,635261.585499391,635262.632530456,4,1,1,33,31,206959792,146648683,228139892,182637902,10401209,41500619,41611109,12010709,10310519,0,20811909,40201809,30111909,10200419,20111409,21911809,21711309,0,0,21601209,10301309,40811219,0,31111709,31201809,30101009,40611009,11611309,41700919,11500109,30302019,41701219,20210309,10601019,11500609,10000319,-4101190,41900709,30811419,11811109
20,103,603.404417517595,0,0,635264.585483222,635265.632563948,4,1,0,20,19,74534846,126035345,146674105,123432556,0,0,0,11201209,30211909,0,11310319,0,21811409,0,20601209,0,40400209,11810609,0,11511809,0,41711509,20511019,-2040111,30111019,31101009,0,0,10800419,31900009,20210519,30200609,0,41810519,0,31211419,0,0,20210009,0
20,104,563.965552020818,1,0,635267.350231269,635268.397316614,4,1,1,9,19,120305766,195342804,114057695,85516066,0,11901509,0,31410509,31910709,0,0,41001919,-4081120,11510019,41410319,30610319,0,30400419,0,0,41100819,40310909,10111919,21911019,0,21512019,0,0,40011219,20511519,0,20701619,11811319,41201119,0,0,0,0,0,11802009
20,105,578.710326692089,1,0,635303.091838928,635304.138937747,5,0,1,22,19,194937674,53824647,147786176,106033775,0,0,31201719,30802009,41510219,30101709,0,20711709,40610309,0,11811719,0,0,0,30011419,0,12001509,0,11811419,0,31300519,-2160091,0,0,20401519,40811109,41301519,0,20611109,10611509,0,0,21800319,0,41800319,11210519
20,106,595.797203946859,0,0,635305.797563147,635306.844819103,5,1,0,8,31,210367752,227556011,199647392,165123584,41901409,20310019,20011609,22010319,41410519,41710419,10600609,-1011030,11401819,31111209,11000509,40111419,21710009,10000119,40311209,21501309,31500119,20310109,42011019,30110009,11400709,31701609,30611209,10501919,11810209,31500709,0,20800219,0,31911709,40600119,21300119,0,20100509,0,30410909
20,107,689.907070249319,1,0,635308.527200903,635309.57426854,5,1,1,36,9,83534057,41122718,31410909,87133118,0,0,0,0,21910819,21311319,40311919,0,0,0,10311609,0,0,0,0,30811109,0,0,0,0,0,31410909,0,0,0,0,0,0,10800609,0,0,0,0,41310819,30900619,-4121071
20,108,501.278124167584,0,0,635311.327235626,635312.374304803,5,0,0,23,9,52402028,20100209,66962138,63304437,0,0,0,0,0,0,0,40701709,11700319,0,0,0,20100209,0,0,0,0,0,0,31801119,0,10000519,-4050091,0,21110409,0,0,30600809,0,20901809,0,11801819,0,0,0,0
20,109,422.361897071823,1,0,635314.021584322,635315.06845178,5,0,1,15,9,20902019,74931749,124713766,60801318,0,0,0,0,0,0,20902019,0,0,0,0,0,30010619,0,-4010011,0,0,40911119,0,30710819,40801909,0,0,0,21600319,31600719,0,0,20600609,0,40200709,0,0,0,0,0
20,110,464.454298489727,0,0,635316.680241748,635317.727304765,5,1,0,18,3,42001809,1011141,52001938,0,0,0,0,0,0,0,42001809,0,0,0,0,0,0,0,0,0,0,-1011141,30400019,21601919,0,0,0,0,0,0,0,0,0,0,0,0,0,0,0,0
20,111,515.807320713066,1,0,635319.350862605,635320.397937941,5,1,1,35,9,82421847,53311528,42002338,63291879,0,0,0,0,30810319,0,0,40411319,11200209,0,31600909,0,0,21710619,0,0,0,0,0,0,0,31001019,11001319,0,0,0,0,0,40400109,0,0,0,20701709,0,-2190061,0
20,112,480.819373740815,0,0,635322.056587879,635323.103843551,5,0,0,21,19,107347775,105023066,75432817,166145374,31411419,11001819,0,11511719,0,0,0,11911409,41511409,31300209,0,0,10510919,0,0,41211219,22000719,0,20611619,0,-2110151,0,10210019,11600209,0,0,30900819,0,20410309,40900009,21401209,10811719,41811909,30810219,0,0
20,113,659.706882899627,1,0,635324.609750776,635325.656829577,5,1,1,33,31,206959792,146648683,228139892,182637902,10401209,41500619,41611109,12010709,10310519,0,20811909,40201809,30111909,10200419,20111409,21911809,21711309,0,0,21601209,10301309,40811219,0,31111709,31201809,30101009,40611009,11611309,41700919,11500109,30302019,41701219,20210309,10601019,11500609,10000319,-4101190,41900709,30811419,11811109
20,114,668.115970096551,1,0,635327.386254376,635328.433318164,5,1,1,7,9,75143559,21511728,83102328,80620747,41101219,31901309,0,0,0,0,-2141031,0,0,0,0,0,0,0,11500309,0,0,10011419,41401809,0,0,41700519,0,0,0,0,0,10110109,0,30000619,0,0,40510019,0,0,0
20,115,517.856082995422,0,0,635330.174580127,635331.221587325,5,0,0,14,9,73323837,25000929,50310528,52911618,0,0,0,0,11011519,0,0,32002009,30310309,0,10110819,0,0,-3180101,0,0,11710009,0,20010409,0,30300119,0,0,0,0,0,0,0,0,0,0,0,20901409,32010209,0,0
20,116,506.646404741332,1,0,635332.856909957,635333.903979904,5,1,1,9,19,120305766,195342804,114057695,85516066,0,11901509,0,31410509,31910709,0,0,41001919,-4081120,11510019,41410319,30610319,0,30400419,0,0,41100819,40310909,10111919,21911019,0,21512019,0,0,40011219,20511519,0,20701619,11811319,41201119,0,0,0,0,0,11802009
20,117,637.032682192512,0,0,635335.433412864,635336.480513992,5,0,0,30,31,185047503,279149241,236939312,157248254,10701019,30312009,0,11710219,30810709,30801819,30001619,0,40710109,41610209,31000309,40500419,31411119,21000019,10511619,40711819,32001809,30401919,40000709,40811619,32011419,30600609,31801919,41300819,10200209,10212009,0,41701009,40101719,-3200171,11011009,20911709,20300709,10011609,10010319,0
20,118,597.487182589248,0,0,635338.162856911,635339.209922238,5,1,0,32,0,0,0,0,0,0,0,0,0,0,0,0,0,0,0,0,0,0,0,0,0,0,0,0,0,0,0,0,0,0,0,0,0,0,0,0,-10710191,0,0,0,0
20,119,528.13415566925,1,0,635340.904086538,635341.951137236,5,0,1,28,0,0,0,0,0,0,0,0,0,0,0,0,0,0,0,0,0,0,0,0,0,0,0,0,0,0,0,0,0,0,0,0,-20510401,0,0,0,0,0,0,0,0
20,120,545.31111381948,0,0,635343.515860338,635344.562934519,5,0,0,10,19,145634684,137445336,186636693,41510719,20202019,10510209,40901019,20710509,0,21410319,0,0,31900609,-1021151,41400619,10700519,31700319,0,0,0,30911219,21711509,30302009,40000409,21500619,0,41611819,0,22000209,20610619,10611009,0,0,0,0,0,41510719,0,0,0
20,121,619.255569996312,1,0,635346.210013089,635347.257076876,5,0,1,19,3,0,30400209,1151121,52420928,0,0,0,0,0,0,0,0,0,0,0,0,0,0,0,0,30400209,0,-1151121,0,0,0,0,0,0,0,0,0,0,0,21410809,0,0,31010119,0,0
20,122,530.067044543102,1,0,635348.998303038,635350.057203605,5,1,1,11,19,72313238,134736696,146536084,145943874,0,41301219,0,0,0,0,0,0,31012019,30001309,-1011041,0,31210909,0,20701509,0,21500009,30311919,20611419,0,20800719,0,21210409,41712019,0,20801009,21400509,40001109,0,0,30610219,11200809,20810009,0,31911019,11410709
20,123,511.751372017898,0,0,635351.739598879,635352.786566041,5,0,0,6,31,188427204,201268521,154514784,258261411,21201219,30410519,0,20901519,40400109,-2001201,30601309,21311019,21600309,11710809,30401709,11600219,30401519,20610319,10712009,21810409,32010819,32010709,0,40400209,0,11400919,31301109,30110319,31000819,10301409,0,40911419,11110309,20010309,20100709,31901519,22001709,41212009,30501909,40511519
20,124,520.441865664907,0,0,635354.374818726,635355.421884438,5,0,0,24,3,51201728,30201519,2160061,0,0,0,0,10300109,0,0,0,40901619,0,0,0,30201519,0,0,0,0,0,0,0,0,0,0,0,-2160061,0,0,0,0,0,0,0,0,0,0,0,0
20,125,694.112522643991,1,0,635357.068976866,635358.151142795,5,1,1,26,31,187247103,188157551,242038253,166366032,21811609,40510209,31711719,31611619,10000119,0,0,41600219,10001609,30000419,12000319,41210019,10900319,11311819,21300609,11111819,30011309,20310919,21110719,0,41911519,41900119,30401709,40611519,41401019,-3100130,21601519,41410419,20110819,0,30511509,30710209,10201319,11810819,10410019,11200919
20,126,593.005851958878,1,0,635359.904302116,635360.951381302,5,1,1,20,19,74534846,126035345,146674105,123432556,0,0,0,11201209,30211909,0,11310319,0,21811409,0,20601209,0,40400209,11810609,0,11511809,0,41711509,20511019,-2040111,30111019,31101009,0,0,10800419,31900009,20210519,30200609,0,41810519,0,31211419,0,0,20210009,0
20,127,674.972124747001,1,0,635362.621974442,635363.669037844,5,0,1,12,31,229858512,197927803,188457993,230538031,0,41401909,20000919,30610919,31711009,41301019,11710409,41511619,11610709,41700019,11500409,-2000020,30610109,0,30502019,20312009,31301409,30001809,21110909,40201219,0,31911709,30411009,11611519,11600709,41610919,0,41901619,40011619,11810219,11400709,11802019,41000309,41711109,20000419,10900009
20,128,537.598420865834,0,0,635365.4926137,635366.539671713,5,1,0,34,3,20610719,22011809,11910509,2091031,20610719,0,0,0,0,0,0,0,0,0,0,22011809,0,0,0,0,0,0,0,0,11910509,0,0,0,0,0,0,0,0,0,0,0,0,-2091031,0,0
20,129,447.998372255825,0,0,635368.269111911,635369.316188402,5,0,0,28,3,41010719,10500719,0,14091859,0,0,0,0,0,0,41010719,0,0,0,10500719,0,0,0,0,0,0,0,0,0,0,0,0,0,0,0,0,-4090140,0,0,0,0,0,0,0,10001719
20,130,430.276694358326,0,0,635370.845619437,635371.892682454,5,1,0,27,3,20800119,0,12440170,41500619,0,0,0,20800119,0,0,0,0,0,0,0,0,0,0,0,0,0,0,0,0,0,10310119,0,0,0,0,-2130051,0,0,0,0,0,0,0,0,41500619
20,131,482.059717993252,0,0,635406.410749057,635407.457815539,6,0,0,28,3,32111128,41011609,0,3080131,0,0,0,0,0,11500319,0,20610809,0,0,0,0,0,0,0,0,0,41011609,0,0,0,0,0,0,0,0,0,-3080131,0,0,0,0,0,0,0,0
20,132,580.173948314041,0,0,635409.128504535,635410.175493639,6,0,0,24,3,0,51912118,4180200,30210519,0,0,0,0,0,0,0,0,0,0,0,0,0,0,0,21210909,0,30701209,0,0,0,0,0,-4180200,0,0,0,0,0,30210519,0,0,0,0,0,0
20,133,523.310594726354,0,0,635411.940228983,635412.987296235,6,0,0,4,0,0,0,0,0,0,0,0,-11111791,0,0,0,0,0,0,0,0,0,0,0,0,0,0,0,0,0,0,0,0,0,0,0,0,0,0,0,0,0,0,0,0
20,134,580.783341429196,1,0,635414.516741129,635415.563802606,6,0,1,30,31,226331111,217737912,171466492,167476134,20101909,30311909,40000309,20411509,21501809,11400419,41500609,30901519,10201119,40711109,20900209,20010509,21401819,20801819,41110819,11500309,0,41301319,32010019,0,11700309,31112009,41100209,11910909,21710909,11010109,10912019,0,21701719,-2161050,30001319,40600219,31210509,0,30400009,11401309
20,135,623.222207766958,1,0,635417.281464538,635418.328535254,6,1,1,36,9,83534057,41122718,31410909,87133118,0,0,0,0,21910819,21311319,40311919,0,0,0,10311609,0,0,0,0,30811109,0,0,0,0,0,31410909,0,0,0,0,0,0,10800609,0,0,0,0,41310819,30900619,-4121071
20,136,554.798476630822,1,0,635419.963850187,635421.010926678,6,0,1,23,19,103245585,155449184,84213808,185735155,10011309,10911719,21100319,41011619,0,0,0,0,20210619,0,31011919,30401219,0,41011809,30200619,10811709,12011909,0,0,30000409,0,0,-4011171,10101109,0,0,40101119,0,41801819,40110909,0,0,22001209,0,41310009,40511209
20,137,548.441231250763,1,0,635422.763886451,635423.810954472,6,1,1,35,9,82421847,53311528,42002338,63291879,0,0,0,0,30810319,0,0,40411319,11200209,0,31600909,0,0,21710619,0,0,0,0,0,0,0,31001019,11001319,0,0,0,0,0,40400109,0,0,0,20701709,0,-2190061,0
20,138,541.836841031909,0,0,635425.422744441,635426.469809768,6,1,0,9,19,120305766,195342804,114057695,85516066,0,11901509,0,31410509,31910709,0,0,41001919,-4081120,11510019,41410319,30610319,0,30400419,0,0,41100819,40310909,10111919,21911019,0,21512019,0,0,40011219,20511519,0,20701619,11811319,41201119,0,0,0,0,0,11802009
20,139,672.841365798377,1,0,635428.17573116,635429.222787633,6,1,1,33,31,206959792,146648683,228139892,182637902,10401209,41500619,41611109,12010709,10310519,0,20811909,40201809,30111909,10200419,20111409,21911809,21711309,0,0,21601209,10301309,40811219,0,31111709,31201809,30101009,40611009,11611309,41700919,11500109,30302019,41701219,20210309,10601019,11500609,10000319,-4101190,41900709,30811419,11811109
20,140,529.187793727033,0,0,635431.046381968,635432.093405334,6,1,0,20,19,74534846,126035345,146674105,123432556,0,0,0,11201209,30211909,0,11310319,0,21811409,0,20601209,0,40400209,11810609,0,11511809,0,41711509,20511019,-2040111,30111019,31101009,0,0,10800419,31900009,20210519,30200609,0,41810519,0,31211419,0,0,20210009,0
20,141,509.291086462326,0,0,635433.75225447,635434.799322877,6,0,0,12,9,92401947,42390989,30201219,115233566,0,0,0,0,30200819,41501109,0,0,20700019,0,0,-2090180,0,40300809,0,0,0,0,0,0,0,0,30201219,0,0,0,0,31410219,0,40911719,0,31711209,0,0,0,11200419
20,142,556.38336087577,1,0,635436.411111305,635437.458175478,6,1,1,27,3,20800119,0,12440170,41500619,0,0,0,20800119,0,0,0,0,0,0,0,0,0,0,0,0,0,0,0,0,0,10310119,0,0,0,0,-2130051,0,0,0,0,0,0,0,0,41500619
20,143,519.880207604729,1,0,635439.046440867,635440.093506579,6,1,1,32,0,0,0,0,0,0,0,0,0,0,0,0,0,0,0,0,0,0,0,0,0,0,0,0,0,0,0,0,0,0,0,0,0,0,0,0,-10710191,0,0,0,0
20,144,426.361641380936,0,0,635441.822941772,635442.870009024,6,0,0,21,19,249339322,95223946,67731648,95733856,10401009,41700209,21901309,30011819,21902019,41011819,0,41911119,40500019,21710719,0,0,0,0,20301609,21610409,0,31601209,0,0,-4120101,0,0,40611119,11500209,0,11500219,12011309,0,0,0,30910119,0,0,40800519,12011909
20,145,499.540795339271,1,0,635444.340623414,635445.387686431,6,0,1,15,9,113715175,43792060,31200509,31612228,30901019,0,30001119,0,0,10701019,31311809,0,10800209,0,0,0,40611909,0,-3180151,0,0,0,0,0,0,0,0,0,31200509,0,0,0,0,0,0,0,20310319,0,0,11301909
20,146,495.794740272686,0,0,635447.058305749,635448.10542574,6,0,0,14,9,94313736,22001979,11011519,62424447,21700109,0,30600509,21111709,0,20901409,0,0,0,20801809,0,0,0,-1200170,0,0,0,0,11011519,0,0,0,0,0,0,0,0,0,0,30411309,0,20311219,11701919,0,0,0
20,147,486.706196912564,0,0,635449.705400872,635450.752510469,6,1,0,18,3,42001809,1011141,52001938,0,0,0,0,0,0,0,42001809,0,0,0,0,0,0,0,0,0,0,-1011141,30400019,21601919,0,0,0,0,0,0,0,0,0,0,0,0,0,0,0,0
20,148,425.310697988607,0,0,635452.37601095,635453.423070118,6,0,0,22,31,275879321,249639812,148325234,189854673,30310009,40211119,31311809,30311609,31010819,21100119,30011819,40200409,21411609,31610819,31801719,30301609,0,41400719,30501109,41610109,11811709,30602019,20510219,21701319,10610419,-1180021,30701309,11000019,20810719,0,31811209,11501819,12010209,41500809,0,30610309,42010209,0,41310909,10910409
20,149,577.329471707344,0,0,635454.881922026,635455.928989662,6,1,0,7,9,75143559,21511728,83102328,80620747,41101219,31901309,0,0,0,0,-2141031,0,0,0,0,0,0,0,11500309,0,0,10011419,41401809,0,0,41700519,0,0,0,0,0,10110109,0,30000619,0,0,40510019,0,0,0
20,150,574.651298345998,1,0,635457.646665838,635458.693720771,6,1,1,8,31,210367752,227556011,199647392,165123584,41901409,20310019,20011609,22010319,41410519,41710419,10600609,-1011030,11401819,31111209,11000509,40111419,21710009,10000119,40311209,21501309,31500119,20310109,42011019,30110009,11400709,31701609,30611209,10501919,11810209,31500709,0,20800219,0,31911709,40600119,21300119,0,20100509,0,30410909
20,151,542.005453957245,0,0,635460.423163663,635461.470272491,6,1,0,34,3,20610719,22011809,11910509,2091031,20610719,0,0,0,0,0,0,0,0,0,0,22011809,0,0,0,0,0,0,0,0,11910509,0,0,0,0,0,0,0,0,0,0,0,0,-2091031,0,0
20,152,574.90267790854,0,0,635463.17613306,635464.22325998,6,0,0,19,19,168038242,52811318,118446345,105835146,11311619,21801219,30711509,20500219,40210419,11202019,0,10800419,21500819,0,40910109,0,0,0,0,0,11901209,0,-3001000,0,11211809,20910909,0,0,21510009,41611809,20200809,0,21901909,11811609,0,0,30311619,41810009,0,0
20,153,667.806846438907,1,0,635465.964413385,635467.011479097,6,1,1,26,31,187247103,188157551,242038253,166366032,21811609,40510209,31711719,31611619,10000119,0,0,41600219,10001609,30000419,12000319,41210019,10900319,11311819,21300609,11111819,30011309,20310919,21110719,0,41911519,41900119,30401709,40611519,41401019,-3100130,21601519,41410419,20110819,0,30511509,30710209,10201319,11810819,10410019,11200919
20,154,630.628471728414,1,0,635468.858570294,635469.905628306,6,1,1,11,19,72313238,134736696,146536084,145943874,0,41301219,0,0,0,0,0,0,31012019,30001309,-1011041,0,31210909,0,20701509,0,21500009,30311919,20611419,0,20800719,0,21210409,41712019,0,20801009,21400509,40001109,0,0,30610219,11200809,20810009,0,31911019,11410709
20,155,539.526690263301,1,0,635471.564475903,635472.611540075,6,0,1,6,3,56762918,0,0,21600319,41701109,0,0,11010719,0,-4051090,0,0,0,0,0,0,0,0,0,0,0,0,0,0,0,0,0,0,0,0,0,0,0,0,0,0,0,0,0,21600319
20,156,482.303783297539,1,0,635474.305688976,635475.352751994,6,0,1,10,31,215149131,212046774,238349111,134935414,20410509,20812019,20301409,30400419,40201219,20611409,40601119,11110619,10700409,-2000061,40611909,31811709,21911719,0,41900019,21200719,31600519,21010119,40401619,21811119,11600609,40010709,30210809,21501109,21800309,30701009,20311819,41400819,20201119,10711419,11411819,0,41010219,10200019,0,0
20,157,611.742671928369,1,0,635510.023803622,635511.070838538,7,1,1,20,19,74534846,126035345,146674105,123432556,0,0,0,11201209,30211909,0,11310319,0,21811409,0,20601209,0,40400209,11810609,0,11511809,0,41711509,20511019,-2040111,30111019,31101009,0,0,10800419,31900009,20210519,30200609,0,41810519,0,31211419,0,0,20210009,0
20,158,447.586463880725,1,0,635512.706150391,635513.753217258,7,0,1,21,9,32211928,80602418,76170977,50611518,0,21700119,10511809,0,0,0,0,0,0,0,0,0,40301109,0,0,0,40301309,0,0,0,-3050140,40700209,0,11110309,21310319,0,0,0,20300709,30310809,0,0,0,0,0,0
20,159,579.285073443316,0,0,635515.306180956,635516.353258217,7,1,0,34,3,20610719,22011809,11910509,2091031,20610719,0,0,0,0,0,0,0,0,0,0,22011809,0,0,0,0,0,0,0,0,11910509,0,0,0,0,0,0,0,0,0,0,0,0,-2091031,0,0
20,160,630.692760227248,0,0,635517.97684416,635519.02387253,7,0,0,19,9,133123756,40610119,104631437,30000409,0,21301219,0,0,40611119,30900809,0,40310609,0,0,0,0,40610119,0,0,0,0,0,-3121100,0,0,0,0,40500209,40610119,0,20400009,0,0,0,0,30000409,0,0,0,0
20,161,500.793843297288,1,0,635520.788602099,635521.835674356,7,0,1,15,3,40201709,33853009,0,10211809,0,0,40201709,0,0,0,0,0,0,0,0,0,0,0,-3141100,0,30711909,0,0,0,0,0,0,0,0,0,0,0,0,10211809,0,0,0,0,0,0
20,162,564.735088963062,1,0,635523.529809398,635524.57687665,7,1,1,8,31,210367752,227556011,199647392,165123584,41901409,20310019,20011609,22010319,41410519,41710419,10600609,-1011030,11401819,31111209,11000509,40111419,21710009,10000119,40311209,21501309,31500119,20310109,42011019,30110009,11400709,31701609,30611209,10501919,11810209,31500709,0,20800219,0,31911709,40600119,21300119,0,20100509,0,30410909
20,163,611.244147410616,1,0,635526.353371781,635527.400439803,7,1,1,33,31,206959792,146648683,228139892,182637902,10401209,41500619,41611109,12010709,10310519,0,20811909,40201809,30111909,10200419,20111409,21911809,21711309,0,0,21601209,10301309,40811219,0,31111709,31201809,30101009,40611009,11611309,41700919,11500109,30302019,41701219,20210309,10601019,11500609,10000319,-4101190,41900709,30811419,11811109
20,164,503.286465420388,1,0,635529.118130992,635530.165177071,7,1,1,35,9,82421847,53311528,42002338,63291879,0,0,0,0,30810319,0,0,40411319,11200209,0,31600909,0,0,21710619,0,0,0,0,0,0,0,31001019,11001319,0,0,0,0,0,40400109,0,0,0,20701709,0,-2190061,0
20,165,566.348845255561,0,0,635531.729913261,635532.776979743,7,0,0,30,31,197538232,236756811,198348712,176860225,31610409,31400619,0,30911209,21800719,30301119,10511919,20500519,20501719,11400719,41010009,21410409,20210219,30601109,22001319,40010009,30111309,20001709,0,40911419,20000809,21100909,31111509,21501919,22010419,20501509,21210219,41411609,41302019,-1121131,20001919,21201219,21511109,0,30311219,0
20,166,487.452251138166,0,0,635534.435824259,635535.482887277,7,0,0,14,19,142934765,145615186,107047585,106714656,20211509,0,0,40510409,30711219,30900109,20601519,0,0,0,0,40200719,21900509,-1090021,0,40711909,30212009,11500019,31411009,10612019,0,0,31901719,11510919,21611919,0,0,31502019,0,0,0,0,0,21700509,31510609,22001519
20,167,510.429801070131,1,0,635537.082913608,635538.12998394,7,0,1,10,3,41611419,44981620,0,30101509,0,0,0,0,0,0,41611419,0,0,-4071011,0,0,0,0,0,0,0,40910609,0,0,0,0,0,0,0,0,0,0,0,30101509,0,0,0,0,0,0
20,168,454.29594849702,0,0,635539.824118597,635540.871190084,7,1,0,11,19,72313238,134736696,146536084,145943874,0,41301219,0,0,0,0,0,0,31012019,30001309,-1011041,0,31210909,0,20701509,0,21500009,30311919,20611419,0,20800719,0,21210409,41712019,0,20801009,21400509,40001109,0,0,30610219,11200809,20810009,0,31911019,11410709
20,169,599.652203032747,0,0,635542.506510406,635543.553597676,7,1,0,36,9,83534057,41122718,31410909,87133118,0,0,0,0,21910819,21311319,40311919,0,0,0,10311609,0,0,0,0,30811109,0,0,0,0,0,31410909,0,0,0,0,0,0,10800609,0,0,0,0,41310819,30900619,-4121071
20,170,476.468160166405,0,0,635545.235953298,635546.283020165,7,1,0,27,3,20800119,0,12440170,41500619,0,0,0,20800119,0,0,0,0,0,0,0,0,0,0,0,0,0,0,0,0,0,10310119,0,0,0,0,-2130051,0,0,0,0,0,0,0,0,41500619
20,171,434.704900253564,0,0,635547.859546555,635548.906604568,7,1,0,26,31,187247103,188157551,242038253,166366032,21811609,40510209,31711719,31611619,10000119,0,0,41600219,10001609,30000419,12000319,41210019,10900319,11311819,21300609,11111819,30011309,20310919,21110719,0,41911519,41900119,30401709,40611519,41401019,-3100130,21601519,41410419,20110819,0,30511509,30710209,10201319,11810819,10410019,11200919
20,172,625.716369831935,1,0,635550.506604722,635551.553673128,7,1,1,32,0,0,0,0,0,0,0,0,0,0,0,0,0,0,0,0,0,0,0,0,0,0,0,0,0,0,0,0,0,0,0,0,0,0,0,0,-10710191,0,0,0,0
20,173,465.161471744068,0,0,635553.330179423,635554.37724013,7,1,0,9,19,120305766,195342804,114057695,85516066,0,11901509,0,31410509,31910709,0,0,41001919,-4081120,11510019,41410319,30610319,0,30400419,0,0,41100819,40310909,10111919,21911019,0,21512019,0,0,40011219,20511519,0,20701619,11811319,41201119,0,0,0,0,0,11802009
20,174,613.942338852212,1,0,635555.93020152,635556.977264537,7,0,1,31,0,0,0,0,0,0,0,0,0,0,0,0,0,0,0,0,0,0,0,0,0,0,0,0,0,0,0,0,0,0,0,0,0,0,0,-30300891,0,0,0,0,0
20,175,526.640507043339,0,0,635558.659646721,635559.706708584,7,1,0,7,9,75143559,21511728,83102328,80620747,41101219,31901309,0,0,0,0,-2141031,0,0,0,0,0,0,0,11500309,0,0,10011419,41401809,0,0,41700519,0,0,0,0,0,10110109,0,30000619,0,0,40510019,0,0,0
20,176,801.559222629294,1,0,635561.259673823,635562.306748004,7,1,1,18,3,42001809,1011141,52001938,0,0,0,0,0,0,0,42001809,0,0,0,0,0,0,0,0,0,0,-1011141,30400019,21601919,0,0,0,0,0,0,0,0,0,0,0,0,0,0,0,0
20,177,732.564209378324,1,0,635564.224426027,635565.271491739,7,0,1,24,3,30510819,0,33520630,41510809,0,0,0,0,0,30510819,0,0,0,0,0,0,0,0,0,0,0,0,0,0,0,0,31500609,-2020021,0,0,0,0,0,0,0,41510809,0,0,0,0
20,178,517.715572146699,1,0,635567.024451127,635568.071518764,7,0,1,22,19,127115294,134108465,75894767,132223765,0,11800909,42000119,10001809,11311719,0,0,30800419,21200319,20701419,0,10201509,21901509,0,0,41002019,0,40302009,0,20901809,0,-3180030,41811419,0,10001509,0,0,0,0,41101009,10101409,0,30010619,20000719,0,31010009
20,179,1018.63986346871,0,0,635569.683377255,635570.730373289,7,0,0,6,19,118572895,94935236,93326476,136415964,0,32000009,20200319,40111319,0,-4160010,11400119,10701119,0,0,41301409,0,0,11110809,0,21911709,0,20611309,0,10401619,0,0,41511619,0,0,30401619,11011619,0,11002009,11100809,20600609,41300509,31501219,20910809,0,0
20,180,545.559028512798,0,0,635572.777458634,635573.824530121,7,0,0,12,9,52222428,14542649,62324646,50810518,0,30911509,0,0,21310919,0,0,0,0,0,0,-3041140,0,0,11501509,0,0,0,10000009,0,0,31811109,0,10111719,0,0,10401809,0,0,0,0,20300309,0,30510209,0,0
20,181,735.6050160015,0,0,635575.424555297,635576.471621009,7,0,0,28,31,146845513,186080431,249166502,199204993,0,20511209,11410509,10410019,31810319,20501019,31600919,0,20601519,10601619,20211119,40212009,10211009,20101119,11111309,30610119,11112019,31910109,31811309,30810319,0,11210419,41210509,41200209,11200419,41111809,40611509,-3051190,0,41411009,10200719,41110119,10310309,40610609,21800719,30710319
20,182,497.816940071061,1,0,635578.401062669,635579.448133386,7,0,1,23,31,139658922,217225492,190727243,227059612,20910919,31011309,11011509,11501519,12011309,11110919,30100719,0,12000719,20210209,20100509,40800419,31210019,31600609,30101709,0,31200509,12001509,21811419,20600419,21310619,20611819,-2091120,42000009,32001219,0,30300619,40601709,20101219,30400719,40410509,12011019,0,11611309,41211909,30711219
20,183,543.18035475444,0,0,635614.060305621,635615.107374027,8,1,0,11,19,72313238,134736696,146536084,145943874,0,41301219,0,0,0,0,0,0,31012019,30001309,-1011041,0,31210909,0,20701509,0,21500009,30311919,20611419,0,20800719,0,21210409,41712019,0,20801009,21400509,40001109,0,0,30610219,11200809,20810009,0,31911019,11410709
20,184,569.316124427132,1,0,635616.707402669,635617.754469151,8,1,1,9,19,120305766,195342804,114057695,85516066,0,11901509,0,31410509,31910709,0,0,41001919,-4081120,11510019,41410319,30610319,0,30400419,0,0,41100819,40310909,10111919,21911019,0,21512019,0,0,40011219,20511519,0,20701619,11811319,41201119,0,0,0,0,0,11802009
20,185,676.465773256496,1,0,635619.330957044,635620.378028915,8,0,1,24,9,32702518,41201619,43301368,133933946,0,0,0,0,22000909,0,0,10701609,0,0,0,0,0,0,0,0,0,41201619,11000619,0,0,0,0,-2000140,30300609,0,0,31910509,0,40911719,0,0,30101609,0,0,31010109
20,186,545.025857631117,1,0,635622.201592453,635623.248680493,8,0,1,6,19,126477846,157635974,114327175,44502147,40200819,11001909,0,41301609,0,-2061081,20011119,0,11901309,10701409,21500109,0,0,0,41801509,10411109,42010819,31211019,0,0,0,30101019,21101819,10612009,10611609,0,41900719,0,0,0,0,11101019,12000709,21400419,0,0
20,187,498.992995824665,1,0,635624.848682571,635625.895741739,8,0,1,34,0,0,0,0,0,0,0,0,0,0,0,0,0,0,0,0,0,0,0,0,0,0,0,0,0,0,0,0,0,0,0,0,0,0,0,0,0,0,-20110891,0,0
20,188,559.172018081881,0,0,635627.566354897,635628.613415605,8,0,0,14,9,112514427,73153577,40211009,70202428,0,30201309,41211709,0,41101409,0,0,0,0,0,21011909,0,0,-1130140,30700909,20310619,0,0,0,0,0,0,0,0,0,0,40211009,30001019,0,0,0,0,0,0,0,40201409
20,189,519.25041154027,1,0,635630.284028763,635631.331103329,8,1,1,8,31,210367752,227556011,199647392,165123584,41901409,20310019,20011609,22010319,41410519,41710419,10600609,-1011030,11401819,31111209,11000509,40111419,21710009,10000119,40311209,21501309,31500119,20310109,42011019,30110009,11400709,31701609,30611209,10501919,11810209,31500709,0,20800219,0,31911709,40600119,21300119,0,20100509,0,30410909
20,190,586.242472869344,1,0,635632.872295307,635633.919366408,8,0,1,22,31,247056841,185225903,172356344,181726232,21310419,10411519,41000309,41211119,11200119,30200109,40212019,20401019,31110209,10501019,30300919,10010509,41400009,0,0,41800719,10700809,40511919,41900319,21701109,0,-3020131,31001019,30800619,20810919,11810709,11311519,40910519,20701219,21100019,0,31500809,12001709,22001719,11810219,21700019
20,191,514.036115258932,0,0,635635.67233465,635636.719395357,8,0,0,12,19,72322347,168977096,177037084,107137174,40200419,0,0,0,20411719,11710209,0,0,0,41411819,40011909,-4151030,0,0,41801119,41601219,0,0,41911609,21810509,0,0,0,40201809,10111919,31600619,31400619,21600209,10810909,0,41300719,10802019,11111809,0,11511509,0
20,192,537.372063845396,0,0,635638.248839097,635639.295965247,8,0,0,30,19,95325446,120722666,104334456,190809223,10211109,0,0,31711419,0,0,41701809,11701109,0,40200819,0,40400809,10010519,30110519,0,0,0,0,41210519,21711409,0,10111219,0,0,31301309,0,0,40710009,11601909,-3180150,20501819,11812009,21701609,0,40700209,40601509
20,193,416.377293993719,0,0,635641.001802719,635642.0488692,8,0,0,10,3,21910409,2151161,21211219,10410219,0,0,0,0,0,0,0,0,21910409,-2151161,0,0,0,0,0,0,0,0,0,0,0,0,0,21211219,0,0,0,0,0,0,10410219,0,0,0,0,0
20,194,487.188937840983,0,0,635643.531252617,635644.578325643,8,1,0,32,0,0,0,0,0,0,0,0,0,0,0,0,0,0,0,0,0,0,0,0,0,0,0,0,0,0,0,0,0,0,0,0,0,0,0,0,-10710191,0,0,0,0
20,195,661.655170260929,1,0,635646.213635187,635647.260706288,8,1,1,18,3,42001809,1011141,52001938,0,0,0,0,0,0,0,42001809,0,0,0,0,0,0,0,0,0,0,-1011141,30400019,21601919,0,0,0,0,0,0,0,0,0,0,0,0,0,0,0,0
20,196,639.865224948153,1,0,635648.978429044,635650.02544933,8,1,1,26,31,187247103,188157551,242038253,166366032,21811609,40510209,31711719,31611619,10000119,0,0,41600219,10001609,30000419,12000319,41210019,10900319,11311819,21300609,11111819,30011309,20310919,21110719,0,41911519,41900119,30401709,40611519,41401019,-3100130,21601519,41410419,20110819,0,30511509,30710209,10201319,11810819,10410019,11200919
20,197,707.950190524571,1,0,635651.790177744,635652.837239607,8,1,1,36,9,83534057,41122718,31410909,87133118,0,0,0,0,21910819,21311319,40311919,0,0,0,10311609,0,0,0,0,30811109,0,0,0,0,0,31410909,0,0,0,0,0,0,10800609,0,0,0,0,41310819,30900619,-4121071
20,198,521.973240422085,1,0,635654.590211313,635655.637282414,8,1,1,34,3,20610719,22011809,11910509,2091031,20610719,0,0,0,0,0,0,0,0,0,0,22011809,0,0,0,0,0,0,0,0,11910509,0,0,0,0,0,0,0,0,0,0,0,0,-2091031,0,0
20,199,466.044572182,1,0,635657.202003976,635658.249061989,8,0,1,15,31,238050702,253889592,175937903,166028212,20011709,40400909,41401909,11901119,0,21011719,31211009,30410819,41701509,10310709,41400109,41300909,31111419,31601509,-4151190,31701119,20701319,41611309,21210819,10101319,0,40310109,41411409,32001319,0,10100909,20802019,40402009,11111619,11700609,10901309,0,20810619,30700519,10000709,30400819
20,200,610.464601544663,0,0,635659.825581449,635660.872635227,8,1,0,33,31,206959792,146648683,228139892,182637902,10401209,41500619,41611109,12010709,10310519,0,20811909,40201809,30111909,10200419,20111409,21911809,21711309,0,0,21601209,10301309,40811219,0,31111709,31201809,30101009,40611009,11611309,41700919,11500109,30302019,41701219,20210309,10601019,11500609,10000319,-4101190,41900709,30811419,11811109
20,201,507.964126183651,0,0,635662.543286112,635663.590317562,8,0,0,23,9,51500338,73014337,85780988,52412418,20600219,0,0,0,0,30900119,0,0,0,10301409,0,40711609,0,0,0,0,0,22001319,0,40400219,0,0,-4180050,0,0,0,41200719,0,22012009,0,30400409,0,0,0,0,0
20,202,476.017755805515,0,0,635665.14328819,635666.190350823,8,1,0,20,19,74534846,126035345,146674105,123432556,0,0,0,11201209,30211909,0,11310319,0,21811409,0,20601209,0,40400209,11810609,0,11511809,0,41711509,20511019,-2040111,30111019,31101009,0,0,10800419,31900009,20210519,30200609,0,41810519,0,31211419,0,0,20210009,0
20,203,780.710121965967,1,0,635667.684481708,635668.731556659,8,1,1,35,9,82421847,53311528,42002338,63291879,0,0,0,0,30810319,0,0,40411319,11200209,0,31600909,0,0,21710619,0,0,0,0,0,0,0,31001019,11001319,0,0,0,0,0,40400109,0,0,0,20701709,0,-2190061,0
20,204,478.938069660217,0,0,635670.649228138,635671.696294235,8,0,0,21,3,30102019,20801809,2181101,41201709,0,30102019,0,0,0,0,0,0,0,0,20801809,0,0,0,0,0,0,0,0,0,-2181101,0,0,0,0,0,0,0,0,0,0,0,0,0,0,41201709
20,205,514.685159549117,0,0,635673.202186833,635674.249302974,8,0,0,19,3,32121638,0,2091010,20710219,0,20910719,0,11210919,0,0,0,0,0,0,0,0,0,0,0,0,0,0,-2091010,0,0,0,0,0,0,0,0,0,0,0,20710219,0,0,0,0,0
20,206,684.707402600907,1,0,635675.955175862,635677.0022793,8,1,1,7,9,75143559,21511728,83102328,80620747,41101219,31901309,0,0,0,0,-2141031,0,0,0,0,0,0,0,11500309,0,0,10011419,41401809,0,0,41700519,0,0,0,0,0,10110109,0,30000619,0,0,40510019,0,0,0
20,207,479.116306523792,0,0,635678.778732855,635679.825800107,8,1,0,27,3,20800119,0,12440170,41500619,0,0,0,20800119,0,0,0,0,0,0,0,0,0,0,0,0,0,0,0,0,0,10310119,0,0,0,0,-2130051,0,0,0,0,0,0,0,0,41500619
20,208,500.70453225635,0,0,635681.402288385,635682.449367186,8,0,0,28,31,241438421,204767122,177547912,157967654,30410009,21611719,31601219,20700809,21900309,41310309,20402009,11900019,41602019,20510719,30110209,31010019,0,21010519,11211719,20000319,40201709,30711909,10011309,20311319,10910109,41900309,31801309,0,20300719,21811119,20501719,-1131070,21210609,0,21200519,41200909,10411519,0,31201019,31612009
20,209,656.574070570059,0,0,635717.143890654,635718.190963296,9,0,0,28,3,40001009,20811209,0,33003169,0,0,0,40001009,0,0,0,0,0,0,0,0,0,20811209,0,0,0,0,0,0,0,0,0,0,0,0,0,-1001150,0,0,0,0,0,0,32002019,0
20,210,568.03920888342,0,0,635720.014527603,635721.061587541,9,1,0,8,31,210367752,227556011,199647392,165123584,41901409,20310019,20011609,22010319,41410519,41710419,10600609,-1011030,11401819,31111209,11000509,40111419,21710009,10000119,40311209,21501309,31500119,20310109,42011019,30110009,11400709,31701609,30611209,10501919,11810209,31500709,0,20800219,0,31911709,40600119,21300119,0,20100509,0,30410909
20,211,504.202672513202,1,0,635722.779263716,635723.826329043,9,0,1,22,19,106835485,114734665,93645596,133923665,11701119,41611019,10100719,0,21911719,0,0,21510909,0,21700019,0,0,11110009,0,20600809,40011819,0,21312009,0,0,0,-2030140,10001909,40301709,31011519,0,10300319,31601919,10510309,0,0,40710819,0,10500209,0,40600409
20,212,457.262072828598,0,0,635725.438124016,635726.485183569,9,1,0,7,9,75143559,21511728,83102328,80620747,41101219,31901309,0,0,0,0,-2141031,0,0,0,0,0,0,0,11500309,0,0,10011419,41401809,0,0,41700519,0,0,0,0,0,10110109,0,30000619,0,0,40510019,0,0,0
20,213,500.813476275653,1,0,635728.120523909,635729.167579997,9,0,1,21,31,228568921,196359322,199536963,187656823,20610609,31000609,40110909,20211119,21210519,41401719,11510509,30901709,11611219,0,40510819,21101719,10301419,11000909,10511409,30210519,31511219,41211309,41510009,20500409,-1000170,21711409,31401719,0,21810319,31202019,30400909,0,10600119,11410519,0,21211419,40601809,41510619,30811419,31510919
20,214,435.321992728859,0,0,635730.74406943,635731.791132833,9,1,0,27,3,20800119,0,12440170,41500619,0,0,0,20800119,0,0,0,0,0,0,0,0,0,0,0,0,0,0,0,0,0,10310119,0,0,0,0,-2130051,0,0,0,0,0,0,0,0,41500619
20,215,496.886874432676,0,0,635733.273496616,635734.320573877,9,0,0,10,19,95635455,128326165,105112556,86523885,0,21701509,0,20311109,31110909,0,11300509,0,11211419,-1081110,21710209,0,20312019,11911009,41400809,0,31911009,0,0,41300309,0,0,11900909,30310119,0,21601219,0,0,11601519,20600419,31500109,12010319,0,0,0,10811519
20,216,594.429437536746,0,0,635736.002946052,635737.050017154,9,0,0,19,31,177848012,228457422,116705634,237388721,31801809,31511419,0,10710819,11101209,20111609,21300219,40410319,10900609,41210919,30710509,40801819,11710219,11801409,20100119,0,40711019,31411409,-1081040,10310909,11400919,41310109,20800719,11701519,0,20100419,0,31110009,30400719,10710419,40911009,21111009,41211819,20011109,11711019,30211609
20,217,593.591762590222,0,0,635738.720668038,635739.767693714,9,1,0,35,9,82421847,53311528,42002338,63291879,0,0,0,0,30810319,0,0,40411319,11200209,0,31600909,0,0,21710619,0,0,0,0,0,0,0,31001019,11001319,0,0,0,0,0,40400109,0,0,0,20701709,0,-2190061,0
20,218,783.730525523424,1,0,635741.520662726,635742.567730748,9,1,1,18,3,42001809,1011141,52001938,0,0,0,0,0,0,0,42001809,0,0,0,0,0,0,0,0,0,0,-1011141,30400019,21601919,0,0,0,0,0,0,0,0,0,0,0,0,0,0,0,0
20,219,491.078583523631,1,0,635744.450106311,635745.497175103,9,0,1,15,3,0,1091101,50312428,30600719,0,0,0,0,0,0,0,0,0,0,0,0,0,0,-1091101,0,0,0,0,0,0,0,0,10111009,0,0,40201419,0,30600719,0,0,0,0,0,0,0
20,220,706.159352092072,0,0,635747.144267531,635748.191325929,9,1,0,11,19,72313238,134736696,146536084,145943874,0,41301219,0,0,0,0,0,0,31012019,30001309,-1011041,0,31210909,0,20701509,0,21500009,30311919,20611419,0,20800719,0,21210409,41712019,0,20801009,21400509,40001109,0,0,30610219,11200809,20810009,0,31911019,11410709
20,221,523.832216858864,1,0,635750.085483607,635751.13259744,9,0,1,6,3,43412060,0,81122118,0,0,0,0,0,0,-3011151,0,40400909,0,0,0,0,0,0,0,0,0,0,0,0,40111809,0,41010309,0,0,0,0,0,0,0,0,0,0,0,0,0
20,222,598.478841944598,1,0,635752.72079931,635753.767863867,9,0,1,14,19,132404456,104986517,157145194,127435555,0,0,0,31200319,40302009,30501719,0,30400409,0,0,0,0,0,-2170161,31111219,10801909,30801509,30101719,31700709,40110319,0,10910819,31712019,20700609,22010719,0,0,21610709,12001009,0,0,41701609,0,0,40810609,11311619
20,223,937.760335509665,1,0,635755.485532343,635756.532620768,9,1,1,36,9,83534057,41122718,31410909,87133118,0,0,0,0,21910819,21311319,40311919,0,0,0,10311609,0,0,0,0,30811109,0,0,0,0,0,31410909,0,0,0,0,0,0,10800609,0,0,0,0,41310819,30900619,-4121071
20,224,703.389942995273,0,0,635758.567933237,635759.61499356,9,0,0,30,9,62312238,0,61602737,119832846,0,0,0,32010819,0,0,0,30301419,0,0,0,0,0,0,0,0,0,0,30500719,0,0,0,10401209,20700809,0,0,0,0,21700209,-4200010,11111009,0,42010709,0,0,40810909
20,225,569.318434107117,0,0,635761.379726978,635762.426796925,9,1,0,20,19,74534846,126035345,146674105,123432556,0,0,0,11201209,30211909,0,11310319,0,21811409,0,20601209,0,40400209,11810609,0,11511809,0,41711509,20511019,-2040111,30111019,31101009,0,0,10800419,31900009,20210519,30200609,0,41810519,0,31211419,0,0,20210009,0
20,226,545.580971287563,1,0,635764.132720242,635765.179770171,9,1,1,32,0,0,0,0,0,0,0,0,0,0,0,0,0,0,0,0,0,0,0,0,0,0,0,0,0,0,0,0,0,0,0,0,0,0,0,0,-10710191,0,0,0,0
20,227,584.289180929773,0,0,635766.932735333,635767.979800275,9,0,0,12,9,21520838,63873228,11710919,103643846,11010819,0,0,0,0,0,0,0,10510019,0,0,-2060090,0,0,0,0,21201919,40611219,0,0,0,0,0,0,0,11710919,0,0,11611719,0,30210709,0,20010109,0,0,41811309
20,228,604.525038856082,0,0,635769.638642482,635770.685728982,9,1,0,26,31,187247103,188157551,242038253,166366032,21811609,40510209,31711719,31611619,10000119,0,0,41600219,10001609,30000419,12000319,41210019,10900319,11311819,21300609,11111819,30011309,20310919,21110719,0,41911519,41900119,30401709,40611519,41401019,-3100130,21601519,41410419,20110819,0,30511509,30710209,10201319,11810819,10410019,11200919
20,229,552.171503077261,1,0,635772.332801007,635773.379863639,9,0,1,23,31,249288551,236857303,203198692,156828083,10410419,10811019,41011309,31011019,41300219,21711019,20910819,31311619,40811109,0,0,41210209,40701809,20910919,41301219,30310119,32011219,30411809,21400909,31910719,11812019,21811719,-1020070,21910719,31511609,21010919,40810009,0,0,11501609,41200609,40200409,21700609,11311109,10601919,20311819
20,230,496.449558762833,1,0,635775.003432258,635776.050488346,9,1,1,9,19,120305766,195342804,114057695,85516066,0,11901509,0,31410509,31910709,0,0,41001919,-4081120,11510019,41410319,30610319,0,30400419,0,0,41100819,40310909,10111919,21911019,0,21512019,0,0,40011219,20511519,0,20701619,11811319,41201119,0,0,0,0,0,11802009
20,231,657.574199140072,0,0,635777.662280624,635778.709357115,9,1,0,33,31,206959792,146648683,228139892,182637902,10401209,41500619,41611109,12010709,10310519,0,20811909,40201809,30111909,10200419,20111409,21911809,21711309,0,0,21601209,10301309,40811219,0,31111709,31201809,30101009,40611009,11611309,41700919,11500109,30302019,41701219,20210309,10601019,11500609,10000319,-4101190,41900709,30811419,11811109
20,232,542.973245843314,1,0,635780.474144813,635781.521141232,9,1,1,34,3,20610719,22011809,11910509,2091031,20610719,0,0,0,0,0,0,0,0,0,0,22011809,0,0,0,0,0,0,0,0,11910509,0,0,0,0,0,0,0,0,0,0,0,0,-2091031,0,0
20,233,557.004687841982,1,0,635783.227048381,635784.27410293,9,0,1,24,9,10600709,92711957,78235446,21701519,0,0,0,0,0,0,0,0,10600709,0,40300019,42010919,0,10401019,0,0,0,0,0,0,0,0,11500409,-4021110,10411909,41100709,11201309,0,0,0,21701519,0,0,0,0,0
20,234,462.819369276986,1,0,635785.921201132,635786.968265689,9,0,1,36,0,0,0,0,0,0,0,0,0,0,0,0,0,0,0,0,0,0,0,0,0,0,0,0,0,0,0,0,0,0,0,0,0,0,0,0,0,0,0,0,-21001291
20,235,525.767800631002,0,0,635821.55691219,635822.603985216,10,1,0,32,0,0,0,0,0,0,0,0,0,0,0,0,0,0,0,0,0,0,0,0,0,0,0,0,0,0,0,0,0,0,0,0,0,0,0,0,-10710191,0,0,0,0
20,236,589.443808188662,0,0,635824.156955459,635825.204016937,10,1,0,20,19,74534846,126035345,146674105,123432556,0,0,0,11201209,30211909,0,11310319,0,21811409,0,20601209,0,40400209,11810609,0,11511809,0,41711509,20511019,-2040111,30111019,31101009,0,0,10800419,31900009,20210519,30200609,0,41810519,0,31211419,0,0,20210009,0
20,237,620.49552926328,0,0,635827.004049351,635828.051115833,10,0,0,24,31,197214313,199150902,136218563,179457011,31500509,0,40710209,11500519,10300319,21400419,40801019,0,41001319,41710609,10610609,21712019,20802009,30900909,22001609,20411219,31001919,0,41401519,10311419,0,40300119,10212009,-2071150,10311109,10401019,11210219,40810009,11101009,11610609,11612019,11810009,10700709,30610019,41101109,10101519
20,238,454.251293092966,1,0,635829.80412873,635830.851142857,10,0,1,22,0,0,0,0,0,0,0,0,0,0,0,0,0,0,0,0,0,0,0,0,0,0,0,0,0,0,-20101491,0,0,0,0,0,0,0,0,0,0,0,0,0,0
20,239,491.380392806605,0,0,635832.451171883,635833.4982426,10,0,0,12,19,196525494,65904136,73221966,133925665,0,21101019,41711519,0,20300009,41411209,31901519,0,40100219,0,0,-2090180,0,10701109,31701019,10600809,10811019,0,0,20110919,12000119,21010309,0,0,0,0,20100619,30800419,0,41501119,11311209,10001809,0,0,0,40311109
20,240,711.941080749966,0,0,635835.19240459,635836.239445664,10,0,0,19,31,139536803,219750012,230139814,249038331,0,21600909,20900419,31801109,11701619,11311909,21810319,20410519,0,40911619,0,21300519,41801719,31811609,10501719,20900609,20811709,31710509,-3121191,0,40801519,41101619,40700219,10601019,11801319,42001309,40011619,41500509,40311209,21300809,30600709,40311319,31900719,10410019,21602019,11101019
20,241,765.379821532406,1,0,635838.110061055,635839.157129462,10,1,1,7,9,75143559,21511728,83102328,80620747,41101219,31901309,0,0,0,0,-2141031,0,0,0,0,0,0,0,11500309,0,0,10011419,41401809,0,0,41700519,0,0,0,0,0,10110109,0,30000619,0,0,40510019,0,0,0
20,242,792.518414440565,1,0,635840.980687225,635842.027757171,10,1,1,36,9,83534057,41122718,31410909,87133118,0,0,0,0,21910819,21311319,40311919,0,0,0,10311609,0,0,0,0,30811109,0,0,0,0,0,31410909,0,0,0,0,0,0,10800609,0,0,0,0,41310819,30900619,-4121071
20,243,980.886742006987,1,0,635843.992488973,635845.039556225,10,1,1,34,3,20610719,22011809,11910509,2091031,20610719,0,0,0,0,0,0,0,0,0,0,22011809,0,0,0,0,0,0,0,0,11910509,0,0,0,0,0,0,0,0,0,0,0,0,-2091031,0,0
20,244,640.263274661265,1,0,635847.157237251,635848.204294494,10,1,1,11,19,72313238,134736696,146536084,145943874,0,41301219,0,0,0,0,0,0,31012019,30001309,-1011041,0,31210909,0,20701509,0,21500009,30311919,20611419,0,20800719,0,21210409,41712019,0,20801009,21400509,40001109,0,0,30610219,11200809,20810009,0,31911019,11410709
20,245,500.39117410779,0,0,635850.016082845,635851.063153947,10,1,0,27,3,20800119,0,12440170,41500619,0,0,0,20800119,0,0,0,0,0,0,0,0,0,0,0,0,0,0,0,0,0,10310119,0,0,0,0,-2130051,0,0,0,0,0,0,0,0,41500619
20,246,643.613204942085,1,0,635852.686706782,635853.733769415,10,1,1,35,9,82421847,53311528,42002338,63291879,0,0,0,0,30810319,0,0,40411319,11200209,0,31600909,0,0,21710619,0,0,0,0,0,0,0,31001019,11001319,0,0,0,0,0,40400109,0,0,0,20701709,0,-2190061,0
20,247,507.767026079819,1,0,635855.451507184,635856.498517462,10,0,1,14,3,30810909,32561610,0,30911309,30810909,0,0,0,0,0,0,0,0,0,0,31410419,0,-1151191,0,0,0,0,0,0,0,0,0,0,0,0,0,0,0,0,30911309,0,0,0,0,0
20,248,521.766131394543,0,0,635858.063244798,635859.110349391,10,0,0,22,9,31710419,23121228,45194347,102104047,0,0,0,0,0,0,0,0,31710419,0,11410019,0,0,0,0,0,11711209,0,0,0,10501619,-1180190,0,11611919,21900619,0,0,0,41601509,0,30301119,0,0,0,30201419,0
20,249,598.036521812901,0,0,635860.816218044,635861.863323792,10,0,0,28,31,179759591,153928164,191528621,179887774,41001409,10100309,20511809,31211609,10401609,11310019,11910109,31412009,11900709,31510609,40601909,0,20501919,0,20401309,0,10401809,30510609,11001209,11400009,41111109,11801019,20900619,11001819,41901119,21811509,20600209,-2141061,0,11901019,20501409,10510119,41211419,40310209,31911019,21401519
20,250,615.834806929342,1,0,635863.557432272,635864.60449298,10,1,1,18,3,42001809,1011141,52001938,0,0,0,0,0,0,0,42001809,0,0,0,0,0,0,0,0,0,0,-1011141,30400019,21601919,0,0,0,0,0,0,0,0,0,0,0,0,0,0,0,0
20,251,615.87522784248,0,0,635866.416347544,635867.463396318,10,0,0,30,9,114335466,11900219,93123737,31262250,10711719,20110319,41701719,0,41811709,0,0,0,0,0,0,0,0,0,0,0,0,11900219,0,0,0,0,30210819,31012009,31900909,0,0,0,0,-1051141,0,0,0,0,30211109,0
20,252,643.554690876044,0,0,635869.15749556,635870.204560502,10,1,0,33,31,206959792,146648683,228139892,182637902,10401209,41500619,41611109,12010709,10310519,0,20811909,40201809,30111909,10200419,20111409,21911809,21711309,0,0,21601209,10301309,40811219,0,31111709,31201809,30101009,40611009,11611309,41700919,11500109,30302019,41701219,20210309,10601019,11500609,10000319,-4101190,41900709,30811419,11811109
20,253,564.34165884275,1,0,635871.851642151,635872.898712868,10,0,1,10,9,42010619,107696356,102911456,0,0,0,0,0,0,0,0,0,42010619,-4061190,0,0,11102019,30311519,40810509,21411119,0,0,0,0,40900719,0,10500219,11200109,0,40310409,0,0,0,0,0,0,0,0,0,0
20,254,654.725488042459,1,0,635874.628149601,635875.675211848,10,1,1,9,19,120305766,195342804,114057695,85516066,0,11901509,0,31410509,31910709,0,0,41001919,-4081120,11510019,41410319,30610319,0,30400419,0,0,41100819,40310909,10111919,21911019,0,21512019,0,0,40011219,20511519,0,20701619,11811319,41201119,0,0,0,0,0,11802009
20,255,730.652878293768,1,0,635877.52230266,635878.569367987,10,1,1,26,31,187247103,188157551,242038253,166366032,21811609,40510209,31711719,31611619,10000119,0,0,41600219,10001609,30000419,12000319,41210019,10900319,11311819,21300609,11111819,30011309,20310919,21110719,0,41911519,41900119,30401709,40611519,41401019,-3100130,21601519,41410419,20110819,0,30511509,30710209,10201319,11810819,10410019,11200919
20,256,475.837209145539,0,0,635880.381217547,635881.428237449,10,0,0,23,19,63312428,124943955,146778185,165947294,0,0,0,0,21301209,0,0,42011219,0,30000209,0,11211319,0,0,21511309,0,31010809,31210309,30510709,10101419,0,40701709,-3040091,21311319,0,21001719,20111219,20400619,0,0,21611909,31210319,30110719,31011809,0,31601919
20,257,513.624592102133,1,0,635883.07530601,635884.122369027,10,0,1,21,3,0,30801319,63852699,0,0,0,0,0,0,0,0,0,0,0,0,0,0,0,0,0,30801319,0,0,0,-3051181,0,0,20300209,0,0,40501309,0,0,0,0,0,0,0,0,0
20,258,549.213463091291,0,0,635885.710629411,635886.757704747,10,1,0,8,31,210367752,227556011,199647392,165123584,41901409,20310019,20011609,22010319,41410519,41710419,10600609,-1011030,11401819,31111209,11000509,40111419,21710009,10000119,40311209,21501309,31500119,20310109,42011019,30110009,11400709,31701609,30611209,10501919,11810209,31500709,0,20800219,0,31911709,40600119,21300119,0,20100509,0,30410909
20,259,521.859291940928,1,0,635888.345958203,635889.393050862,10,0,1,15,3,11711109,3041150,0,31121928,0,0,0,11711109,0,0,0,0,0,0,0,0,0,0,-3041150,0,0,0,0,0,0,0,0,0,0,0,0,20711519,0,0,10410409,0,0,0,0,0
20,260,712.092755362391,0,0,635891.063633608,635892.11070394,10,0,0,6,19,178524736,135212956,104613346,115025204,0,0,31100519,40600019,30811019,-4100051,41011209,30901919,0,0,41000609,0,11000019,0,41411709,0,41800619,0,0,21011209,0,11401009,30901109,0,0,41300019,0,0,21201219,11400119,20401519,0,0,11600819,20211319,30210209
20,261,669.219653122127,0,0,635926.94641569,635927.993484482,11,1,0,33,31,206959792,146648683,228139892,182637902,10401209,41500619,41611109,12010709,10310519,0,20811909,40201809,30111909,10200419,20111409,21911809,21711309,0,0,21601209,10301309,40811219,0,31111709,31201809,30101009,40611009,11611309,41700919,11500109,30302019,41701219,20210309,10601019,11500609,10000319,-4101190,41900709,30811419,11811109
20,262,643.898076028563,1,0,635929.793514586,635930.840632653,11,0,1,19,19,155216095,111512947,56543827,226647112,0,40511519,0,40701819,0,0,11600319,41200719,21201719,40701009,0,0,40010219,0,0,0,30801719,0,-3021190,0,0,11710909,0,30101009,0,11710719,0,10200019,30801109,31411009,40910719,31511509,41310919,20200309,0,20301519
20,263,483.027509879321,1,0,635932.605314486,635933.652376734,11,1,1,9,19,120305766,195342804,114057695,85516066,0,11901509,0,31410509,31910709,0,0,41001919,-4081120,11510019,41410319,30610319,0,30400419,0,0,41100819,40310909,10111919,21911019,0,21512019,0,0,40011219,20511519,0,20701619,11811319,41201119,0,0,0,0,0,11802009
20,264,652.598963701166,0,0,635935.322991817,635936.370061378,11,1,0,36,9,83534057,41122718,31410909,87133118,0,0,0,0,21910819,21311319,40311919,0,0,0,10311609,0,0,0,0,30811109,0,0,0,0,0,31410909,0,0,0,0,0,0,10800609,0,0,0,0,41310819,30900619,-4121071
20,265,449.442745768465,0,0,635938.12302962,635939.170095717,11,1,0,8,31,210367752,227556011,199647392,165123584,41901409,20310019,20011609,22010319,41410519,41710419,10600609,-1011030,11401819,31111209,11000509,40111419,21710009,10000119,40311209,21501309,31500119,20310109,42011019,30110009,11400709,31701609,30611209,10501919,11810209,31500709,0,20800219,0,31911709,40600119,21300119,0,20100509,0,30410909
20,266,538.707878324203,1,0,635940.793669725,635941.840714264,11,0,1,12,9,42810718,67033558,62422237,32822728,22000709,0,0,0,0,0,20810009,0,0,42001609,0,-4130140,0,20901809,0,0,0,0,0,0,0,0,0,41400009,11010919,10011309,0,0,0,11711719,21111009,0,0,0,0,0
20,267,398.566690157168,0,0,635943.44074483,635944.487797839,11,0,0,35,0,0,0,0,0,0,0,0,0,0,0,0,0,0,0,0,0,0,0,0,0,0,0,0,0,0,0,0,0,0,0,0,0,0,0,0,0,0,0,-20201391,0
20,268,554.384258575737,1,0,635946.029003675,635947.076068617,11,1,1,18,3,42001809,1011141,52001938,0,0,0,0,0,0,0,42001809,0,0,0,0,0,0,0,0,0,0,-1011141,30400019,21601919,0,0,0,0,0,0,0,0,0,0,0,0,0,0,0,0
20,269,487.081148894504,0,0,635948.664330157,635949.723157966,11,1,0,32,0,0,0,0,0,0,0,0,0,0,0,0,0,0,0,0,0,0,0,0,0,0,0,0,0,0,0,0,0,0,0,0,0,0,0,0,-10710191,0,0,0,0
20,270,475.984649150632,0,0,635951.323189302,635952.370250009,11,1,0,34,3,20610719,22011809,11910509,2091031,20610719,0,0,0,0,0,0,0,0,0,0,22011809,0,0,0,0,0,0,0,0,11910509,0,0,0,0,0,0,0,0,0,0,0,0,-2091031,0,0
20,271,508.342157816514,1,0,635953.9349785,635954.982038438,11,0,1,10,31,191046712,216210004,225439682,189058912,10601909,0,31810309,41510319,11210419,21611809,31900819,21000119,21401009,-2181091,20100819,40201619,0,40400209,11201819,41701219,40211309,20211919,41001609,31700309,40001809,11311909,20511109,10600319,0,40111909,30200709,40811319,11602019,21310109,21601219,0,10810709,30310919,10910609,41702009
20,272,480.650760931894,1,0,635956.617383012,635957.664484526,11,0,1,15,31,229958032,129187734,159754612,169455922,30910519,31611619,0,31302019,20511219,40510119,31611509,22000919,21500109,20510409,30410819,11210609,10501909,11610709,-1121061,0,22011209,21811009,11401209,21901509,11510119,31910009,0,40011409,21310119,11510219,10200019,11101119,11400119,10311419,0,31401619,31910509,31010319,30910709,11410109
20,273,564.200763124973,1,0,635959.335048024,635960.382109887,11,1,1,26,31,187247103,188157551,242038253,166366032,21811609,40510209,31711719,31611619,10000119,0,0,41600219,10001609,30000419,12000319,41210019,10900319,11311819,21300609,11111819,30011309,20310919,21110719,0,41911519,41900119,30401709,40611519,41401019,-3100130,21601519,41410419,20110819,0,30511509,30710209,10201319,11810819,10410019,11200919
20,274,638.247619033791,0,0,635961.993894465,635963.040966337,11,1,0,20,19,74534846,126035345,146674105,123432556,0,0,0,11201209,30211909,0,11310319,0,21811409,0,20601209,0,40400209,11810609,0,11511809,0,41711509,20511019,-2040111,30111019,31101009,0,0,10800419,31900009,20210519,30200609,0,41810519,0,31211419,0,0,20210009,0
20,275,526.445716852322,1,0,635964.758645977,635965.805693596,11,0,1,6,9,117302658,52222328,11101209,94512537,42010609,0,41401709,0,0,-3080131,0,0,30810209,0,0,0,0,11511409,40710919,0,0,0,0,0,0,11101209,0,0,0,0,0,11301409,41610719,0,0,0,41600409,0,0,0
20,276,556.174327037297,0,0,635967.488089639,635968.535148422,11,0,0,28,19,155649774,136024885,123033846,56734947,10811209,41201909,41511809,41101119,0,11011919,0,10011809,0,10801519,0,41600419,0,31800909,0,0,31710819,20111219,30810809,0,30101009,22011209,0,0,40110819,0,0,-1200001,11911109,0,0,0,11701609,10111219,0,21811009
20,277,448.546556639485,1,0,635970.123404187,635971.170473748,11,0,1,30,3,63612728,0,10810519,2200191,22011409,0,0,0,0,0,41601319,0,0,0,0,0,0,0,0,0,0,0,0,0,0,0,0,0,0,10810519,0,0,0,-2200191,0,0,0,0,0,0
20,278,417.967182584107,0,0,635972.735231496,635973.78232839,11,1,0,27,3,20800119,0,12440170,41500619,0,0,0,20800119,0,0,0,0,0,0,0,0,0,0,0,0,0,0,0,0,0,10310119,0,0,0,0,-2130051,0,0,0,0,0,0,0,0,41500619
20,279,489.127601264045,0,0,635975.358760464,635976.405830796,11,0,0,23,31,177523973,230269011,160466455,187858421,41501209,0,20411609,21500109,0,30710009,20800209,21000709,21600119,40300009,21311009,10801009,31911109,10911009,30701919,41211509,11310219,31811219,40110609,41700219,10010309,0,-4031171,31911709,11600819,0,21101619,20810509,11101419,40310509,20100319,11401709,40511119,10811209,11400709,21410919
20,280,411.663446924649,0,0,635978.088241083,635979.135287547,11,0,0,22,19,156926094,135344994,55491677,95113956,0,10300609,0,31810819,30201619,32000709,31601619,21010719,0,11310219,10210409,0,40300619,31210709,0,30301219,12011819,0,11510119,30901209,0,-1080130,0,12000219,0,0,0,30910409,0,0,11401519,0,0,0,40801109,12000919
20,281,526.352556305937,1,0,635980.723537537,635981.770604404,11,1,1,11,19,72313238,134736696,146536084,145943874,0,41301219,0,0,0,0,0,0,31012019,30001309,-1011041,0,31210909,0,20701509,0,21500009,30311919,20611419,0,20800719,0,21210409,41712019,0,20801009,21400509,40001109,0,0,30610219,11200809,20810009,0,31911019,11410709
20,282,437.150557292625,1,0,635983.417688363,635984.464748686,11,0,1,21,9,82911638,61811728,34345178,52812318,0,0,0,0,41900319,41011319,0,0,0,0,0,0,0,0,0,21011119,40800609,0,10201509,0,-2130041,0,10512019,11501609,0,0,0,10912009,0,0,0,41900309,0,0,0,0
20,283,403.744415030815,1,0,635985.947134027,635986.99419281,11,0,1,24,3,20000719,11600009,33551500,0,0,20000719,0,0,0,0,0,0,0,0,0,0,0,11600009,0,0,0,0,0,0,0,0,0,-2051081,0,31500419,0,0,0,0,0,0,0,0,0,0
20,284,569.513994385488,0,0,635988.488335629,635989.535403266,11,1,0,35,9,82421847,53311528,42002338,63291879,0,0,0,0,30810319,0,0,40411319,11200209,0,31600909,0,0,21710619,0,0,0,0,0,0,0,31001019,11001319,0,0,0,0,0,40400109,0,0,0,20701709,0,-2190061,0
20,285,465.936398133636,0,0,635991.311886848,635992.358962569,11,0,0,14,3,0,23882800,10001119,11700219,0,0,0,0,0,0,0,0,0,0,0,0,0,-3071081,20811719,0,0,0,0,10001119,0,0,0,0,0,0,0,11700219,0,0,0,0,0,0,0,0
20,286,665.830071899109,1,0,635993.959017002,635995.006111971,11,1,1,7,9,75143559,21511728,83102328,80620747,41101219,31901309,0,0,0,0,-2141031,0,0,0,0,0,0,0,11500309,0,0,10011419,41401809,0,0,41700519,0,0,0,0,0,10110109,0,30000619,0,0,40510019,0,0,0
20,287,808.972415747121,1,0,636029.900648067,636030.947659884,12,0,1,24,19,21301619,195224484,144618215,156226283,21301619,0,0,0,0,0,0,0,0,40801119,0,40411809,41500609,0,0,20800019,31110809,20600119,10001009,40300609,0,41511509,0,-2091160,20712019,30001909,0,40600309,11401209,10311209,41911919,20500309,10000809,0,0,21500519
20,288,555.324718239717,0,0,636032.877137731,636033.924166871,12,1,0,33,31,206959792,146648683,228139892,182637902,10401209,41500619,41611109,12010709,10310519,0,20811909,40201809,30111909,10200419,20111409,21911809,21711309,0,0,21601209,10301309,40811219,0,31111709,31201809,30101009,40611009,11611309,41700919,11500109,30302019,41701219,20210309,10601019,11500609,10000319,-4101190,41900709,30811419,11811109
20,289,451.479189214297,1,0,636035.641839967,636036.688907219,12,1,1,34,3,20610719,22011809,11910509,2091031,20610719,0,0,0,0,0,0,0,0,0,0,22011809,0,0,0,0,0,0,0,0,11910509,0,0,0,0,0,0,0,0,0,0,0,0,-2091031,0,0
20,290,447.315451456234,0,0,636038.324296834,636039.371290559,12,1,0,26,31,187247103,188157551,242038253,166366032,21811609,40510209,31711719,31611619,10000119,0,0,41600219,10001609,30000419,12000319,41210019,10900319,11311819,21300609,11111819,30011309,20310919,21110719,0,41911519,41900119,30401709,40611519,41401019,-3100130,21601519,41410419,20110819,0,30511509,30710209,10201319,11810819,10410019,11200919
20,291,735.131129040383,1,0,636040.830137847,636041.877200864,12,1,1,32,0,0,0,0,0,0,0,0,0,0,0,0,0,0,0,0,0,0,0,0,0,0,0,0,0,0,0,0,0,0,0,0,0,0,0,0,-10710191,0,0,0,0
20,292,464.174431865104,1,0,636043.630169106,636044.677232508,12,1,1,9,19,120305766,195342804,114057695,85516066,0,11901509,0,31410509,31910709,0,0,41001919,-4081120,11510019,41410319,30610319,0,30400419,0,0,41100819,40310909,10111919,21911019,0,21512019,0,0,40011219,20511519,0,20701619,11811319,41201119,0,0,0,0,0,11802009
20,293,530.07320407778,1,0,636046.230201597,636047.277259994,12,1,1,11,19,72313238,134736696,146536084,145943874,0,41301219,0,0,0,0,0,0,31012019,30001309,-1011041,0,31210909,0,20701509,0,21500009,30311919,20611419,0,20800719,0,21210409,41712019,0,20801009,21400509,40001109,0,0,30610219,11200809,20810009,0,31911019,11410709
20,294,459.70734488219,0,0,636048.81847584,636049.865579278,12,0,0,10,31,268159921,248708624,237548812,138357593,40110509,21402009,40510919,10500319,41911419,31600409,30211219,11301509,40611609,-2061121,40200209,41611419,40311109,10611419,40301219,0,31600519,42011609,10301619,30510209,31600219,0,11410709,30901909,41611819,40902009,40310319,21211109,20801319,10710419,0,41711819,10900209,11211209,0,21811509
20,295,519.58109298721,0,0,636051.406796663,636052.453795007,12,0,0,6,3,11501890,31411009,0,31100519,0,0,0,0,0,-1200181,0,10301709,0,0,31411009,0,0,0,0,0,0,0,0,0,0,0,0,0,0,0,0,0,31100519,0,0,0,0,0,0,0
20,296,682.431128341705,0,0,636054.053825573,636055.100892055,12,1,0,20,19,74534846,126035345,146674105,123432556,0,0,0,11201209,30211909,0,11310319,0,21811409,0,20601209,0,40400209,11810609,0,11511809,0,41711509,20511019,-2040111,30111019,31101009,0,0,10800419,31900009,20210519,30200609,0,41810519,0,31211419,0,0,20210009,0
20,297,426.072535687126,0,0,636056.830384992,636057.877388725,12,0,0,22,3,73013338,0,1201180,21302009,0,0,0,0,0,41911519,31101819,0,0,0,0,0,0,0,0,0,0,0,0,0,0,-1201180,0,0,0,0,0,0,0,0,0,0,21302009,0,0,0
20,298,495.99568976555,0,0,636059.395066518,636060.442135694,12,0,0,19,19,191224374,73221647,117237696,114225485,41900319,22001409,0,22000709,0,42000809,41711109,21610019,0,0,0,11300509,0,0,0,31210019,0,30711119,-3021141,10401409,0,0,11001319,30111409,0,21800709,40901709,10900819,30610319,10910619,30801819,0,0,0,31001909,0
20,299,985.26374809444,1,0,636061.995090924,636063.042159331,12,1,1,36,9,83534057,41122718,31410909,87133118,0,0,0,0,21910819,21311319,40311919,0,0,0,10311609,0,0,0,0,30811109,0,0,0,0,0,31410909,0,0,0,0,0,0,10800609,0,0,0,0,41310819,30900619,-4121071
20,300,465.890587773174,0,0,636065.08930473,636066.136311158,12,0,0,14,31,248748422,177137314,177867112,217859392,21801419,40501019,31911319,20111309,41710119,40600319,0,11011409,41101509,21511219,30200009,0,31000719,-1011011,20810719,21100509,20201309,31301819,0,20011219,21301009,20700219,11911209,30210919,11911109,30910909,30910519,21511119,30110309,41601909,20711109,31500709,20611609,0,31311409,20501219
20,301,447.036739671603,1,0,636067.653987795,636068.701045808,12,0,1,15,3,31000419,3130031,20101209,30300209,0,0,0,0,0,0,0,0,31000419,0,0,0,0,0,-3130031,0,0,0,0,0,0,0,0,0,0,20101209,0,0,0,0,0,0,0,0,0,30300209
20,302,403.078817413189,0,0,636070.359901874,636071.406962966,12,0,0,28,9,126336465,82610918,20610319,44081970,42012019,30511319,11900909,20011909,0,0,21900309,0,0,0,0,41410209,41200709,0,0,0,0,0,0,0,0,0,0,0,0,20610319,0,-3081151,0,0,0,0,0,0,0,41000819
20,303,371.093951049261,1,0,636073.006990837,636074.054054625,12,0,1,24,0,0,0,0,0,0,0,0,0,0,0,0,0,0,0,0,0,0,0,0,0,0,0,0,0,0,0,0,-20811401,0,0,0,0,0,0,0,0,0,0,0,0
20,304,497.803466510959,1,0,636075.454089502,636076.501163298,12,1,1,35,9,82421847,53311528,42002338,63291879,0,0,0,0,30810319,0,0,40411319,11200209,0,31600909,0,0,21710619,0,0,0,0,0,0,0,31001019,11001319,0,0,0,0,0,40400109,0,0,0,20701709,0,-2190061,0
20,305,497.865060227923,1,0,636078.195300266,636079.242352119,12,1,1,8,31,210367752,227556011,199647392,165123584,41901409,20310019,20011609,22010319,41410519,41710419,10600609,-1011030,11401819,31111209,11000509,40111419,21710009,10000119,40311209,21501309,31500119,20310109,42011019,30110009,11400709,31701609,30611209,10501919,11810209,31500709,0,20800219,0,31911709,40600119,21300119,0,20100509,0,30410909
20,306,481.210109195672,1,0,636080.924750087,636081.971814645,12,0,1,12,19,135713084,84294797,42512918,249231692,0,0,11000119,11400109,30000019,0,11601609,41701219,30010009,0,20510219,-1071150,0,0,0,30812019,0,31901409,0,0,31511309,0,0,0,11001609,0,0,30500809,21801019,41811609,0,31611919,30601909,31101209,21301909,40501309
20,307,456.1641641194,0,0,636083.607126498,636084.665963931,12,0,0,23,9,121023727,82322537,45472848,31811009,40311909,40111609,40600209,0,0,0,0,0,0,0,0,20510309,0,0,31102009,0,30710219,0,0,0,10111609,0,-4161030,0,0,0,31200209,0,0,0,0,0,0,0,31811009,0
20,308,653.587543405592,1,0,636086.301276939,636087.348338416,12,1,1,7,9,75143559,21511728,83102328,80620747,41101219,31901309,0,0,0,0,-2141031,0,0,0,0,0,0,0,11500309,0,0,10011419,41401809,0,0,41700519,0,0,0,0,0,10110109,0,30000619,0,0,40510019,0,0,0
20,309,668.189112679102,0,0,636089.07776976,636090.124837012,12,1,0,18,3,42001809,1011141,52001938,0,0,0,0,0,0,0,42001809,0,0,0,0,0,0,0,0,0,0,-1011141,30400019,21601919,0,0,0,0,0,0,0,0,0,0,0,0,0,0,0,0
20,310,624.241584446281,1,0,636091.842512417,636092.889578899,12,0,1,30,31,130937702,194646123,279840821,200924453,0,11901009,11801619,10400709,11911209,20910209,31510119,10802009,21700819,41511619,40210219,10900109,0,30111919,0,20411119,40301019,11200119,41301409,21001819,20502019,41611509,21400709,41501709,40610019,40500619,11411009,30701209,31910119,-3080060,11311909,40900209,32010119,0,10100119,40910709
20,311,397.036085254513,0,0,636094.630783889,636095.677843826,12,1,0,27,3,20800119,0,12440170,41500619,0,0,0,20800119,0,0,0,0,0,0,0,0,0,0,0,0,0,0,0,0,0,10310119,0,0,0,0,-2130051,0,0,0,0,0,0,0,0,41500619
20,312,441.805505310185,0,0,636097.11316384,636098.160226473,12,0,0,21,9,65016566,52821928,25983539,42010019,0,0,11102019,20501919,21810609,11602019,0,0,0,0,21611109,0,0,0,0,31210819,0,0,0,0,-3171111,0,11900819,0,0,10911609,0,0,0,42010019,0,0,0,0,0,0
20,313,664.769889321178,0,0,636132.666522124,636133.713642886,13,1,0,32,0,0,0,0,0,0,0,0,0,0,0,0,0,0,0,0,0,0,0,0,0,0,0,0,0,0,0,0,0,0,0,0,0,0,0,0,-10710191,0,0,0,0
20,314,509.930506697856,1,0,636135.466565317,636136.513632569,13,0,1,30,31,266128832,145734984,260561691,178268523,21301209,20010919,41300719,40701119,30010419,41601619,31201009,0,40001819,11200909,20200019,0,0,31601019,0,30310709,10811719,41610609,41710619,40601409,31211909,11511309,41001909,21401209,21410109,11511509,40201709,10100609,10300619,-1140131,21512009,21310419,21001309,30701509,41100609,21101309
20,315,545.026242616586,0,0,636138.172465922,636139.219582833,13,0,0,6,31,128289674,219060251,157677512,220049722,0,0,40611819,10311509,11511909,-2041100,31601009,21400809,10811519,40801219,40211919,30310809,10800219,11911609,31912019,21601419,10310519,21200519,20201409,31910019,20011319,10711719,0,31610809,11710309,10510509,21011419,0,32001809,31511119,20502009,41910619,30901819,10900719,20711509,31610119
20,316,658.648625249043,0,0,636140.86668912,636141.913689004,13,1,0,34,3,20610719,22011809,11910509,2091031,20610719,0,0,0,0,0,0,0,0,0,0,22011809,0,0,0,0,0,0,0,0,11910509,0,0,0,0,0,0,0,0,0,0,0,0,-2091031,0,0
20,317,456.502544810064,0,0,636143.701955086,636144.749024648,13,0,0,28,9,40401409,134921466,91221537,12830199,0,40401409,0,0,0,0,0,0,0,0,30510409,41400419,0,0,0,21000519,0,42010119,0,30010319,0,20510909,0,0,0,0,40700309,-1120180,11710019,0,0,0,0,0,0,0
20,318,652.977765304968,1,0,636146.337285032,636147.384343815,13,1,1,7,9,75143559,21511728,83102328,80620747,41101219,31901309,0,0,0,0,-2141031,0,0,0,0,0,0,0,11500309,0,0,10011419,41401809,0,0,41700519,0,0,0,0,0,10110109,0,30000619,0,0,40510019,0,0,0
20,319,661.988602718338,1,0,636149.219665985,636150.266534926,13,0,1,22,3,0,0,65070858,10210109,0,0,0,0,0,0,0,0,0,0,0,0,0,0,0,0,0,0,31300709,0,0,-3160130,30610019,0,0,0,0,10210109,0,0,0,0,0,0,0,0
20,320,486.639983486384,1,0,636152.078568554,636153.12559423,13,1,1,8,31,210367752,227556011,199647392,165123584,41901409,20310019,20011609,22010319,41410519,41710419,10600609,-1011030,11401819,31111209,11000509,40111419,21710009,10000119,40311209,21501309,31500119,20310109,42011019,30110009,11400709,31701609,30611209,10501919,11810209,31500709,0,20800219,0,31911709,40600119,21300119,0,20100509,0,30410909
20,321,372.016317560337,0,0,636154.796203538,636155.84326925,13,1,0,27,3,20800119,0,12440170,41500619,0,0,0,20800119,0,0,0,0,0,0,0,0,0,0,0,0,0,0,0,0,0,10310119,0,0,0,0,-2130051,0,0,0,0,0,0,0,0,41500619
20,322,432.769316597842,1,0,636157.290361371,636158.337414379,13,0,1,23,9,62801428,11400919,64234478,133623656,0,0,0,0,0,0,0,21701409,41100019,0,0,0,11400919,0,0,0,0,0,21601619,0,40501819,0,-2131040,0,0,0,0,31901409,0,40000309,0,0,0,40711319,0,21010619
20,323,478.096544975415,0,0,636159.949204732,636160.996273909,13,0,0,24,19,145124375,135247075,95194517,145923794,0,20010509,41302009,41911019,0,10600619,0,31300219,0,0,0,20411019,10512009,21511919,41700219,41111909,0,0,0,20801209,30100219,0,0,-4081070,40212019,0,0,0,0,11700409,30301209,10510619,31010219,20600519,41800819,0
20,324,595.726756146178,0,0,636162.490485636,636163.53747936,13,1,0,26,31,187247103,188157551,242038253,166366032,21811609,40510209,31711719,31611619,10000119,0,0,41600219,10001609,30000419,12000319,41210019,10900319,11311819,21300609,11111819,30011309,20310919,21110719,0,41911519,41900119,30401709,40611519,41401019,-3100130,21601519,41410419,20110819,0,30511509,30710209,10201319,11810819,10410019,11200919
20,325,463.479962199926,1,0,636165.325756606,636166.372796911,13,0,1,12,3,40100509,31462789,41000219,0,40100509,0,0,0,0,0,0,0,0,0,0,-1051070,0,30411719,0,0,0,0,0,41000219,0,0,0,0,0,0,0,0,0,0,0,0,0,0,0,0
20,326,594.568793545477,1,0,636167.937538106,636168.984605357,13,0,1,14,19,63325966,85663848,147526255,177247113,0,0,0,0,10611409,11511919,0,20701719,20500919,0,31300619,0,0,-4051191,0,10101619,40210419,0,0,31211409,11501409,0,0,42010409,21401119,41401909,0,31211109,31711319,11501119,40010109,11801019,31010519,20001919,0,0
20,327,437.941652024165,1,0,636170.761107802,636171.808172744,13,0,1,18,0,0,0,0,0,0,0,0,0,0,0,0,0,0,0,0,0,0,0,0,0,0,-31409991,0,0,0,0,0,0,0,0,0,0,0,0,0,0,0,0,0,0
20,328,558.553000795655,1,0,636173.443484597,636174.490553389,13,0,1,21,3,0,0,3131051,83122227,0,0,0,0,0,0,0,0,0,0,0,0,0,0,0,0,0,0,0,0,-3131051,0,0,0,0,0,0,31000309,0,0,0,0,41810609,0,10311309,0
20,329,543.324330239557,0,0,636176.125917982,636177.172935959,13,1,0,35,9,82421847,53311528,42002338,63291879,0,0,0,0,30810319,0,0,40411319,11200209,0,31600909,0,0,21710619,0,0,0,0,0,0,0,31001019,11001319,0,0,0,0,0,40400109,0,0,0,20701709,0,-2190061,0
20,330,477.769713150337,0,0,636178.855319683,636179.902381161,13,1,0,36,9,83534057,41122718,31410909,87133118,0,0,0,0,21910819,21311319,40311919,0,0,0,10311609,0,0,0,0,30811109,0,0,0,0,0,31410909,0,0,0,0,0,0,10800609,0,0,0,0,41310819,30900619,-4121071
20,331,587.533631944098,0,0,636181.455351789,636182.502409802,13,0,0,19,19,122825746,126045584,179626226,103411746,40001619,21011509,41000909,0,0,0,20811709,0,0,41711419,10910619,0,10400219,40600509,10911409,0,0,11511409,-3010071,41201609,21401309,0,0,30810709,41600809,0,41601719,0,31000419,30200109,0,10900309,0,0,31310909,0
20,332,458.54899729602,0,0,636184.302438751,636185.349509467,13,1,0,18,3,42001809,1011141,52001938,0,0,0,0,0,0,0,42001809,0,0,0,0,0,0,0,0,0,0,-1011141,30400019,21601919,0,0,0,0,0,0,0,0,0,0,0,0,0,0,0,0
20,333,618.449076777324,1,0,636187.008363223,636188.055421621,13,1,1,9,19,120305766,195342804,114057695,85516066,0,11901509,0,31410509,31910709,0,0,41001919,-4081120,11510019,41410319,30610319,0,30400419,0,0,41100819,40310909,10111919,21911019,0,21512019,0,0,40011219,20511519,0,20701619,11811319,41201119,0,0,0,0,0,11802009
20,334,499.286336125806,1,0,636189.702498651,636190.749570137,13,0,1,10,31,224858551,217749342,226757822,155535284,41000319,10502019,30600919,30610909,20111719,30510109,10001219,10710019,40811319,-1000130,31710709,21210119,41001219,20700419,10402019,30111709,31611709,30001309,0,11010519,20311809,31001119,40200709,10710819,40710919,41910209,30901719,0,40200809,30200009,20211709,0,11711119,41311119,0,11900519
20,335,507.744313334115,1,0,636192.314310947,636193.361368575,13,1,1,20,19,74534846,126035345,146674105,123432556,0,0,0,11201209,30211909,0,11310319,0,21811409,0,20601209,0,40400209,11810609,0,11511809,0,41711509,20511019,-2040111,30111019,31101009,0,0,10800419,31900009,20210519,30200609,0,41810519,0,31211419,0,0,20210009,0
20,336,471.427096286789,0,0,636195.008458694,636196.055521326,13,1,0,11,19,72313238,134736696,146536084,145943874,0,41301219,0,0,0,0,0,0,31012019,30001309,-1011041,0,31210909,0,20701509,0,21500009,30311919,20611419,0,20800719,0,21210409,41712019,0,20801009,21400509,40001109,0,0,30610219,11200809,20810009,0,31911019,11410709
20,337,437.853880925104,0,0,636197.679079551,636198.726137179,13,0,0,15,9,103414746,23052109,42823428,51801028,22000209,0,20000909,0,40501709,0,0,0,20911919,0,0,0,21910919,0,-1141190,0,0,0,0,0,0,11112009,0,31711419,0,0,0,10900619,0,0,0,40900409,0,0,0,0
20,338,595.392994931899,1,0,636200.255575913,636201.302633541,13,1,1,33,31,206959792,146648683,228139892,182637902,10401209,41500619,41611109,12010709,10310519,0,20811909,40201809,30111909,10200419,20111409,21911809,21711309,0,0,21601209,10301309,40811219,0,31111709,31201809,30101009,40611009,11611309,41700919,11500109,30302019,41701219,20210309,10601019,11500609,10000319,-4101190,41900709,30811419,11811109
20,339,731.105592334643,1,0,636236.0442335,636237.091305372,14,1,1,36,9,83534057,41122718,31410909,87133118,0,0,0,0,21910819,21311319,40311919,0,0,0,10311609,0,0,0,0,30811109,0,0,0,0,0,31410909,0,0,0,0,0,0,10800609,0,0,0,0,41310819,30900619,-4121071
20,340,491.058950428851,1,0,636238.997222068,636240.044280081,14,0,1,12,31,185755703,150431632,226864002,220227932,30900619,40010209,0,11811509,31210619,20210519,0,40802009,10810219,10811909,11300809,-2071130,30210619,21501509,31911509,11100519,11511809,20011819,10310109,21010309,41710519,0,40300209,21611809,41410009,30100119,20410919,31901819,41910819,31300409,30911119,10400819,0,32000919,30000909,11801119
20,341,604.730992927216,0,0,636241.679596168,636242.726659571,14,0,0,28,19,125823946,144422266,157638584,109814335,31802009,0,21410009,0,0,41110819,0,0,31501109,0,0,41511119,0,0,0,30200119,41500119,31210909,0,31801909,0,31201709,20511709,31310019,0,31611219,11202019,-4101080,10901019,11610509,0,21001309,41300209,20900209,0,0
20,342,530.026238760911,1,0,636244.385541044,636245.432580578,14,0,1,14,31,147135404,149749093,189878622,228227811,0,0,21810019,11700519,30811419,32000919,30611219,20201309,0,11811019,21901719,11200509,21511619,-1000171,10011619,20001309,11710409,40600719,21210219,41610919,32011519,0,21311209,10810709,21401919,30511819,11010309,10301809,31501309,41610209,40400809,10512019,11400109,30900809,11200519,40400219
20,343,527.214483940043,1,0,636247.103315769,636248.150254444,14,1,1,11,19,72313238,134736696,146536084,145943874,0,41301219,0,0,0,0,0,0,31012019,30001309,-1011041,0,31210909,0,20701509,0,21500009,30311919,20611419,0,20800719,0,21210409,41712019,0,20801009,21400509,40001109,0,0,30610219,11200809,20810009,0,31911019,11410709
20,344,420.484827365726,0,0,636249.726755426,636250.773814594,14,0,0,15,9,52011728,84572958,61403238,52712238,0,0,0,0,0,30410409,0,0,21601319,31411709,0,11210519,0,0,-1140111,0,40810619,0,0,40201919,0,21201319,0,0,0,0,0,0,0,41010619,0,0,0,0,0,11701619
20,345,486.871730070561,0,0,636252.397368584,636253.444441995,14,1,0,32,0,0,0,0,0,0,0,0,0,0,0,0,0,0,0,0,0,0,0,0,0,0,0,0,0,0,0,0,0,0,0,0,0,0,0,0,-10710191,0,0,0,0
20,346,547.040358302183,1,0,636255.103283047,636256.150406504,14,1,1,35,9,82421847,53311528,42002338,63291879,0,0,0,0,30810319,0,0,40411319,11200209,0,31600909,0,0,21710619,0,0,0,0,0,0,0,31001019,11001319,0,0,0,0,0,40400109,0,0,0,20701709,0,-2190061,0
20,347,578.150208457373,0,0,636257.762146427,636258.809209829,14,1,0,34,3,20610719,22011809,11910509,2091031,20610719,0,0,0,0,0,0,0,0,0,0,22011809,0,0,0,0,0,0,0,0,11910509,0,0,0,0,0,0,0,0,0,0,0,0,-2091031,0,0
20,348,418.129636207595,0,0,636260.515114284,636261.562176916,14,1,0,27,3,20800119,0,12440170,41500619,0,0,0,20800119,0,0,0,0,0,0,0,0,0,0,0,0,0,0,0,0,0,10310119,0,0,0,0,-2130051,0,0,0,0,0,0,0,0,41500619
