sub_id,Trial,RT,Resp,Error,Fix_onset,Disp_onset,block,repeat,tid,tloc,d_setsize,quad1,quad2,quad3,quad4,loc1,loc2,loc3,loc4,loc5,loc6,loc7,loc8,loc9,loc10,loc11,loc12,loc13,loc14,loc15,loc16,loc17,loc18,loc19,loc20,loc21,loc22,loc23,loc24,loc25,loc26,loc27,loc28,loc29,loc30,loc31,loc32,loc33,loc34,loc35,loc36
26,1,800.312741426751,0,0,595766.619068809,595767.666142401,1,1,0,32,9,31012518,61522618,52033727,55122868,0,0,0,0,0,0,20412009,0,10600509,20810709,0,40711909,0,0,0,0,0,0,0,30011709,0,0,11710509,0,0,10311509,0,11910719,0,40202019,0,-3010130,0,0,0,0
26,2,806.284278864041,1,0,595769.560237693,595770.607287418,1,0,1,30,9,43801628,93223247,12011109,105875138,0,0,11901119,0,0,0,31900509,0,0,41511519,10201319,0,0,0,0,41510409,0,0,0,12011109,0,0,0,0,0,0,0,42011519,0,-2150001,0,30001909,0,31711709,0,0
26,3,725.24621989578,0,0,595772.466098208,595773.513133689,1,1,0,4,19,148723796,188624993,134121466,114216156,0,41910809,30800609,-4001140,41710719,0,30300519,0,0,0,21100719,31110819,0,40410809,31401819,11400009,32000309,21200509,0,0,0,41500619,41400119,30510019,0,20710709,0,0,0,42001809,0,40611319,0,0,11001119,20601909
26,4,693.800562876277,1,0,595775.301358919,595776.348483327,1,1,1,13,0,0,0,0,0,0,0,0,0,0,0,0,0,0,0,0,0,-31111001,0,0,0,0,0,0,0,0,0,0,0,0,0,0,0,0,0,0,0,0,0,0,0
26,5,592.080781585537,0,0,595778.254262999,595779.30130541,1,1,0,21,19,105236555,174647174,95246727,74423046,0,11312009,0,20611209,0,30701519,10900209,0,31711609,31101309,30110319,0,40211809,0,0,21601519,10110709,41511509,0,30511809,-2020171,0,11411819,0,30301809,0,21001119,11001319,0,20410609,0,31811109,11200009,0,0,0
26,6,699.163089622743,0,0,595781.065992112,595782.113036062,1,0,0,18,31,258247522,198096693,167525702,188457902,30111019,31900309,11201819,40411309,41711519,30000209,41110419,0,31800919,21101119,10511209,0,31111919,41900509,41400109,10000109,40010609,-2061110,11700319,30400809,30201909,0,11600409,20400019,20910009,10611819,31700409,11501409,41700609,0,11510909,30310719,21410009,11201919,30412009,30410319
26,7,720.535819535144,0,0,595783.971839537,595785.018878868,1,1,0,29,3,10510919,31201319,31510819,4180130,0,0,0,0,0,0,0,0,10510919,0,0,31201319,0,0,0,0,0,0,0,0,0,31510819,0,0,0,0,0,0,-4180130,0,0,0,0,0,0,0
26,8,617.977975052781,0,0,595786.854152669,595787.90119123,1,1,0,7,9,24251260,32412528,145522855,40601119,0,0,0,0,0,21211219,-3040041,0,0,0,0,0,0,0,12000809,20411719,0,0,41600709,11511009,0,0,0,0,40700509,30510409,21200219,40601119,0,0,0,0,0,0,0,0
26,9,550.048272241838,1,0,595789.595296223,595790.642391758,1,0,1,15,3,20401809,63862668,0,0,0,0,0,0,0,20401809,0,0,0,31700109,31011519,0,0,0,-1151040,0,0,0,0,0,0,0,0,0,0,0,0,0,0,0,0,0,0,0,0,0
26,10,577.81753805466,1,0,595792.242313765,595793.289346551,1,0,1,23,31,197449102,217429211,120770955,207137972,40001609,20411019,10011409,31701009,21300019,22011919,0,31711209,20300909,30602019,20800819,21311409,11201509,30500609,30100509,40800209,10600809,21511319,21301519,10111719,11601719,42001719,-3131141,0,0,20811219,11811919,41400509,41110209,20011709,31000709,20900309,31701509,10501209,10511809,0
26,11,1468.74227945227,0,0,595794.983512754,595796.030508969,1,0,0,31,19,63111928,197746583,189548303,96303588,0,0,0,0,0,31311309,0,0,31800619,31711609,21800709,21102009,41210319,30210109,30911119,20800709,0,0,41801009,11911819,0,11601919,20200919,0,41710319,21010309,41312009,0,0,30701519,-4180051,0,0,0,21110709,40311309
26,12,619.212164543569,1,0,595798.654030328,595799.701007295,1,0,1,28,3,11511509,0,41101019,13201560,0,0,0,0,0,11511509,0,0,0,0,0,0,0,0,0,0,0,0,0,0,0,0,0,0,0,0,41101019,-2000141,11201419,0,0,0,0,0,0,0
26,13,942.222986603156,1,0,595801.395193515,595802.442143535,1,1,1,1,31,207268023,270841122,158025603,197536532,-1050121,40000719,10211319,31001709,11500609,30800109,41201509,10900909,30601019,31701609,31001809,31101419,30110719,42001519,31610619,42011809,0,31301619,41401219,31601319,0,11210009,10210209,0,10700019,12000919,40901909,10011319,10200219,31901219,31500609,30501419,0,40411209,21310119,21700419
26,14,671.026954543777,1,0,595804.595067555,595805.642100342,1,1,1,17,19,74135036,200407334,126126065,112513737,0,0,10310509,11000509,0,0,0,11512009,41312009,21611919,21411119,30500919,32001809,0,32011009,30800209,-1170131,30900219,0,0,11400119,0,30801919,0,31411809,20501909,32010309,0,0,30901309,0,40910719,0,0,0,40701709
26,15,693.829434923828,0,0,595807.324449737,595808.37146058,1,0,0,12,31,227840092,196946004,214456682,198345202,41102009,10701509,40310819,41300909,11200709,31101209,20112019,0,32010909,21710509,0,-1091011,10811819,40310219,30110619,22010209,30400609,40501009,10600009,21300709,20110909,40411609,40011309,30111509,31810609,20100019,0,20610709,40800119,20610309,41801019,30600609,0,10300909,11910219,21711309
26,16,643.892106832936,1,0,595810.124440575,595811.171423316,1,0,1,22,19,125616385,228138823,107854358,125022356,10101819,0,0,0,41110409,41300919,21101919,0,12001319,0,31202019,30200119,30501719,41000219,41911419,31912009,0,21411319,20101519,41611109,0,-4131121,0,0,42010609,0,0,10401519,0,31200009,0,41810309,0,0,0,41610519
26,17,575.557038653642,0,0,595813.006690187,595814.053721819,1,1,0,26,3,31322128,0,3200131,20311019,0,0,0,0,0,0,20511309,10810819,0,0,0,0,0,0,0,0,0,0,0,0,0,0,0,0,0,-3200131,0,20311019,0,0,0,0,0,0,0,0
26,18,558.730715187266,0,0,595815.665466792,595816.712506123,1,0,0,27,9,80223218,92831347,34671969,72721727,0,0,0,40211609,0,40011609,0,0,0,0,40110609,0,0,0,31910719,20810019,0,0,0,0,30510919,0,0,0,0,0,-4161050,0,0,0,41410609,0,20500509,0,0,10810609
26,19,492.826299741864,1,0,595818.418365559,595819.465378713,1,0,1,16,9,40910319,42901579,84234557,116422146,0,0,0,0,40910319,0,0,0,0,0,0,0,0,0,0,-2201060,40700519,0,0,0,0,20911919,0,0,31611119,31711519,0,0,0,12000209,0,0,0,41900319,32010909,30510709
26,20,540.36646685563,1,0,595821.10066029,595822.147689611,1,1,1,11,31,216429513,168454923,218058032,238081151,30912019,31000519,31300919,40701309,31501909,10011519,41001319,0,0,20900219,-3120010,20000519,10711609,0,11200009,20701519,40610319,41210719,41811409,21810509,10111119,40711919,0,31200619,20401119,41611119,10400219,11110709,21301519,31811319,31011719,40112019,40410919,11711009,10510919,40101019
26,21,915.255982545204,0,0,595823.794757584,595824.841758418,1,1,0,33,31,178216592,125138664,308659751,260698733,10901909,11301109,0,41900709,30500109,10100819,21801519,20100309,31610109,0,20911619,11801109,0,0,40401909,11211909,20501309,20310809,31100419,41710019,42011419,20501519,40501419,32011419,40110509,30311919,30401109,31101519,21600619,40911909,20111519,31910219,-4050001,40410519,40401109,30201319
26,22,578.590157674626,1,0,595826.806438499,595827.853477445,1,0,1,22,0,0,0,0,0,0,0,0,0,0,0,0,0,0,0,0,0,0,0,0,0,0,0,0,0,0,-20210691,0,0,0,0,0,0,0,0,0,0,0,0,0,0
26,23,661.970713059418,1,0,595829.524036595,595830.571059373,1,1,1,24,9,30400319,21001909,84463087,114224366,0,30400319,0,0,0,0,0,0,0,0,0,0,0,0,0,0,21001909,0,41101309,0,0,0,10200709,-2150060,0,0,31011009,41711619,0,10901219,40601209,0,21010319,0,0,0
26,24,730.094436905347,0,0,595832.276917269,595833.323953135,1,0,0,35,19,105354004,41612638,169057384,128123146,21510919,20101019,10211319,21510019,0,11810609,0,20210119,0,31011319,0,0,0,0,10601319,0,0,0,22000409,0,41811909,0,41611919,11211209,11210319,0,41211619,0,31700019,30600219,11210919,0,0,11400909,-3010161,40200919
26,25,549.67832332477,1,0,595835.112161812,595836.159200758,1,0,1,5,3,43850320,11800219,21410319,0,0,0,0,0,-2040011,0,0,41810309,0,0,0,0,0,0,0,0,11800219,0,0,0,0,0,0,0,21410319,0,0,0,0,0,0,0,0,0,0,0
26,26,490.901487646624,0,0,595837.817989682,595838.865019004,1,1,0,3,3,1041151,21901219,20611509,41501909,0,0,-1041151,0,0,0,0,0,0,0,0,0,21901219,0,0,0,0,0,20611509,0,0,0,0,0,0,0,0,0,0,0,0,0,0,0,0,41501909
26,27,659.234015154652,1,0,595858.664607941,595859.711644577,2,0,1,16,9,144314066,85145426,0,20011809,0,31110719,40800619,30501819,0,0,0,41900909,0,10000509,0,21410119,0,0,11201609,-1121180,0,41412009,0,0,0,0,0,0,0,0,0,0,0,0,0,0,0,0,20011809,0
26,28,579.571042093448,0,0,595861.523365221,595862.570402627,2,1,0,3,3,1041151,21901219,20611509,41501909,0,0,-1041151,0,0,0,0,0,0,0,0,0,21901219,0,0,0,0,0,20611509,0,0,0,0,0,0,0,0,0,0,0,0,0,0,0,0,41501909
26,29,609.279363648966,0,0,595864.170380068,595865.217408235,2,1,0,7,9,24251260,32412528,145522855,40601119,0,0,0,0,0,21211219,-3040041,0,0,0,0,0,0,0,12000809,20411719,0,0,41600709,11511009,0,0,0,0,40700509,30510409,21200219,40601119,0,0,0,0,0,0,0,0
26,30,715.584817458875,0,0,595867.02921511,595868.076168209,2,1,0,24,9,30400319,21001909,84463087,114224366,0,30400319,0,0,0,0,0,0,0,0,0,0,0,0,0,0,21001909,0,41101309,0,0,0,10200709,-2150060,0,0,31011009,41711619,0,10901219,40601209,0,21010319,0,0,0
26,31,701.018223538995,1,0,595869.946733827,595870.993761609,2,0,1,15,9,93722976,116973828,41110809,30000209,30500619,0,0,0,31611219,0,11101019,20510119,0,40501909,0,41700519,0,31601309,-3170091,0,0,0,0,0,41110809,0,0,0,0,0,0,0,0,0,0,30000209,0,0,0,0
26,32,829.199938219972,1,0,595872.852539676,595873.899572078,2,1,1,33,31,178216592,125138664,308659751,260698733,10901909,11301109,0,41900709,30500109,10100819,21801519,20100309,31610109,0,20911619,11801109,0,0,40401909,11211909,20501309,20310809,31100419,41710019,42011419,20501519,40501419,32011419,40110509,30311919,30401109,31101519,21600619,40911909,20111519,31910219,-4050001,40410519,40401109,30201319
26,33,717.108113807626,1,0,595875.793653896,595876.840683988,2,0,1,31,31,219439801,175107284,177260011,177617244,20711909,20500109,20401519,40201819,12010809,40701409,11410509,21600209,31901509,0,20700319,41602009,41701209,30700519,0,20201919,20201309,0,10310109,21100209,11001509,40401709,10011219,11911719,30410509,31201509,10911519,20201109,11101709,40410119,-1180151,0,41411109,41511719,10101109,11700219
26,34,642.916611977853,0,0,595878.628890355,595879.675949704,2,1,0,26,3,31322128,0,3200131,20311019,0,0,0,0,0,0,20511309,10810819,0,0,0,0,0,0,0,0,0,0,0,0,0,0,0,0,0,-3200131,0,20311019,0,0,0,0,0,0,0,0
26,35,600.485281553119,1,0,595881.452354663,595882.499380136,2,1,1,29,3,10510919,31201319,31510819,4180130,0,0,0,0,0,0,0,0,10510919,0,0,31201319,0,0,0,0,0,0,0,0,0,31510819,0,0,0,0,0,0,-4180130,0,0,0,0,0,0,0
26,36,648.026218521409,1,0,595884.181696039,595885.22873614,2,1,1,17,19,74135036,200407334,126126065,112513737,0,0,10310509,11000509,0,0,0,11512009,41312009,21611919,21411119,30500919,32001809,0,32011009,30800209,-1170131,30900219,0,0,11400119,0,30801919,0,31411809,20501909,32010309,0,0,30901309,0,40910719,0,0,0,40701709
26,37,507.372105726972,0,0,595886.993408983,595888.040439075,2,1,0,21,19,105236555,174647174,95246727,74423046,0,11312009,0,20611209,0,30701519,10900209,0,31711609,31101309,30110319,0,40211809,0,0,21601519,10110709,41511509,0,30511809,-2020171,0,11411819,0,30301809,0,21001119,11001319,0,20410609,0,31811109,11200009,0,0,0
26,38,568.484508548863,0,0,595889.746283498,595890.793317439,2,0,0,28,3,53411528,0,40810809,3181080,0,21810109,0,0,0,0,31601419,0,0,0,0,0,0,0,0,0,0,0,0,40810809,0,0,0,0,0,0,0,-3181080,0,0,0,0,0,0,0,0
26,39,723.619368625805,0,0,595892.405047784,595893.452085575,2,0,0,18,19,125166294,128415408,236634922,52110838,31411219,10210019,31010309,20610919,10211919,0,0,0,21711909,0,41801819,41810819,0,0,0,41701709,0,-3101061,31401109,42001319,30210009,30600519,20000619,20401019,21810119,0,40210209,0,0,0,0,21710619,0,30400219,0,0
26,40,561.877398169599,1,0,595895.310877501,595896.357903743,2,0,1,12,3,0,45951290,11200919,22001209,0,0,0,0,0,0,0,0,0,0,0,-4150081,41801209,0,0,0,0,0,0,0,0,0,0,0,0,0,11200919,0,0,0,0,0,0,0,22001209,0
26,41,639.220587559976,0,0,595897.934339961,595898.981369283,2,0,0,23,31,167649413,249947612,168369783,229156792,21711919,0,11711409,20502019,0,10001109,42010319,40111519,21601119,20901419,31800519,31611919,0,41012009,30210109,31700809,31700109,31010719,30501319,10611009,10701019,20801809,-2030081,21412009,10100009,41700919,20511609,40400919,40901109,41110409,21811609,11800819,21911409,20910109,0,30310409
26,42,549.722209107131,0,0,595900.698990862,595901.746017489,2,0,0,22,19,116521175,136636304,176607465,42523637,10810009,0,0,20600319,0,0,22000309,31310419,31800119,21010619,11401409,40411419,11601319,20600719,31610819,0,0,0,32001719,0,40911819,-1080070,41311919,0,40900019,20401919,0,20601809,0,0,0,11811309,0,10110519,0,0
26,43,543.969330261461,1,0,595903.310732755,595904.35772974,2,0,1,30,19,72323157,142937704,165227675,94782966,0,0,30501719,0,31210919,0,0,0,10610519,0,10701119,30101119,0,0,10811819,31312009,20000019,40011619,0,42011619,0,20002009,41211819,0,21501109,0,40501119,10010409,0,-1150101,10500819,21700019,0,30611209,20810409,0
26,44,598.05578365922,1,0,595906.110645061,595907.157659369,2,1,1,13,0,0,0,0,0,0,0,0,0,0,0,0,0,0,0,0,0,-31111001,0,0,0,0,0,0,0,0,0,0,0,0,0,0,0,0,0,0,0,0,0,0,0
26,45,643.709634663537,1,0,595908.804693464,595909.851723941,2,0,1,35,9,40111409,135827365,71321328,44022219,0,0,0,0,0,0,0,0,40111409,11801919,0,0,10901409,0,41301319,0,30610709,41212009,0,0,0,30510609,0,0,0,40810719,0,0,0,0,0,0,0,0,-3121010,40901209
26,46,808.099761838093,0,0,595911.616391395,595912.663421102,2,1,0,1,31,207268023,270841122,158025603,197536532,-1050121,40000719,10211319,31001709,11500609,30800109,41201509,10900909,30601019,31701609,31001809,31101419,30110719,42001519,31610619,42011809,0,31301619,41401219,31601319,0,11210009,10210209,0,10700019,12000919,40901909,10011319,10200219,31901219,31500609,30501419,0,40411209,21310119,21700419
26,47,672.440921654925,0,0,595914.53397825,595915.581037599,2,0,0,27,3,0,40901509,3160060,32110718,0,0,0,0,0,0,0,0,0,0,0,0,0,0,0,40901509,0,0,0,0,0,0,0,0,0,0,-3160060,0,0,0,0,11410609,0,0,0,20700109
26,48,658.529533888213,0,0,595917.380971462,595918.428006944,2,1,0,4,19,148723796,188624993,134121466,114216156,0,41910809,30800609,-4001140,41710719,0,30300519,0,0,0,21100719,31110819,0,40410809,31401819,11400009,32000309,21200509,0,0,0,41500619,41400119,30510019,0,20710709,0,0,0,42001809,0,40611319,0,0,11001119,20601909
26,49,564.129043486901,1,0,595920.216203302,595921.263239553,2,1,1,11,31,216429513,168454923,218058032,238081151,30912019,31000519,31300919,40701309,31501909,10011519,41001319,0,0,20900219,-3120010,20000519,10711609,0,11200009,20701519,40610319,41210719,41811409,21810509,10111119,40711919,0,31200619,20401119,41611119,10400219,11110709,21301519,31811319,31011719,40112019,40410919,11711009,10510919,40101019
26,50,609.517270466313,1,0,595922.93378985,595923.980827641,2,0,1,6,0,0,0,0,0,0,0,0,0,0,-21101001,0,0,0,0,0,0,0,0,0,0,0,0,0,0,0,0,0,0,0,0,0,0,0,0,0,0,0,0,0,0
26,51,696.738211205229,1,0,595925.79258601,595926.83958184,2,0,1,5,31,248918542,217360421,196646692,165323684,40911109,20201319,10310409,31811419,-3161050,20501709,40610509,40700409,40710609,10301509,21110109,40101819,20010819,31311819,20801309,30701109,31710909,11311019,20610409,30310909,40800009,21700809,10301319,0,41011309,20411709,11500219,21110319,40200819,21810809,40900009,0,20701019,0,20600709,0
26,52,604.205173673108,0,0,595928.604255069,595929.6512944,2,1,0,32,9,31012518,61522618,52033727,55122868,0,0,0,0,0,0,20412009,0,10600509,20810709,0,40711909,0,0,0,0,0,0,0,30011709,0,0,11710509,0,0,10311509,0,11910719,0,40202019,0,-3010130,0,0,0,0
26,53,584.41656420473,0,0,595939.062853128,595940.109885915,3,0,0,5,3,12291579,21000719,0,21900709,0,10210509,0,0,-2081070,0,0,0,0,21000719,0,0,0,0,0,0,0,0,0,0,0,0,0,0,0,0,0,0,21900709,0,0,0,0,0,0,0
26,54,490.309030399658,1,0,595941.898081888,595942.94511352,3,0,1,22,19,155844104,154127765,86072146,103034056,10410609,30411519,40800119,0,0,31600719,31610219,11010919,0,0,0,40800909,20211909,21201819,31211519,40701609,0,0,11210519,10000519,0,-3150070,30210219,0,0,0,31500819,0,0,40211519,20601509,0,10910309,31310719,0,0
26,55,488.717210711911,1,0,595944.474504247,595945.521535494,3,1,1,11,31,216429513,168454923,218058032,238081151,30912019,31000519,31300919,40701309,31501909,10011519,41001319,0,0,20900219,-3120010,20000519,10711609,0,11200009,20701519,40610319,41210719,41811409,21810509,10111119,40711919,0,31200619,20401119,41611119,10400219,11110709,21301519,31811319,31011719,40112019,40410919,11711009,10510919,40101019
26,56,454.895180300809,0,0,595947.12151101,595948.16856497,3,1,0,3,3,1041151,21901219,20611509,41501909,0,0,-1041151,0,0,0,0,0,0,0,0,0,21901219,0,0,0,0,0,20611509,0,0,0,0,0,0,0,0,0,0,0,0,0,0,0,0,41501909
26,57,605.212620459497,0,0,595949.744970006,595950.792003177,3,1,0,1,31,207268023,270841122,158025603,197536532,-1050121,40000719,10211319,31001709,11500609,30800109,41201509,10900909,30601019,31701609,31001809,31101419,30110719,42001519,31610619,42011809,0,31301619,41401219,31601319,0,11210009,10210209,0,10700019,12000919,40901909,10011319,10200219,31901219,31500609,30501419,0,40411209,21310119,21700419
26,58,603.346707415767,1,0,595952.49785068,595953.544890011,3,1,1,32,9,31012518,61522618,52033727,55122868,0,0,0,0,0,0,20412009,0,10600509,20810709,0,40711909,0,0,0,0,0,0,0,30011709,0,0,11710509,0,0,10311509,0,11910719,0,40202019,0,-3010130,0,0,0,0
26,59,511.287943692878,1,0,595955.238973446,595956.286001228,3,0,1,12,9,41110219,23972649,71614157,104633456,0,0,0,0,0,0,0,41110219,0,0,0,-2161040,21811609,0,0,0,0,0,31401119,0,30011419,0,0,10201619,0,0,0,0,31710209,0,0,0,21710309,0,30301619,20911319
26,60,494.346131570637,1,0,595957.88596712,595958.933004526,3,1,1,21,19,105236555,174647174,95246727,74423046,0,11312009,0,20611209,0,30701519,10900209,0,31711609,31101309,30110319,0,40211809,0,0,21601519,10110709,41511509,0,30511809,-2020171,0,11411819,0,30301809,0,21001119,11001319,0,20410609,0,31811109,11200009,0,0,0
26,61,570.646072737873,0,0,595960.497682836,595961.544716778,3,0,0,30,0,0,0,0,0,0,0,0,0,0,0,0,0,0,0,0,0,0,0,0,0,0,0,0,0,0,0,0,0,0,0,0,0,0,-31200401,0,0,0,0,0,0
26,62,558.233343646862,0,0,595963.180032231,595964.227013433,3,1,0,26,3,31322128,0,3200131,20311019,0,0,0,0,0,0,20511309,10810819,0,0,0,0,0,0,0,0,0,0,0,0,0,0,0,0,0,-3200131,0,20311019,0,0,0,0,0,0,0,0
26,63,637.748876120895,0,0,595965.850510924,595966.897540631,3,0,0,23,19,122522956,127516185,137415266,84413285,20200119,0,0,0,0,0,21110519,40110909,41101409,32000519,0,0,0,31601509,40401619,0,12011819,11500719,40711819,11600419,0,0,-2100191,41200909,11400219,30401709,0,31001019,0,0,11100719,20601519,0,10800009,0,10910019
26,64,493.595839710906,0,0,595968.591633305,595969.638656468,3,0,0,15,31,197560922,237878573,227159102,278439992,41011919,0,11211719,40610409,10901309,30700919,31501709,11612019,20010919,40210719,30411119,42010919,30910719,40201609,-3111150,10310619,0,40711719,30901819,30001109,21700509,41512019,40811809,0,20511009,11310309,30410519,40600209,21911909,31601809,31201109,0,30400919,40911219,41601409,40211409
26,65,685.806817724369,0,0,595971.250453796,595972.297426913,3,0,0,18,3,21301009,2071190,21500009,31001019,0,0,0,0,0,0,21301009,0,0,0,0,0,0,0,0,0,0,-2071190,0,0,0,0,0,0,0,0,21500009,31001019,0,0,0,0,0,0,0,0
26,66,607.787249144167,1,0,595974.050341464,595975.097365781,3,1,1,29,3,10510919,31201319,31510819,4180130,0,0,0,0,0,0,0,0,10510919,0,0,31201319,0,0,0,0,0,0,0,0,0,31510819,0,0,0,0,0,0,-4180130,0,0,0,0,0,0,0
26,67,615.623544785194,1,0,595976.885567144,595977.93260378,3,0,1,30,9,101922347,102931547,11512009,56721658,41310319,20100019,0,0,0,0,0,40512009,0,0,20110319,0,41710309,0,41110919,0,0,0,0,0,11512009,0,0,0,0,0,0,0,0,-3110120,11800419,0,0,0,41811119,0
26,68,684.879058157094,0,0,595979.697302416,595980.744313645,3,0,0,27,31,198029383,191126622,198036993,231546421,40811219,0,31400909,30900809,30301309,41901409,11601809,0,11111919,32000709,21901319,11710309,21900209,41001819,10610019,0,31800619,20201619,41100009,21811509,40510919,10711109,20310019,31301809,31110609,0,-1181010,21711019,11611609,30100709,21800419,31410509,41100719,30210209,31901109,11700119
26,69,598.731777747162,1,0,595982.544281385,595983.591365756,3,0,1,16,31,177647882,232620523,240075422,187036983,11011209,30410809,30611009,20001409,21101109,11601309,0,41210709,11700319,40411409,40811009,40711609,11511809,31710619,21302009,-3051031,31300119,11810909,0,41510509,21900509,40710319,31211919,10211019,42010119,31310619,21210409,41511709,31601319,31000719,0,30800409,20200809,11511709,20410309,0
26,70,525.997358607128,0,0,595985.40303828,595986.450076456,3,1,0,13,0,0,0,0,0,0,0,0,0,0,0,0,0,0,0,0,0,-31111001,0,0,0,0,0,0,0,0,0,0,0,0,0,0,0,0,0,0,0,0,0,0,0
26,71,741.850420017727,1,0,595988.038293294,595989.085306833,3,1,1,7,9,24251260,32412528,145522855,40601119,0,0,0,0,0,21211219,-3040041,0,0,0,0,0,0,0,12000809,20411719,0,0,41600709,11511009,0,0,0,0,40700509,30510409,21200219,40601119,0,0,0,0,0,0,0,0
26,72,740.444152266718,0,0,595990.87351859,595991.920543292,3,1,0,4,19,148723796,188624993,134121466,114216156,0,41910809,30800609,-4001140,41710719,0,30300519,0,0,0,21100719,31110819,0,40410809,31401819,11400009,32000309,21200509,0,0,0,41500619,41400119,30510019,0,20710709,0,0,0,42001809,0,40611319,0,0,11001119,20601909
26,73,709.361514658667,0,0,595993.767563067,595994.814601628,3,0,0,28,9,93023536,62033537,22011509,33932029,20500809,0,41210709,0,20701709,0,10610309,0,0,0,21011709,10710819,0,0,30311009,0,0,0,0,0,0,0,0,0,0,22011509,0,-3130010,30802019,0,0,0,0,0,0,0
26,74,468.494363711216,1,0,595996.614563593,595997.661619477,3,1,1,17,19,74135036,200407334,126126065,112513737,0,0,10310509,11000509,0,0,0,11512009,41312009,21611919,21411119,30500919,32001809,0,32011009,30800209,-1170131,30900219,0,0,11400119,0,30801919,0,31411809,20501909,32010309,0,0,30901309,0,40910719,0,0,0,40701709
26,75,664.83983816579,0,0,595999.179328135,596000.226253517,3,0,0,35,3,10800019,11811109,30600319,3051040,0,0,10800019,0,0,0,0,0,0,0,0,0,0,0,0,0,11811109,0,0,0,0,30600319,0,0,0,0,0,0,0,0,0,0,0,0,-3051040,0
26,76,731.353264069185,1,0,596001.955639548,596003.002651931,3,1,1,33,31,178216592,125138664,308659751,260698733,10901909,11301109,0,41900709,30500109,10100819,21801519,20100309,31610109,0,20911619,11801109,0,0,40401909,11211909,20501309,20310809,31100419,41710019,42011419,20501519,40501419,32011419,40110509,30311919,30401109,31101519,21600619,40911909,20111519,31910219,-4050001,40410519,40401109,30201319
26,77,598.135085892864,1,0,596004.814391053,596005.861424609,3,0,1,31,19,114626985,162438504,94223266,96065256,10202009,30711819,0,0,0,21600819,0,11001019,41111319,20601619,40900309,20201519,0,0,10011819,40511519,30211719,0,20011119,0,0,0,20801719,11500009,0,41910419,0,0,20111709,20811019,-4140100,0,0,20001409,0,31001019
26,78,655.152643215843,1,0,596007.496711191,596008.54372011,3,1,1,24,9,30400319,21001909,84463087,114224366,0,30400319,0,0,0,0,0,0,0,0,0,0,0,0,0,0,21001909,0,41101309,0,0,0,10200709,-2150060,0,0,31011009,41711619,0,10901219,40601209,0,21010319,0,0,0
26,79,508.329122443683,1,0,596026.731586016,596027.778617648,4,1,1,21,19,105236555,174647174,95246727,74423046,0,11312009,0,20611209,0,30701519,10900209,0,31711609,31101309,30110319,0,40211809,0,0,21601519,10110709,41511509,0,30511809,-2020171,0,11411819,0,30301809,0,21001119,11001319,0,20410609,0,31811109,11200009,0,0,0
26,80,718.893569661304,1,0,596029.460958574,596030.507982121,4,0,1,31,19,74715375,146836833,113023966,104881697,11400619,11701609,21201309,0,0,20300719,0,10111119,0,0,10501519,11400119,11210819,41211619,40301819,21010719,0,11200219,40000819,0,0,0,12000219,0,20611809,0,40411119,0,30300709,30700209,-2170160,0,41710619,0,0,0
26,81,515.662271995097,1,0,596032.402096277,596033.44910635,4,0,1,15,31,249751531,146475104,216636632,201137212,21600509,41300519,11811519,40501709,40011909,11802009,10210419,41710919,30802019,40101109,40110509,10701709,21410719,11600019,-1140120,0,21410919,0,40910919,41601009,31601619,0,10310819,10800119,21201609,30000519,30210019,41811419,10311419,31001819,11400109,21700209,0,42000009,20901309,22010919
26,82,589.098477503285,1,0,596035.025535254,596036.072566501,4,0,1,1,0,0,0,0,0,-21511091,0,0,0,0,0,0,0,0,0,0,0,0,0,0,0,0,0,0,0,0,0,0,0,0,0,0,0,0,0,0,0,0,0,0,0
26,83,613.698732573539,0,0,596037.801999497,596038.849019195,4,0,0,23,3,20010319,0,1050090,52600828,0,20010319,0,0,0,0,0,0,0,0,0,0,0,0,0,0,0,0,0,0,0,0,-1050090,0,0,0,0,0,0,11300519,0,41300309,0,0,0,0
26,84,689.827750436962,0,0,596040.543075298,596041.590108469,4,1,0,24,9,30400319,21001909,84463087,114224366,0,30400319,0,0,0,0,0,0,0,0,0,0,0,0,0,0,21001909,0,41101309,0,0,0,10200709,-2150060,0,0,31011009,41711619,0,10901219,40601209,0,21010319,0,0,0
26,85,533.112499164417,0,0,596043.343008006,596044.401622893,4,0,0,22,9,93024766,22713338,46282328,11201319,0,0,10500919,41610609,30101719,0,10811519,0,0,11711919,0,0,11001419,0,0,0,0,0,21911319,0,0,-3060190,0,21310819,0,0,0,0,0,0,0,11201319,0,0,0,0
26,86,527.54452265799,0,0,596045.990047491,596047.037071808,4,1,0,3,3,1041151,21901219,20611509,41501909,0,0,-1041151,0,0,0,0,0,0,0,0,0,21901219,0,0,0,0,0,20611509,0,0,0,0,0,0,0,0,0,0,0,0,0,0,0,0,41501909
26,87,528.53426116053,1,0,596048.730944907,596049.778184565,4,1,1,13,0,0,0,0,0,0,0,0,0,0,0,0,0,0,0,0,0,-31111001,0,0,0,0,0,0,0,0,0,0,0,0,0,0,0,0,0,0,0,0,0,0,0
26,88,623.747022240423,0,0,596051.436991197,596052.484018594,4,1,0,29,3,10510919,31201319,31510819,4180130,0,0,0,0,0,0,0,0,10510919,0,0,31201319,0,0,0,0,0,0,0,0,0,31510819,0,0,0,0,0,0,-4180130,0,0,0,0,0,0,0
26,89,577.472611679696,1,0,596054.225169078,596055.272199554,4,0,1,30,3,40710309,10501119,0,12141430,0,0,0,0,0,40710309,0,0,0,0,0,0,0,0,0,10501119,0,0,0,0,0,0,0,0,0,0,0,0,0,-1041011,0,0,0,0,0,11100419
26,90,526.135945110582,1,0,596056.907464193,596057.954491975,4,0,1,18,3,61512838,4110150,42010309,0,40411419,0,0,0,0,0,0,21101419,0,0,0,0,0,0,0,0,0,-4110150,0,0,0,0,0,0,0,0,42010309,0,0,0,0,0,0,0,0,0
26,91,588.251175126061,1,0,596059.507408142,596060.554441699,4,0,1,5,9,15352320,11510419,122745456,73413957,0,0,0,0,-4151201,0,11201119,0,0,0,0,0,11510419,0,0,0,0,0,20610619,30611719,31411709,0,0,0,40111409,0,0,31301119,20911019,0,0,0,0,21201819,0,0
26,92,591.634994954802,0,0,596062.22499238,596063.272039025,4,1,0,32,9,31012518,61522618,52033727,55122868,0,0,0,0,0,0,20412009,0,10600509,20810709,0,40711909,0,0,0,0,0,0,0,30011709,0,0,11710509,0,0,10311509,0,11910719,0,40202019,0,-3010130,0,0,0,0
26,93,717.514249263331,1,0,596065.024951266,596066.071982128,4,1,1,1,31,207268023,270841122,158025603,197536532,-1050121,40000719,10211319,31001709,11500609,30800109,41201509,10900909,30601019,31701609,31001809,31101419,30110719,42001519,31610619,42011809,0,31301619,41401219,31601319,0,11210009,10210209,0,10700019,12000919,40901909,10011319,10200219,31901219,31500609,30501419,0,40411209,21310119,21700419
26,94,637.864749878645,0,0,596067.930774439,596068.97780684,4,1,0,17,19,74135036,200407334,126126065,112513737,0,0,10310509,11000509,0,0,0,11512009,41312009,21611919,21411119,30500919,32001809,0,32011009,30800209,-1170131,30900219,0,0,11400119,0,30801919,0,31411809,20501909,32010309,0,0,30901309,0,40910719,0,0,0,40701709
26,95,603.55920670554,1,0,596070.766012438,596071.81303868,4,1,1,26,3,31322128,0,3200131,20311019,0,0,0,0,0,0,20511309,10810819,0,0,0,0,0,0,0,0,0,0,0,0,0,0,0,0,0,-3200131,0,20311019,0,0,0,0,0,0,0,0
26,96,757.493368815631,0,0,596073.460104727,596074.507105177,4,0,0,12,31,169448203,266807593,281566641,195638522,0,21500619,0,21610919,41701519,11700919,11811109,21011309,40111809,0,40211119,-1060070,41710809,41901619,40600919,30211519,40600819,30510719,20401419,41811219,31910209,11000509,41701419,40610409,42010619,40510619,11610219,30110509,30000819,41501019,11801819,11110019,20002009,21001709,0,30110619
26,97,691.534673911519,0,0,596076.460014261,596077.507045123,4,0,0,16,9,31323228,32941320,61702737,73414337,0,21111209,0,0,0,0,0,10212019,0,0,0,30910309,0,0,0,-2031011,0,0,0,20600809,0,31100119,0,0,0,10001809,0,0,31611419,21801109,20001809,0,0,0,0,0
26,98,714.126194827259,0,0,596079.342334707,596080.389432552,4,1,0,4,19,148723796,188624993,134121466,114216156,0,41910809,30800609,-4001140,41710719,0,30300519,0,0,0,21100719,31110819,0,40410809,31401819,11400009,32000309,21200509,0,0,0,41500619,41400119,30510019,0,20710709,0,0,0,42001809,0,40611319,0,0,11001119,20601909
26,99,536.6277116118,1,0,596082.130487565,596083.201058495,4,1,1,11,31,216429513,168454923,218058032,238081151,30912019,31000519,31300919,40701309,31501909,10011519,41001319,0,0,20900219,-3120010,20000519,10711609,0,11200009,20701519,40610319,41210719,41811409,21810509,10111119,40711919,0,31200619,20401119,41611119,10400219,11110709,21301519,31811319,31011719,40112019,40410919,11711009,10510919,40101019
26,100,576.998722972348,0,0,596084.871618415,596085.918650816,4,1,0,33,31,178216592,125138664,308659751,260698733,10901909,11301109,0,41900709,30500109,10100819,21801519,20100309,31610109,0,20911619,11801109,0,0,40401909,11211909,20501309,20310809,31100419,41710019,42011419,20501519,40501419,32011419,40110509,30311919,30401109,31101519,21600619,40911909,20111519,31910219,-4050001,40410519,40401109,30201319
26,101,574.43564303685,1,0,596087.695113905,596088.742127443,4,0,1,28,19,197926994,72802437,164266893,85043317,30401219,40911019,0,0,31600309,41711919,41602019,0,11700509,41100309,0,0,0,0,0,0,21401719,10300409,21310609,10301409,30010119,11510919,30211809,30312009,30610019,0,0,-2131080,10900409,0,30511719,41500109,0,0,0,0
26,102,531.178953126073,1,0,596090.530131261,596091.577366212,4,0,1,27,19,155755265,85614356,105206346,126024745,0,20811409,0,31510509,31310509,0,0,41911419,30211419,0,21610509,11100519,40901819,0,12001509,0,0,0,20910809,40410519,0,10102019,10701609,0,22000209,0,-1081181,20310209,21811809,41700309,11201109,0,0,0,31001309,0
26,103,525.983668863773,0,0,596093.259695974,596094.353592765,4,1,0,7,9,24251260,32412528,145522855,40601119,0,0,0,0,0,21211219,-3040041,0,0,0,0,0,0,0,12000809,20411719,0,0,41600709,11511009,0,0,0,0,40700509,30510409,21200219,40601119,0,0,0,0,0,0,0,0
26,104,641.263583209366,0,0,596096.036110942,596097.083144114,4,0,0,35,31,236334693,185448721,208125612,205217764,0,0,40010009,40910609,31101309,40400719,21501409,41200419,21210219,20001719,30600709,40100619,11111209,11011109,20511309,11100209,20100419,20911419,0,11800919,31200409,30700819,21101019,10310009,41400109,31601719,30010609,40811009,0,21111009,20000619,30400509,10710019,40811919,-1161061,40211619
26,105,637.979468679987,1,0,596118.353339243,596119.400365485,5,0,1,27,31,154056183,196947292,100456574,287976831,30910819,10911509,10500109,20310309,0,0,41010119,10001709,30411609,10801809,31311419,0,40000009,41211709,11611919,10110409,10000009,41900009,10310519,22010119,0,12000419,10501319,12001219,11310019,21311919,-1011041,40110419,41701919,11311019,30111809,41410119,40310019,41710409,20210309,21100809
26,106,504.927209229209,1,0,596121.212099603,596122.271596703,5,1,1,11,31,216429513,168454923,218058032,238081151,30912019,31000519,31300919,40701309,31501909,10011519,41001319,0,0,20900219,-3120010,20000519,10711609,0,11200009,20701519,40610319,41210719,41811409,21810509,10111119,40711919,0,31200619,20401119,41611119,10400219,11110709,21301519,31811319,31011719,40112019,40410919,11711009,10510919,40101019
26,107,585.214591468684,1,0,596123.906235008,596124.95321313,5,1,1,33,31,178216592,125138664,308659751,260698733,10901909,11301109,0,41900709,30500109,10100819,21801519,20100309,31610109,0,20911619,11801109,0,0,40401909,11211909,20501309,20310809,31100419,41710019,42011419,20501519,40501419,32011419,40110509,30311919,30401109,31101519,21600619,40911909,20111519,31910219,-4050001,40410519,40401109,30201319
26,108,634.192593162879,0,0,596126.764942627,596127.811995047,5,1,0,29,3,10510919,31201319,31510819,4180130,0,0,0,0,0,0,0,0,10510919,0,0,31201319,0,0,0,0,0,0,0,0,0,31510819,0,0,0,0,0,0,-4180130,0,0,0,0,0,0,0
26,109,594.070267514326,1,0,596129.694109509,596130.74134135,5,1,1,7,9,24251260,32412528,145522855,40601119,0,0,0,0,0,21211219,-3040041,0,0,0,0,0,0,0,12000809,20411719,0,0,41600709,11511009,0,0,0,0,40700509,30510409,21200219,40601119,0,0,0,0,0,0,0,0
26,110,497.488964931108,0,0,596132.529550412,596133.576588973,5,0,0,23,9,72722447,30400919,74525237,52002128,0,0,11910119,0,0,40111809,0,0,20700519,0,30400919,0,0,0,0,0,0,0,20102009,31410309,0,0,-3011000,0,20001919,0,0,0,10200519,0,0,41801609,0,0,0,0
26,111,523.478934308514,1,0,596135.17655833,596136.223588037,5,1,1,3,3,1041151,21901219,20611509,41501909,0,0,-1041151,0,0,0,0,0,0,0,0,0,21901219,0,0,0,0,0,20611509,0,0,0,0,0,0,0,0,0,0,0,0,0,0,0,0,41501909
26,112,517.474675085396,0,0,596137.764731668,596138.811773308,5,0,0,15,19,71402028,129357804,156436084,166216155,0,31100009,0,0,0,0,0,0,40302019,30800319,0,11112019,11501609,0,-4131120,21000419,30601809,20210509,11111409,31500919,20910409,0,21111019,0,0,30500419,41301909,31801709,40701219,41901109,30201909,21610209,0,0,0,0
26,113,424.838082748465,1,0,596140.482348242,596141.529430689,5,0,1,16,19,217125822,64765827,104023556,72522957,20100319,22000919,20410219,0,20701719,32001609,40301009,40300019,21310009,10101709,0,0,0,10010309,0,-3051191,21501509,20101109,0,12010019,0,0,0,41200209,0,10302009,40511319,0,0,0,0,10410119,0,31811819,30301019,0
26,114,473.885762621649,1,0,596143.082286032,596144.129380413,5,1,1,21,19,105236555,174647174,95246727,74423046,0,11312009,0,20611209,0,30701519,10900209,0,31711609,31101309,30110319,0,40211809,0,0,21601519,10110709,41511509,0,30511809,-2020171,0,11411819,0,30301809,0,21001119,11001319,0,20410609,0,31811109,11200009,0,0,0
26,115,641.919174231589,0,0,596145.635257249,596146.682274637,5,1,0,4,19,148723796,188624993,134121466,114216156,0,41910809,30800609,-4001140,41710719,0,30300519,0,0,0,21100719,31110819,0,40410809,31401819,11400009,32000309,21200509,0,0,0,41500619,41400119,30510019,0,20710709,0,0,0,42001809,0,40611319,0,0,11001119,20601909
26,116,734.652392216958,0,0,596148.364555124,596149.41159253,5,0,0,35,9,41900618,10301219,41120828,77793976,20700309,0,0,0,0,21200309,0,0,0,0,0,0,0,0,0,10301219,0,0,30310009,10810819,0,0,0,0,0,0,0,0,22001409,30411519,10400819,0,0,0,-3080120,11900109
26,117,547.377787763253,1,0,596151.258616924,596152.305653176,5,0,1,30,31,188135632,218957302,150509211,160675874,41200119,0,22000319,10211619,30210619,11100219,10800509,21111409,41500819,31511619,0,21610319,21200509,10310209,20401309,31501009,40610919,41811409,11400209,11501609,11300309,31300309,21201919,11101819,10500409,10400909,31801719,11510919,31401019,-1050180,12000509,0,0,21601809,41611419,41500019
26,118,594.618069007993,0,0,596153.964452108,596155.011493364,5,1,0,24,9,30400319,21001909,84463087,114224366,0,30400319,0,0,0,0,0,0,0,0,0,0,0,0,0,0,21001909,0,41101309,0,0,0,10200709,-2150060,0,0,31011009,41711619,0,10901219,40601209,0,21010319,0,0,0
26,119,590.962080750614,0,0,596156.63499663,596157.682026337,5,0,0,12,31,217838112,177278743,149646321,167559783,41601609,0,40201919,41300519,21000309,11211609,20300509,10511319,31710319,40510609,20501319,-1151030,41400719,10302019,20801419,11701309,0,30910319,11100019,21300519,21810709,10001009,20610319,11710909,11701909,10110209,31300719,20111409,41012009,0,11501909,11010419,30101509,11911409,41911119,0
26,120,650.11540974956,0,0,596159.329058892,596160.376095913,5,0,0,31,3,0,40801119,41311119,43481710,0,0,0,0,0,0,0,0,0,0,0,0,0,0,0,0,0,40801119,0,0,0,0,0,41311119,0,0,0,0,0,0,-2081201,0,0,0,41400509,0
26,121,497.861223528162,0,0,596162.129012774,596163.17604402,5,1,0,32,9,31012518,61522618,52033727,55122868,0,0,0,0,0,0,20412009,0,10600509,20810709,0,40711909,0,0,0,0,0,0,0,30011709,0,0,11710509,0,0,10311509,0,11910719,0,40202019,0,-3010130,0,0,0,0
26,122,481.550364871509,1,0,596164.79955999,596165.846587002,5,0,1,26,0,0,0,0,0,0,0,0,0,0,0,0,0,0,0,0,0,0,0,0,0,0,0,0,0,0,0,0,0,0,-40901101,0,0,0,0,0,0,0,0,0,0
26,123,705.011439044029,1,0,596167.423036694,596168.470066015,5,0,1,5,19,74233347,144133785,155317674,154934765,0,40510219,0,10010619,-3201000,0,20511509,0,0,30210219,11400319,20611319,0,0,40101919,41810009,0,0,31601909,31600419,0,30600609,10411809,0,30001209,0,21101719,0,0,30710319,31000519,11410309,40801609,41012009,0,0
26,124,533.755121869035,1,0,596170.364145909,596171.41123798,5,1,1,13,0,0,0,0,0,0,0,0,0,0,0,0,0,0,0,0,0,-31111001,0,0,0,0,0,0,0,0,0,0,0,0,0,0,0,0,0,0,0,0,0,0,0
26,125,733.998726122081,0,0,596173.128817598,596174.175849999,5,0,0,28,3,52912738,0,10700309,3010080,0,0,0,11310719,0,0,41602019,0,0,0,0,0,0,0,0,0,0,0,0,0,10700309,0,0,0,0,0,0,-3010080,0,0,0,0,0,0,0,0
26,126,550.104861729778,0,0,596176.069939902,596177.116969223,5,1,0,26,3,31322128,0,3200131,20311019,0,0,0,0,0,0,20511309,10810819,0,0,0,0,0,0,0,0,0,0,0,0,0,0,0,0,0,-3200131,0,20311019,0,0,0,0,0,0,0,0
26,127,535.86433106102,1,0,596178.705192991,596179.752213459,5,0,1,18,3,0,64590948,0,10110319,0,0,0,0,0,0,0,0,0,0,0,30400709,0,0,0,32010109,0,-2180130,0,0,0,0,0,0,0,0,0,0,0,0,0,0,0,10110319,0,0
26,128,876.56918191351,0,0,596181.352207069,596182.399235236,5,1,0,17,19,74135036,200407334,126126065,112513737,0,0,10310509,11000509,0,0,0,11512009,41312009,21611919,21411119,30500919,32001809,0,32011009,30800209,-1170131,30900219,0,0,11400119,0,30801919,0,31411809,20501909,32010309,0,0,30901309,0,40910719,0,0,0,40701709
26,129,677.890834864229,1,0,596184.316848653,596185.363885289,5,1,1,1,31,207268023,270841122,158025603,197536532,-1050121,40000719,10211319,31001709,11500609,30800109,41201509,10900909,30601019,31701609,31001809,31101419,30110719,42001519,31610619,42011809,0,31301619,41401219,31601319,0,11210009,10210209,0,10700019,12000919,40901909,10011319,10200219,31901219,31500609,30501419,0,40411209,21310119,21700419
26,130,490.262064966373,0,0,596187.081511873,596188.128537345,5,0,0,22,9,71522937,61225747,43542139,30401319,0,10511519,0,40101309,0,0,0,0,20910109,0,30411919,0,0,10302009,0,0,0,20511819,30510109,0,12011919,-1020111,0,0,0,0,0,0,0,0,0,30401319,0,0,0,0
26,131,1014.91775456816,1,0,596212.998704141,596214.045749247,6,0,1,30,31,216547692,102845104,266538121,182566153,31510509,40700009,20701119,21510109,30401209,20212009,0,31401119,20111609,10800109,31911219,0,20110419,0,10001519,10010019,20011819,0,30901509,10111209,40300609,40600109,40700319,41501519,30010309,11000519,21412019,10201209,10810009,-4000041,41310019,31110209,31000509,21911019,10411219,21811919
26,132,876.004441990517,1,0,596216.104591526,596217.151590051,6,1,1,1,31,207268023,270841122,158025603,197536532,-1050121,40000719,10211319,31001709,11500609,30800109,41201509,10900909,30601019,31701609,31001809,31101419,30110719,42001519,31610619,42011809,0,31301619,41401219,31601319,0,11210009,10210209,0,10700019,12000919,40901909,10011319,10200219,31901219,31500609,30501419,0,40411209,21310119,21700419
26,133,526.610218803398,0,0,596219.222130184,596220.269167975,6,1,0,3,3,1041151,21901219,20611509,41501909,0,0,-1041151,0,0,0,0,0,0,0,0,0,21901219,0,0,0,0,0,20611509,0,0,0,0,0,0,0,0,0,0,0,0,0,0,0,0,41501909
26,134,511.406512116082,0,0,596221.810320845,596222.857364796,6,0,0,22,19,93123137,178348612,176124346,103932937,0,0,0,30901009,0,0,20711609,0,41510519,11401409,0,21511319,20600009,10201119,30711209,41811819,10811509,31300219,30210519,0,30610119,-1180171,41911919,41110309,31101309,0,0,0,30411019,0,41610909,0,0,31911009,0,0
26,135,499.538889969699,1,0,596224.422046185,596225.469080127,6,0,1,27,19,145625755,94114856,139826105,94533946,41411819,0,30400909,31300609,0,10600909,0,31911509,0,42001509,0,0,21000519,20211209,0,0,0,10901619,41010809,0,32011809,10810819,0,11400519,20011909,21500119,-3080121,0,11611009,0,0,10401219,31811509,0,0,40710209
26,136,561.165217659436,0,0,596227.151409119,596228.198457689,6,1,0,32,9,31012518,61522618,52033727,55122868,0,0,0,0,0,0,20412009,0,10600509,20810709,0,40711909,0,0,0,0,0,0,0,30011709,0,0,11710509,0,0,10311509,0,11910719,0,40202019,0,-3010130,0,0,0,0
26,137,466.358592035249,1,0,596229.95136685,596230.998396941,6,1,1,21,19,105236555,174647174,95246727,74423046,0,11312009,0,20611209,0,30701519,10900209,0,31711609,31101309,30110319,0,40211809,0,0,21601519,10110709,41511509,0,30511809,-2020171,0,11411819,0,30301809,0,21001119,11001319,0,20410609,0,31811109,11200009,0,0,0
26,138,804.766756948084,1,0,596232.480744104,596233.527774965,6,0,1,12,31,259758231,140039714,206635003,227827832,40110319,30111609,31200709,31910319,40511419,21800819,12010809,40401219,11701009,12001619,10210309,-2111131,41201809,30201009,22011719,0,11101409,11200709,41300209,11000619,0,20100109,0,21011209,41400619,40011819,31810419,10001519,30500819,41800919,41500609,0,20500019,20302019,21611319,41610609
26,139,609.662016388029,0,0,596235.527741474,596236.575021021,6,1,0,29,3,10510919,31201319,31510819,4180130,0,0,0,0,0,0,0,0,10510919,0,0,31201319,0,0,0,0,0,0,0,0,0,31510819,0,0,0,0,0,0,-4180130,0,0,0,0,0,0,0
26,140,567.602944560349,1,0,596238.362986017,596239.410024578,6,0,1,31,9,83421946,53322028,31000509,52950728,10711409,10400019,0,0,21100109,0,0,41210409,0,0,0,0,0,0,41711619,0,0,11610409,0,0,0,0,0,0,0,0,31000509,41110309,10810409,0,-1030010,0,0,0,0,0
26,141,638.136533321813,0,0,596241.092359729,596242.139392901,6,1,0,24,9,30400319,21001909,84463087,114224366,0,30400319,0,0,0,0,0,0,0,0,0,0,0,0,0,0,21001909,0,41101309,0,0,0,10200709,-2150060,0,0,31011009,41711619,0,10901219,40601209,0,21010319,0,0,0
26,142,528.929232619703,0,0,596243.821731902,596244.868760839,6,0,0,23,3,20511119,0,3151090,42301638,0,20511119,0,0,0,0,0,0,0,0,0,0,0,0,0,0,0,0,0,0,0,0,-3151090,0,0,0,0,0,0,20601419,21700219,0,0,0,0,0
26,143,592.925774049945,1,0,596246.574404412,596247.621663071,6,0,1,28,19,124931875,146238694,71912447,138255746,0,41510109,0,11910019,30610019,0,10700409,0,30201319,20601619,10011519,41701309,31611619,0,21211509,21101119,0,0,0,0,0,0,0,30400819,11011019,0,30500609,-2030071,31611709,11701519,31301019,0,0,20510819,0,41100609
26,144,531.973515637219,1,0,596249.374575311,596250.421649289,6,0,1,33,0,0,0,0,0,0,0,0,0,0,0,0,0,0,0,0,0,0,0,0,0,0,0,0,0,0,0,0,0,0,0,0,0,0,0,0,0,-40101101,0,0,0
26,145,568.513765698299,0,0,596252.10393786,596253.150977576,6,1,0,26,3,31322128,0,3200131,20311019,0,0,0,0,0,0,20511309,10810819,0,0,0,0,0,0,0,0,0,0,0,0,0,0,0,0,0,-3200131,0,20311019,0,0,0,0,0,0,0,0
26,146,1049.78919250425,0,0,596254.868602234,596255.91564041,6,0,0,35,3,42222328,0,30601709,2121121,11511409,0,0,0,0,0,0,0,30710919,0,0,0,0,0,0,0,0,0,0,0,0,0,0,0,0,0,30601709,0,0,0,0,0,0,0,-2121121,0
26,147,763.496088213287,0,0,596258.10383623,596259.150882105,6,0,0,5,3,2161200,20400409,62911518,0,0,0,0,0,-2161200,0,0,0,0,0,0,0,0,20400409,0,0,0,0,0,0,0,0,21811109,0,0,41100409,0,0,0,0,0,0,0,0,0,0
26,148,597.594598657452,1,0,596260.962622767,596262.009697129,6,1,1,7,9,24251260,32412528,145522855,40601119,0,0,0,0,0,21211219,-3040041,0,0,0,0,0,0,0,12000809,20411719,0,0,41600709,11511009,0,0,0,0,40700509,30510409,21200219,40601119,0,0,0,0,0,0,0,0
26,149,695.004725363106,0,0,596263.774340715,596264.821368112,6,1,0,33,31,178216592,125138664,308659751,260698733,10901909,11301109,0,41900709,30500109,10100819,21801519,20100309,31610109,0,20911619,11801109,0,0,40401909,11211909,20501309,20310809,31100419,41710019,42011419,20501519,40501419,32011419,40110509,30311919,30401109,31101519,21600619,40911909,20111519,31910219,-4050001,40410519,40401109,30201319
26,150,505.952749284916,1,0,596266.6684106,596267.715429913,6,1,1,13,0,0,0,0,0,0,0,0,0,0,0,0,0,0,0,0,0,-31111001,0,0,0,0,0,0,0,0,0,0,0,0,0,0,0,0,0,0,0,0,0,0,0
26,151,497.895100386813,0,0,596269.268379187,596270.315398885,6,1,0,17,19,74135036,200407334,126126065,112513737,0,0,10310509,11000509,0,0,0,11512009,41312009,21611919,21411119,30500919,32001809,0,32011009,30800209,-1170131,30900219,0,0,11400119,0,30801919,0,31411809,20501909,32010309,0,0,30901309,0,40910719,0,0,0,40701709
26,152,561.385801061988,1,0,596271.93890831,596272.985949181,6,0,1,18,9,62414737,15552910,61922418,81921447,0,0,10201209,20911609,0,0,31301919,0,0,0,0,0,0,0,0,0,11401809,-4151101,0,0,0,31511409,0,0,0,30411009,0,0,0,0,0,40000609,31410719,10510119,0,0
26,153,468.251067330129,1,0,596274.680040315,596275.72708696,6,0,1,15,9,60202138,33193709,53611557,51613938,0,0,30001719,0,0,0,30200419,0,0,20000919,0,0,0,12011619,-1181171,0,0,0,0,0,0,20700319,0,0,11901119,21010119,0,0,40212019,0,0,0,0,0,11401919,0
26,154,667.187724029645,0,0,596277.268235211,596278.315271847,6,0,0,16,31,208544422,168868934,229238642,259755821,30400309,20110219,31610119,21700309,0,31210209,30500719,11202019,31810519,20410109,0,31501609,20712009,30811919,40601819,-4031150,20800319,0,40701509,31900019,0,21302019,31110619,21910819,31000919,30611419,20701319,22011419,41611919,41510019,20610609,30000709,11310509,41000309,31100009,20600319
26,155,635.302054928616,1,0,596280.021138213,596281.06816715,6,1,1,4,19,148723796,188624993,134121466,114216156,0,41910809,30800609,-4001140,41710719,0,30300519,0,0,0,21100719,31110819,0,40410809,31401819,11400009,32000309,21200509,0,0,0,41500619,41400119,30510019,0,20710709,0,0,0,42001809,0,40611319,0,0,11001119,20601909
26,156,632.54764850717,0,0,596282.891669954,596283.938716599,6,1,0,11,31,216429513,168454923,218058032,238081151,30912019,31000519,31300919,40701309,31501909,10011519,41001319,0,0,20900219,-3120010,20000519,10711609,0,11200009,20701519,40610319,41210719,41811409,21810509,10111119,40711919,0,31200619,20401119,41611119,10400219,11110709,21301519,31811319,31011719,40112019,40410919,11711009,10510919,40101019
26,157,653.565443120897,0,0,596306.620715678,596307.667749234,7,1,0,21,19,105236555,174647174,95246727,74423046,0,11312009,0,20611209,0,30701519,10900209,0,31711609,31101309,30110319,0,40211809,0,0,21601519,10110709,41511509,0,30511809,-2020171,0,11411819,0,30301809,0,21001119,11001319,0,20410609,0,31811109,11200009,0,0,0
26,158,585.528720752336,1,0,596309.467724674,596310.514772089,7,1,1,24,9,30400319,21001909,84463087,114224366,0,30400319,0,0,0,0,0,0,0,0,0,0,0,0,0,0,21001909,0,41101309,0,0,0,10200709,-2150060,0,0,31011009,41711619,0,10901219,40601209,0,21010319,0,0,0
26,159,587.683355552144,1,0,596312.138279589,596313.185316226,7,1,1,13,0,0,0,0,0,0,0,0,0,0,0,0,0,0,0,0,0,-31111001,0,0,0,0,0,0,0,0,0,0,0,0,0,0,0,0,0,0,0,0,0,0,0
26,160,426.901096478105,1,0,596314.938247715,596315.985277036,7,0,1,9,0,0,0,0,0,0,0,0,0,0,0,0,0,-30201501,0,0,0,0,0,0,0,0,0,0,0,0,0,0,0,0,0,0,0,0,0,0,0,0,0,0,0
26,161,632.685080170631,0,0,596317.585242544,596318.632292654,7,1,0,4,19,148723796,188624993,134121466,114216156,0,41910809,30800609,-4001140,41710719,0,30300519,0,0,0,21100719,31110819,0,40410809,31401819,11400009,32000309,21200509,0,0,0,41500619,41400119,30510019,0,20710709,0,0,0,42001809,0,40611319,0,0,11001119,20601909
26,162,714.853003970347,1,0,596320.338201365,596321.385217983,7,1,1,1,31,207268023,270841122,158025603,197536532,-1050121,40000719,10211319,31001709,11500609,30800109,41201509,10900909,30601019,31701609,31001809,31101419,30110719,42001519,31610619,42011809,0,31301619,41401219,31601319,0,11210009,10210209,0,10700019,12000919,40901909,10011319,10200219,31901219,31500609,30501419,0,40411209,21310119,21700419
26,163,675.5641218042,0,0,596323.126348833,596324.173376231,7,0,0,18,19,95624875,97496626,142814266,197746084,0,20810319,0,31101109,11911709,10700919,21100819,0,0,41611819,0,11601809,20910809,0,0,0,21302019,-2070170,20801519,40701909,0,0,0,0,40400619,0,40910219,0,20310919,31510219,0,41701509,31311209,0,31111619,41800609
26,164,580.715535324998,1,0,596325.973349745,596327.02039331,7,1,1,7,9,24251260,32412528,145522855,40601119,0,0,0,0,0,21211219,-3040041,0,0,0,0,0,0,0,12000809,20411719,0,0,41600709,11511009,0,0,0,0,40700509,30510409,21200219,40601119,0,0,0,0,0,0,0,0
26,165,818.843678571284,0,0,596328.679204562,596329.726241583,7,0,0,16,9,84124166,24861869,51923128,23711918,11411809,31000019,0,0,0,31610719,0,10101619,0,0,0,0,0,0,21810809,-3051060,0,0,0,41111409,0,0,0,0,0,10811719,0,11911609,0,0,11800309,0,0,0,0,0
26,166,580.986933782697,1,0,596331.737979088,596332.78500687,7,0,1,35,9,123822576,20400719,61521018,73923178,0,0,30000819,31501419,31910319,30410019,0,0,0,0,0,0,0,0,0,0,20400719,0,20110409,0,0,0,41410609,0,0,0,0,0,31710209,0,41111809,0,0,0,-1101160,0
26,167,522.588901221752,0,0,596334.420287677,596335.467321618,7,1,0,26,3,31322128,0,3200131,20311019,0,0,0,0,0,0,20511309,10810819,0,0,0,0,0,0,0,0,0,0,0,0,0,0,0,0,0,-3200131,0,20311019,0,0,0,0,0,0,0,0
26,168,662.250195862725,0,0,596337.090831044,596338.137868835,7,0,0,22,3,11701909,21710319,2040051,21900909,0,0,0,11701909,0,0,0,0,0,0,0,0,0,21710319,0,0,0,0,0,0,0,-2040051,0,0,0,0,0,0,0,0,0,0,0,0,0,21900909
26,169,598.380306968465,0,0,596339.949619505,596340.996650752,7,0,0,31,3,0,40701818,11712019,1191181,0,0,0,0,0,0,0,0,0,0,0,0,0,0,30400709,10301109,0,0,0,0,11712019,0,0,0,0,0,0,0,0,0,-1191181,0,0,0,0,0
26,170,516.179276513867,1,0,596342.690749201,596343.737785067,7,1,1,3,3,1041151,21901219,20611509,41501909,0,0,-1041151,0,0,0,0,0,0,0,0,0,21901219,0,0,0,0,0,20611509,0,0,0,0,0,0,0,0,0,0,0,0,0,0,0,0,41501909
26,171,531.025738106109,1,0,596345.431883515,596346.478917842,7,1,1,11,31,216429513,168454923,218058032,238081151,30912019,31000519,31300919,40701309,31501909,10011519,41001319,0,0,20900219,-3120010,20000519,10711609,0,11200009,20701519,40610319,41210719,41811409,21810509,10111119,40711919,0,31200619,20401119,41611119,10400219,11110709,21301519,31811319,31011719,40112019,40410919,11711009,10510919,40101019
26,172,450.361477676779,1,0,596348.19654943,596349.2435903,7,1,1,29,3,10510919,31201319,31510819,4180130,0,0,0,0,0,0,0,0,10510919,0,0,31201319,0,0,0,0,0,0,0,0,0,31510819,0,0,0,0,0,0,-4180130,0,0,0,0,0,0,0
26,173,550.127574475482,1,0,596350.878853399,596351.925907744,7,1,1,32,9,31012518,61522618,52033727,55122868,0,0,0,0,0,0,20412009,0,10600509,20810709,0,40711909,0,0,0,0,0,0,0,30011709,0,0,11710509,0,0,10311509,0,11910719,0,40202019,0,-3010130,0,0,0,0
26,174,545.359429670498,0,0,596353.549406775,596354.596449186,7,0,0,28,31,259459911,230837231,195928384,236216744,41501009,30711709,20900309,30911009,11411319,41901909,31700919,30311319,20110409,11610209,30600119,31600409,30100819,32001809,30710219,11810519,42001619,10401509,0,41101909,40501319,21710209,31301519,0,0,21201519,40111909,-1200051,30511109,30300819,31001709,0,41400319,30201109,40300219,31301409
26,175,471.22644202318,0,0,596356.24349021,596357.290526461,7,0,0,15,3,0,12740080,20300219,31111519,0,0,0,0,0,0,0,0,0,0,0,0,0,11600019,-1140061,0,0,0,0,20300219,0,0,0,0,0,0,0,0,0,0,0,0,31111519,0,0,0
26,176,642.927775974385,0,0,596358.819922578,596359.866979618,7,0,0,30,19,206456632,153645175,31822028,108635006,41511119,10100909,20100819,40610319,10811709,20610919,41500519,21210319,0,0,0,40210609,10100519,20511919,0,41810609,0,41011519,0,20111219,0,0,0,0,0,11710809,0,0,11601409,-4031170,0,0,40200909,0,42001409,10800109
26,177,723.315248265862,0,0,596361.596339856,596362.643392661,7,0,0,27,31,206959841,196646403,220039984,218436402,11300319,30111219,10911909,20010709,31910619,10100919,21501519,30401519,40711109,0,0,20710819,20000519,20611819,31911509,41210109,40900519,21301109,0,41101709,30210409,31301119,30811709,31801209,11611809,40100819,-3101201,0,41102019,31801209,20310419,31710309,11710309,40301909,21100209,20400019
26,178,496.629728819244,1,0,596364.549247785,596365.596286731,7,1,1,17,19,74135036,200407334,126126065,112513737,0,0,10310509,11000509,0,0,0,11512009,41312009,21611919,21411119,30500919,32001809,0,32011009,30800209,-1170131,30900219,0,0,11400119,0,30801919,0,31411809,20501909,32010309,0,0,30901309,0,40910719,0,0,0,40701709
26,179,751.225025509484,0,0,596367.125676689,596368.17271679,7,0,0,12,31,169330421,118456165,246542292,217748492,11901019,20000609,20100509,20602019,11701719,41700609,11411509,20601709,11310719,30701609,0,-2010191,11011009,10700809,21310309,0,11011119,31711119,21001109,30111009,21300709,40011519,41402009,0,41502019,11211909,40002009,30701709,40600819,11912009,0,40911409,31801619,30400209,10210209,21210509
26,180,569.284845609218,1,0,596369.937401182,596370.984442823,7,1,1,33,31,178216592,125138664,308659751,260698733,10901909,11301109,0,41900709,30500109,10100819,21801519,20100309,31610109,0,20911619,11801109,0,0,40401909,11211909,20501309,20310809,31100419,41710019,42011419,20501519,40501419,32011419,40110509,30311919,30401109,31101519,21600619,40911909,20111519,31910219,-4050001,40410519,40401109,30201319
26,181,629.019467858598,1,0,596372.572658121,596373.619686288,7,0,1,5,9,76093248,42622428,93931847,20900109,0,21710419,0,0,-4180001,40101309,10101519,0,0,0,0,0,0,0,11911709,0,0,30710719,31710119,21410609,0,40811119,0,0,0,0,0,0,0,0,0,0,0,0,20900109,0
26,182,515.237273415551,0,0,596375.384381845,596376.431413861,7,0,0,23,19,185634984,134945684,165806545,42021618,32000619,20811009,21601309,40510119,0,0,30510409,40201519,0,31810309,30210909,10311519,0,10412019,11700209,40500719,0,0,41702019,40511819,30501819,0,-1070150,0,11110719,0,40910019,20011109,0,0,0,0,0,0,0,22010509
26,183,715.325352735817,0,0,596396.866414878,596397.913446124,8,1,0,24,9,30400319,21001909,84463087,114224366,0,30400319,0,0,0,0,0,0,0,0,0,0,0,0,0,0,21001909,0,41101309,0,0,0,10200709,-2150060,0,0,31011009,41711619,0,10901219,40601209,0,21010319,0,0,0
26,184,682.855695486069,1,0,596399.654618935,596400.701717166,8,1,1,4,19,148723796,188624993,134121466,114216156,0,41910809,30800609,-4001140,41710719,0,30300519,0,0,0,21100719,31110819,0,40410809,31401819,11400009,32000309,21200509,0,0,0,41500619,41400119,30510019,0,20710709,0,0,0,42001809,0,40611319,0,0,11001119,20601909
26,185,698.861664044671,0,0,596402.501664888,596403.548715382,8,0,0,35,9,51212757,102815076,11200009,44600770,0,0,10701519,10400119,0,0,0,30111119,0,0,0,0,21602019,30800819,10301719,40110519,0,0,0,0,11200009,0,0,0,0,0,0,0,40510719,0,0,0,0,0,-4090051,0
26,186,569.459618418477,0,0,596405.372180845,596406.419215941,8,1,0,32,9,31012518,61522618,52033727,55122868,0,0,0,0,0,0,20412009,0,10600509,20810709,0,40711909,0,0,0,0,0,0,0,30011709,0,0,11710509,0,0,10311509,0,11910719,0,40202019,0,-3010130,0,0,0,0
26,187,663.533660699613,0,0,596408.030962839,596409.07800679,8,1,0,11,31,216429513,168454923,218058032,238081151,30912019,31000519,31300919,40701309,31501909,10011519,41001319,0,0,20900219,-3120010,20000519,10711609,0,11200009,20701519,40610319,41210719,41811409,21810509,10111119,40711919,0,31200619,20401119,41611119,10400219,11110709,21301519,31811319,31011719,40112019,40410919,11711009,10510919,40101019
26,188,696.151913376525,1,0,596410.807394361,596411.854438696,8,1,1,1,31,207268023,270841122,158025603,197536532,-1050121,40000719,10211319,31001709,11500609,30800109,41201509,10900909,30601019,31701609,31001809,31101419,30110719,42001519,31610619,42011809,0,31301619,41401219,31601319,0,11210009,10210209,0,10700019,12000919,40901909,10011319,10200219,31901219,31500609,30501419,0,40411209,21310119,21700419
26,189,774.77587282192,1,0,596413.642683945,596414.689713652,8,1,1,17,19,74135036,200407334,126126065,112513737,0,0,10310509,11000509,0,0,0,11512009,41312009,21611919,21411119,30500919,32001809,0,32011009,30800209,-1170131,30900219,0,0,11400119,0,30801919,0,31411809,20501909,32010309,0,0,30901309,0,40910719,0,0,0,40701709
26,190,557.518853340298,0,0,596416.619081897,596417.666118534,8,0,0,27,3,11001119,40300919,44831449,0,0,0,0,0,0,11001119,0,0,0,40300919,0,0,0,0,0,0,0,0,0,0,0,0,0,0,41801309,0,-3030140,0,0,0,0,0,0,0,0,0
26,191,555.671418667771,1,0,596419.383527993,596420.430785988,8,1,1,13,0,0,0,0,0,0,0,0,0,0,0,0,0,0,0,0,0,-31111001,0,0,0,0,0,0,0,0,0,0,0,0,0,0,0,0,0,0,0,0,0,0,0
26,192,524.157238192856,0,0,596422.054299263,596423.101330124,8,0,0,16,31,178248212,187957605,277990131,190466312,11411719,0,10610309,11701119,30801119,20310109,40311709,11101619,42000509,31301419,0,10201619,21500819,40800409,40200319,-2151101,0,41801919,40211009,31511319,20211219,31911509,20110919,30011819,30110719,42011309,31900309,0,41901119,21611009,21011819,21111109,12010819,40610209,10710219,21500009
26,193,486.788163892925,0,0,596424.689588154,596425.736588603,8,0,0,18,19,133614885,104857774,40010819,137148083,0,0,0,10200819,30910619,31700219,20501609,40301619,0,40500319,20011919,10801219,0,10412019,0,10810219,11201019,-1121060,0,0,40010819,0,0,0,0,0,0,0,20311009,0,30111619,31201109,11510609,12001419,20510509,11501809
26,194,507.708947756328,0,0,596427.383638867,596428.430672809,8,0,0,31,0,0,0,0,0,0,0,0,0,0,0,0,0,0,0,0,0,0,0,0,0,0,0,0,0,0,0,0,0,0,0,0,0,0,0,-20311901,0,0,0,0,0
26,195,504.397500888444,1,0,596429.960052757,596431.007114416,8,0,1,28,31,187854512,146745003,219958941,241097224,32000019,21410219,30610609,20000819,41510209,0,21010909,10101509,11210219,11810209,30701219,30811009,30800319,11811109,0,20110619,0,10700519,40201719,11900409,21311619,41410619,40800609,11511609,30011819,11010219,11800319,-2060041,21001109,41500009,40711319,41810409,40801019,41811909,11401409,0
26,196,505.863822880201,0,0,596432.689438788,596433.736478504,8,1,0,26,3,31322128,0,3200131,20311019,0,0,0,0,0,0,20511309,10810819,0,0,0,0,0,0,0,0,0,0,0,0,0,0,0,0,0,-3200131,0,20311019,0,0,0,0,0,0,0,0
26,197,553.778558387421,1,1,596435.277652162,596436.324674555,8,0,0,23,3,43111438,0,4040051,30310919,22011419,0,0,0,0,0,0,21100019,0,0,0,0,0,0,0,0,0,0,0,0,0,0,-4040051,0,0,0,0,0,0,0,0,0,0,0,30310919,0
26,198,609.851802815683,1,0,596438.07759488,596439.124644605,8,1,1,29,3,10510919,31201319,31510819,4180130,0,0,0,0,0,0,0,0,10510919,0,0,31201319,0,0,0,0,0,0,0,0,0,31510819,0,0,0,0,0,0,-4180130,0,0,0,0,0,0,0
26,199,828.230602783151,0,0,596440.748149026,596441.795194131,8,1,0,33,31,178216592,125138664,308659751,260698733,10901909,11301109,0,41900709,30500109,10100819,21801519,20100309,31610109,0,20911619,11801109,0,0,40401909,11211909,20501309,20310809,31100419,41710019,42011419,20501519,40501419,32011419,40110509,30311919,30401109,31101519,21600619,40911909,20111519,31910219,-4050001,40410519,40401109,30201319
26,200,533.189996844158,1,0,596443.642226609,596444.689261706,8,0,1,5,19,115834555,73626865,113635256,103436085,0,0,0,20310209,-2200100,40811919,30700309,11810709,10001309,0,0,20410519,0,21102009,0,10801709,10601619,10711009,0,0,0,0,10310519,41012009,41612009,0,20700719,0,0,31410419,0,20800119,0,10102019,20611609,20511919
26,201,554.073824430816,1,0,596446.395124607,596447.442170867,8,1,1,3,3,1041151,21901219,20611509,41501909,0,0,-1041151,0,0,0,0,0,0,0,0,0,21901219,0,0,0,0,0,20611509,0,0,0,0,0,0,0,0,0,0,0,0,0,0,0,0,41501909
26,202,576.469014631584,1,0,596449.159794371,596450.206834086,8,1,1,7,9,24251260,32412528,145522855,40601119,0,0,0,0,0,21211219,-3040041,0,0,0,0,0,0,0,12000809,20411719,0,0,41600709,11511009,0,0,0,0,40700509,30510409,21200219,40601119,0,0,0,0,0,0,0,0
26,203,603.619645815343,0,0,596451.971511934,596453.018558195,8,0,0,30,9,61901528,74411947,32611628,35862229,0,0,0,21500319,0,0,0,0,40401209,0,31801019,0,0,0,0,31600919,11010009,0,0,21501109,0,0,0,0,11110519,0,0,0,0,-3160101,0,0,0,22001319,10700809,0
26,204,512.844346812926,1,0,596454.677409482,596455.724414551,8,1,1,21,19,105236555,174647174,95246727,74423046,0,11312009,0,20611209,0,30701519,10900209,0,31711609,31101309,30110319,0,40211809,0,0,21601519,10110709,41511509,0,30511809,-2020171,0,11411819,0,30301809,0,21001119,11001319,0,20410609,0,31811109,11200009,0,0,0
26,205,594.678893103264,1,0,596457.418505301,596458.465549251,8,0,1,31,9,21202009,74315946,22121528,35822008,0,0,0,0,21202009,0,0,0,0,0,10801019,30001309,0,21902009,0,0,11611609,0,0,0,0,11710019,10411509,0,0,0,0,0,10701119,0,-4110170,21010719,0,0,0,0
26,206,490.195466438308,1,0,596460.136113021,596461.183155816,8,0,1,15,31,286671012,210381884,268260821,205418183,0,30411319,40910909,30511819,41811119,41011909,41911519,40101509,20000909,40300409,10700109,40210409,30800309,20700219,-4060011,32010309,0,31600109,11001619,30201009,41611719,40200319,10110009,31111309,21101619,41611709,41311509,41301709,40111409,0,41101309,31300509,0,11600519,10001319,30001409
26,207,566.17242412176,0,0,596462.842002099,596463.888998699,8,0,0,22,3,0,0,44812080,40222628,0,0,0,0,0,0,0,0,0,0,0,0,0,0,0,0,0,0,0,0,0,-4110161,40701919,0,0,0,0,0,0,0,0,0,0,20011319,0,20211309
26,208,580.38716239389,1,0,596465.653689636,596466.700724732,8,0,1,12,19,105824345,180647803,124434856,95412157,21712009,0,21800309,10100409,21510009,30701609,0,0,0,11411609,21201519,-3110100,20000819,0,31000309,41011319,32010609,20901519,11101419,0,0,40410709,0,40912019,32010709,0,0,0,12000119,0,0,0,0,41910619,0,41501419
26,209,590.11015878059,1,0,596486.382808888,596487.429860923,9,0,1,23,9,41511538,61412337,45351279,62521828,0,0,0,0,0,11200419,30311119,0,0,0,0,0,10711209,20100419,0,0,0,30600709,0,0,10901019,0,-4140041,30310219,0,0,0,31011609,0,0,0,0,31510219,0,0,0
26,210,1181.53835413978,1,0,596489.147485196,596490.194527222,9,1,1,3,3,1041151,21901219,20611509,41501909,0,0,-1041151,0,0,0,0,0,0,0,0,0,21901219,0,0,0,0,0,20611509,0,0,0,0,0,0,0,0,0,0,0,0,0,0,0,0,41501909
26,211,742.261559935287,1,0,596492.429787395,596493.47683558,9,1,1,32,9,31012518,61522618,52033727,55122868,0,0,0,0,0,0,20412009,0,10600509,20810709,0,40711909,0,0,0,0,0,0,0,30011709,0,0,11710509,0,0,10311509,0,11910719,0,40202019,0,-3010130,0,0,0,0
26,212,506.934788427316,1,0,596495.312153266,596496.359154871,9,0,1,27,9,74714937,10701819,61333498,92521537,21601809,0,0,0,0,0,21811709,31301419,0,0,0,10701819,0,0,0,0,0,0,40200619,0,0,20011809,0,0,0,0,-1121070,40110309,41000119,0,0,0,0,11411109,0,0
26,213,520.87427850347,1,0,596498.018007698,596499.065005453,9,1,1,33,31,178216592,125138664,308659751,260698733,10901909,11301109,0,41900709,30500109,10100819,21801519,20100309,31610109,0,20911619,11801109,0,0,40401909,11211909,20501309,20310809,31100419,41710019,42011419,20501519,40501419,32011419,40110509,30311919,30401109,31101519,21600619,40911909,20111519,31910219,-4050001,40410519,40401109,30201319
26,214,573.934806860052,1,0,596500.759129309,596501.806136688,9,1,1,4,19,148723796,188624993,134121466,114216156,0,41910809,30800609,-4001140,41710719,0,30300519,0,0,0,21100719,31110819,0,40410809,31401819,11400009,32000309,21200509,0,0,0,41500619,41400119,30510019,0,20710709,0,0,0,42001809,0,40611319,0,0,11001119,20601909
26,215,478.454111958854,1,0,596503.394148024,596504.441391703,9,1,1,24,9,30400319,21001909,84463087,114224366,0,30400319,0,0,0,0,0,0,0,0,0,0,0,0,0,0,21001909,0,41101309,0,0,0,10200709,-2150060,0,0,31011009,41711619,0,10901219,40601209,0,21010319,0,0,0
26,216,992.342017008923,0,0,596506.076660191,596507.123710301,9,0,0,31,31,236315413,199859811,148535973,199046462,40301019,41011019,41000509,0,41400009,0,20101219,21100819,31400819,11901219,21811309,20911109,30611519,30511419,11401209,31801309,30710609,10200109,0,21401809,21800909,20100009,10110809,0,12000019,41710909,21411509,31511009,20001109,21710309,-1080060,40410919,21510019,20710919,31111409,11000709
26,217,854.460018803366,0,0,596509.182512929,596510.22954841,9,1,0,29,3,10510919,31201319,31510819,4180130,0,0,0,0,0,0,0,0,10510919,0,0,31201319,0,0,0,0,0,0,0,0,0,31510819,0,0,0,0,0,0,-4180130,0,0,0,0,0,0,0
26,218,796.590539510362,0,0,596512.100124422,596513.147212258,9,1,0,11,31,216429513,168454923,218058032,238081151,30912019,31000519,31300919,40701309,31501909,10011519,41001319,0,0,20900219,-3120010,20000519,10711609,0,11200009,20701519,40610319,41210719,41811409,21810509,10111119,40711919,0,31200619,20401119,41611119,10400219,11110709,21301519,31811319,31011719,40112019,40410919,11711009,10510919,40101019
26,219,712.398098432459,0,0,596515.076546627,596516.123632154,9,0,0,16,19,175225875,75066606,136103566,116222475,0,41100709,41810519,40601109,31112019,0,0,20601519,0,10310319,0,0,10501519,21101919,0,-1150121,10201919,21800809,0,41800009,31700819,40901419,0,0,0,0,21701319,30200609,0,21900209,30900219,11410419,0,0,0,21811019
26,220,859.138852334581,0,0,596517.97063114,596519.017673166,9,0,0,30,9,53012718,62902018,42111728,66572847,0,0,0,0,0,0,11000909,42011809,0,41600209,0,0,0,0,0,0,0,21301809,0,0,0,0,11910809,0,0,0,30200919,0,0,-2151110,0,11801009,0,30910519,0,21710209
26,221,610.567832947709,0,0,596521.029405281,596522.076446152,9,0,0,18,31,208186921,116408654,207846522,189225522,20711409,20610619,20710119,21910619,11310509,41300519,20211009,30911309,20510809,11211719,20400519,10111409,0,0,21402019,31011519,20101319,-2170150,31700609,21400019,11700719,0,42010619,10010819,30511909,40210419,20301409,20800809,30400419,21410209,41100119,11610809,21500719,31001519,11400919,0
26,222,625.63872768078,0,0,596523.794120086,596524.841125155,9,1,0,7,9,24251260,32412528,145522855,40601119,0,0,0,0,0,21211219,-3040041,0,0,0,0,0,0,0,12000809,20411719,0,0,41600709,11511009,0,0,0,0,40700509,30510409,21200219,40601119,0,0,0,0,0,0,0,0
26,223,591.874441714026,0,0,596526.605809932,596527.652861582,9,1,0,1,31,207268023,270841122,158025603,197536532,-1050121,40000719,10211319,31001709,11500609,30800109,41201509,10900909,30601019,31701609,31001809,31101419,30110719,42001519,31610619,42011809,0,31301619,41401219,31601319,0,11210009,10210209,0,10700019,12000919,40901909,10011319,10200219,31901219,31500609,30501419,0,40411209,21310119,21700419
26,224,484.199676429853,0,0,596529.31165705,596530.358692531,9,1,0,26,3,31322128,0,3200131,20311019,0,0,0,0,0,0,20511309,10810819,0,0,0,0,0,0,0,0,0,0,0,0,0,0,0,0,0,-3200131,0,20311019,0,0,0,0,0,0,0,0
26,225,669.385089771822,1,0,596531.876333435,596532.923369686,9,0,1,35,3,21911119,11900709,20811019,1181121,0,21911119,0,0,0,0,0,0,0,0,0,0,0,0,0,0,0,11900709,0,0,0,20811019,0,0,0,0,0,0,0,0,0,0,0,0,-1181121,0
26,226,647.710934281349,0,0,596534.688055618,596535.735095719,9,0,0,12,3,41302009,21531339,0,31210009,0,0,0,41302009,0,0,0,0,0,20500209,0,-1031130,0,0,0,0,0,0,0,0,0,0,0,0,0,0,0,0,0,31210009,0,0,0,0,0,0
26,227,549.912765505724,0,0,596537.440970169,596538.487997181,9,0,0,24,0,0,0,0,0,0,0,0,0,0,0,0,0,0,0,0,0,0,0,0,0,0,0,0,0,0,0,0,-21100601,0,0,0,0,0,0,0,0,0,0,0,0
26,228,641.282831318676,1,0,596540.170337722,596541.217381287,9,0,1,15,19,115942665,99175276,116037375,163654575,21800309,0,0,31010619,11111519,0,30610209,21410009,0,11701009,0,31701119,0,31401119,-4071110,0,20300919,0,41301709,0,40601519,0,0,0,11310419,10811709,12012019,30010619,0,41310809,0,40010419,0,21911819,0,30410909
26,229,553.869409486651,1,0,596542.899718749,596543.946755,9,0,1,28,31,185867032,220147332,189548722,126618593,20210209,30810519,21901619,10210619,40810519,21210219,10511619,30201709,0,41310419,41301219,30600109,10811119,41810419,0,11710819,21701909,20901319,10501819,0,11901309,21301019,11511209,41310619,40700809,21610519,30711419,-2171000,30902019,0,20511019,20110209,11101709,10311509,20100109,11411019
26,230,472.735879826359,0,0,596545.687978241,596546.734951743,9,0,0,22,3,41102009,0,46885018,0,0,0,0,0,0,0,0,41102009,0,0,0,0,0,0,0,0,0,0,0,0,0,-4081090,10802009,0,0,0,32001919,0,0,0,0,0,0,0,0,0
26,231,484.91724638734,1,0,596548.393559122,596549.440841977,9,1,1,21,19,105236555,174647174,95246727,74423046,0,11312009,0,20611209,0,30701519,10900209,0,31711609,31101309,30110319,0,40211809,0,0,21601519,10110709,41511509,0,30511809,-2020171,0,11411819,0,30301809,0,21001119,11001319,0,20410609,0,31811109,11200009,0,0,0
26,232,491.28029064741,1,0,596550.958435915,596552.005476401,9,1,1,17,19,74135036,200407334,126126065,112513737,0,0,10310509,11000509,0,0,0,11512009,41312009,21611919,21411119,30500919,32001809,0,32011009,30800209,-1170131,30900219,0,0,11400119,0,30801919,0,31411809,20501909,32010309,0,0,30901309,0,40910719,0,0,0,40701709
26,233,896.146061946638,1,0,596553.699576004,596554.746614565,9,0,1,5,19,175157095,145543575,174435965,83024527,20510819,10111009,40601909,41001809,-1131031,31800209,30000309,0,0,11710709,0,32001719,30310119,0,0,0,30310819,41210209,0,41011609,30211619,40800209,0,0,0,31111009,31301519,0,0,0,0,31410909,21411909,0,0,30201709
26,234,653.819903265685,0,0,596556.793655436,596557.840693997,9,1,0,13,0,0,0,0,0,0,0,0,0,0,0,0,0,0,0,0,0,-31111001,0,0,0,0,0,0,0,0,0,0,0,0,0,0,0,0,0,0,0,0,0,0,0
26,235,580.734783550724,0,0,596583.569775523,596584.616823323,10,0,0,23,19,53732747,127046884,108137416,192636174,21810319,0,0,20111109,0,0,0,0,11811319,31811209,0,0,31410019,10911719,30801109,11900919,0,10211909,0,31411709,0,10701609,-4021080,41901209,20101809,0,0,30201009,0,31110219,30101009,30200509,0,40711609,0,30311819
26,236,518.213032977656,0,0,596586.287392097,596587.334429118,10,0,0,18,9,91812537,94953007,61913328,31901309,0,0,40200109,0,0,20310919,0,31301509,0,0,0,0,21500619,0,0,41810009,30601209,-1041170,20801619,0,0,0,0,41111709,0,0,0,0,0,0,0,31901309,0,0,0,0
26,237,649.55413446296,1,0,596589.063823618,596590.110864104,10,1,1,29,3,10510919,31201319,31510819,4180130,0,0,0,0,0,0,0,0,10510919,0,0,31201319,0,0,0,0,0,0,0,0,0,31510819,0,0,0,0,0,0,-4180130,0,0,0,0,0,0,0
26,238,516.261273529381,0,0,596591.899081636,596592.946126741,10,0,0,22,3,0,0,25331099,23302318,0,0,0,0,0,0,0,0,0,0,0,0,0,0,0,0,0,0,0,0,0,-4021080,0,0,0,21310019,0,0,11301009,0,0,0,0,0,12001309,0
26,239,705.013748724014,0,0,596594.675540489,596595.722547098,10,0,0,35,3,0,32612928,11211319,1170190,0,0,0,0,0,0,0,0,0,10901009,0,0,21711919,0,0,0,0,0,0,0,0,0,0,0,11211319,0,0,0,0,0,0,0,0,0,-1170190,0
26,240,448.48055113107,0,0,596597.604891027,596598.651935747,10,0,0,16,31,195638883,208376793,219157611,258648512,0,20001109,41900909,40301209,0,41901319,10911509,20011419,20611409,21311309,0,41201909,32000709,30301419,20210519,-1130110,30310309,31910509,20710509,31110819,31610409,11001209,11610409,41011309,21001519,30700019,20401409,40511119,0,42010609,20511909,11400909,20700019,41301919,41911409,40300619
26,241,598.086965619586,1,0,596600.240152201,596601.287195766,10,1,1,32,9,31012518,61522618,52033727,55122868,0,0,0,0,0,0,20412009,0,10600509,20810709,0,40711909,0,0,0,0,0,0,0,30011709,0,0,11710509,0,0,10311509,0,11910719,0,40202019,0,-3010130,0,0,0,0
26,242,548.465691623278,1,0,596603.004827354,596604.05186707,10,1,1,24,9,30400319,21001909,84463087,114224366,0,30400319,0,0,0,0,0,0,0,0,0,0,0,0,0,0,21001909,0,41101309,0,0,0,10200709,-2150060,0,0,31011009,41711619,0,10901219,40601209,0,21010319,0,0,0
26,243,566.907702363096,0,0,596605.769497888,596606.816602662,10,1,0,17,19,74135036,200407334,126126065,112513737,0,0,10310509,11000509,0,0,0,11512009,41312009,21611919,21411119,30500919,32001809,0,32011009,30800209,-1170131,30900219,0,0,11400119,0,30801919,0,31411809,20501909,32010309,0,0,30901309,0,40910719,0,0,0,40701709
26,244,658.103380352259,0,0,596608.58122854,596609.628260557,10,0,0,30,31,207657173,225659431,197635682,188877053,21801309,20011209,0,40911709,40010509,31210719,11700409,42011309,0,40600619,20311619,10311509,12001919,40410609,20310909,10001819,40600009,31110419,20300309,31700909,41500309,21210909,20900209,11010709,21010519,0,30001809,20310409,40701809,-2130160,30101909,31011819,0,11010019,31810519,21800409
26,245,509.104436729103,1,0,596611.334129617,596612.381168948,10,0,1,15,3,0,2090190,82102837,0,0,0,0,0,0,0,0,0,0,0,0,0,0,0,-2090190,0,0,0,0,41100019,30401809,0,10601009,0,0,0,0,0,0,0,0,0,0,0,0,0
26,246,624.267491395585,1,0,596613.992949723,596615.039966341,10,1,1,33,31,178216592,125138664,308659751,260698733,10901909,11301109,0,41900709,30500109,10100819,21801519,20100309,31610109,0,20911619,11801109,0,0,40401909,11211909,20501309,20310809,31100419,41710019,42011419,20501519,40501419,32011419,40110509,30311919,30401109,31101519,21600619,40911909,20111519,31910219,-4050001,40410519,40401109,30201319
26,247,579.542169813067,0,0,596616.804650348,596617.851697763,10,0,0,5,19,64623258,105447265,137647603,155834285,0,0,0,20110609,-4101040,0,40411609,0,0,0,20301509,11110809,41411419,20611709,0,0,0,12011819,22010109,0,0,31900019,22011419,10811219,10501809,10012019,30401009,0,0,0,30810619,0,31201619,40810219,41811219,11200609
26,248,512.397405458614,1,0,596619.592850557,596620.639897587,10,1,1,13,0,0,0,0,0,0,0,0,0,0,0,0,0,0,0,0,0,-31111001,0,0,0,0,0,0,0,0,0,0,0,0,0,0,0,0,0,0,0,0,0,0,0
26,249,580.728239030577,0,0,596622.263408167,596623.31052449,10,1,0,26,3,31322128,0,3200131,20311019,0,0,0,0,0,0,20511309,10810819,0,0,0,0,0,0,0,0,0,0,0,0,0,0,0,0,0,-3200131,0,20311019,0,0,0,0,0,0,0,0
26,250,538.051687646657,1,0,596625.075141129,596626.122177765,10,0,1,27,9,0,41610519,61922969,135135584,0,0,0,0,0,0,0,0,0,0,0,0,0,0,0,0,41610519,0,0,0,30201519,0,0,30610309,0,0,-1111141,21201119,10411609,30410909,0,0,0,30600019,32011219,10500709
26,251,825.45463857241,0,0,596627.745691425,596628.792733451,10,1,0,4,19,148723796,188624993,134121466,114216156,0,41910809,30800609,-4001140,41710719,0,30300519,0,0,0,21100719,31110819,0,40410809,31401819,11400009,32000309,21200509,0,0,0,41500619,41400119,30510019,0,20710709,0,0,0,42001809,0,40611319,0,0,11001119,20601909
26,252,760.869104531594,1,0,596630.757473201,596631.804459407,10,1,1,7,9,24251260,32412528,145522855,40601119,0,0,0,0,0,21211219,-3040041,0,0,0,0,0,0,0,12000809,20411719,0,0,41600709,11511009,0,0,0,0,40700509,30510409,21200219,40601119,0,0,0,0,0,0,0,0
26,253,637.91402510833,1,0,596633.710323386,596634.757391974,10,1,1,1,31,207268023,270841122,158025603,197536532,-1050121,40000719,10211319,31001709,11500609,30800109,41201509,10900909,30601019,31701609,31001809,31101419,30110719,42001519,31610619,42011809,0,31301619,41401219,31601319,0,11210009,10210209,0,10700019,12000919,40901909,10011319,10200219,31901219,31500609,30501419,0,40411209,21310119,21700419
26,254,671.800344134681,0,0,596636.463293756,596637.51030229,10,1,0,11,31,216429513,168454923,218058032,238081151,30912019,31000519,31300919,40701309,31501909,10011519,41001319,0,0,20900219,-3120010,20000519,10711609,0,11200009,20701519,40610319,41210719,41811409,21810509,10111119,40711919,0,31200619,20401119,41611119,10400219,11110709,21301519,31811319,31011719,40112019,40410919,11711009,10510919,40101019
26,255,632.559967343695,1,0,596639.251430445,596640.298471316,10,0,1,12,31,190155203,201687633,227138631,176047032,21611209,41700419,31900009,21010919,0,21910809,30911519,21110319,0,0,11410719,-4161160,30701409,41811209,10200109,30500109,31901609,41001309,11911209,30301119,30301209,30101409,31501209,31310119,30900719,10211319,20600319,30600519,10911509,10210019,10000919,11211719,30401219,0,31600919,41110209
26,256,496.014558710158,0,0,596642.121985669,596643.16902038,10,0,0,17,0,0,0,0,0,0,0,0,0,0,0,0,0,0,0,0,0,0,0,0,0,-41911301,0,0,0,0,0,0,0,0,0,0,0,0,0,0,0,0,0,0,0
26,257,567.008947487921,1,0,596644.81606795,596645.86310959,10,1,1,21,19,105236555,174647174,95246727,74423046,0,11312009,0,20611209,0,30701519,10900209,0,31711609,31101309,30110319,0,40211809,0,0,21601519,10110709,41511509,0,30511809,-2020171,0,11411819,0,30301809,0,21001119,11001319,0,20410609,0,31811109,11200009,0,0,0
26,258,476.277149282396,1,0,596647.474852638,596648.521896974,10,1,1,3,3,1041151,21901219,20611509,41501909,0,0,-1041151,0,0,0,0,0,0,0,0,0,21901219,0,0,0,0,0,20611509,0,0,0,0,0,0,0,0,0,0,0,0,0,0,0,0,41501909
26,259,622.280315263197,1,0,596650.18071092,596651.227747171,10,0,1,31,19,94825156,94606484,103503466,98664145,11111409,0,31801219,31100819,0,0,0,0,20811709,10800009,10001619,0,0,31801819,10500409,20201319,0,11301309,0,0,0,11100009,0,40401719,0,20501719,31500019,11801309,0,41810009,-3150180,0,0,10801109,10900319,20201219
26,260,528.12081144657,0,0,596653.015968937,596654.063011348,10,0,0,28,9,103312537,61611918,80813637,34520089,30101109,0,0,31911409,0,41300019,0,0,0,0,0,40010409,21601509,0,0,0,0,0,0,0,30601209,20111909,0,30100519,0,0,0,-3110080,0,0,0,0,0,31410009,0,0
26,261,496.776784420945,1,0,596675.545110209,596676.592227687,11,0,1,16,19,124935594,125805896,95825356,136117165,10000919,20411419,20801809,0,20110119,41811309,0,0,11800019,0,40000709,0,40910619,0,20901709,-3091040,20901819,0,0,21901909,0,0,31410819,0,21700919,20811709,0,20700609,0,31711709,30201309,0,41501519,12002019,0,0
26,262,716.121070203371,0,0,596678.203894898,596679.250938079,11,1,0,33,31,178216592,125138664,308659751,260698733,10901909,11301109,0,41900709,30500109,10100819,21801519,20100309,31610109,0,20911619,11801109,0,0,40401909,11211909,20501309,20310809,31100419,41710019,42011419,20501519,40501419,32011419,40110509,30311919,30401109,31101519,21600619,40911909,20111519,31910219,-4050001,40410519,40401109,30201319
26,263,411.544944625348,1,0,596680.980339123,596682.027371525,11,0,1,30,3,0,21500509,10100809,15300999,0,0,0,0,0,0,0,0,0,0,0,0,0,21500509,0,0,0,0,0,0,0,0,0,0,10100809,0,0,0,0,-4200090,0,0,0,0,0,11100909
26,264,420.763640198857,1,0,596683.486177464,596684.533223339,11,0,1,15,3,0,44941809,0,32211428,0,0,0,0,0,0,0,0,0,0,0,40801809,0,0,-4140000,0,0,0,0,0,0,0,0,0,0,0,0,0,0,0,0,0,0,10400409,21811019,0
26,265,592.257094336674,0,0,596685.968512692,596687.015554333,11,0,0,12,9,114313846,84254639,74114627,0,0,21601809,0,0,40910909,20801009,31000119,0,0,0,0,-2041201,0,0,41511619,0,40701819,0,20801709,0,11601709,0,0,0,41711209,0,0,0,0,0,0,0,0,0,0,0
26,266,700.081225018948,1,0,596688.756709435,596689.803744917,11,0,1,31,31,278969411,277855211,178048103,149767495,21410009,30611009,30011809,20801119,41911719,40600919,30510509,31510709,31601609,30800109,40600119,31310009,40111009,31210219,10101819,40600609,11211009,41910309,31400019,21010609,21001809,40501609,11812019,21311419,31010619,0,0,0,20411709,0,-3020011,11201319,31700909,41711419,11310709,30411419
26,267,467.19473041594,1,0,596691.556676021,596692.603719971,11,1,1,29,3,10510919,31201319,31510819,4180130,0,0,0,0,0,0,0,0,10510919,0,0,31201319,0,0,0,0,0,0,0,0,0,31510819,0,0,0,0,0,0,-4180130,0,0,0,0,0,0,0
26,268,558.762282133102,0,0,596694.144886315,596695.191963757,11,1,0,4,19,148723796,188624993,134121466,114216156,0,41910809,30800609,-4001140,41710719,0,30300519,0,0,0,21100719,31110819,0,40410809,31401819,11400009,32000309,21200509,0,0,0,41500619,41400119,30510019,0,20710709,0,0,0,42001809,0,40611319,0,0,11001119,20601909
26,269,495.969518087804,1,0,596696.897782772,596697.944831727,11,1,1,24,9,30400319,21001909,84463087,114224366,0,30400319,0,0,0,0,0,0,0,0,0,0,0,0,0,0,21001909,0,41101309,0,0,0,10200709,-2150060,0,0,31011009,41711619,0,10901219,40601209,0,21010319,0,0,0
26,270,822.043871390633,0,0,596699.556580935,596700.603619881,11,1,0,13,0,0,0,0,0,0,0,0,0,0,0,0,0,0,0,0,0,-31111001,0,0,0,0,0,0,0,0,0,0,0,0,0,0,0,0,0,0,0,0,0,0,0
26,271,537.351825856604,1,0,596702.521247927,596703.568297652,11,1,1,26,3,31322128,0,3200131,20311019,0,0,0,0,0,0,20511309,10810819,0,0,0,0,0,0,0,0,0,0,0,0,0,0,0,0,0,-3200131,0,20311019,0,0,0,0,0,0,0,0
26,272,538.771567400545,0,0,596705.132987896,596706.180029151,11,0,0,18,9,123913556,33503169,22612238,10111909,0,40501619,0,41901409,20300319,0,0,21210209,0,0,0,0,10211219,0,0,21210919,0,-2081031,11700719,0,0,0,10911519,0,0,0,0,0,0,0,10111909,0,0,0,0,0
26,273,649.900600663386,0,0,596707.838885058,596708.885874344,11,0,0,35,19,96734094,103815066,98437164,95975278,0,10100419,31900919,0,10810419,12001119,11410509,0,20510709,0,20100719,0,0,0,30901909,20801819,0,32010619,0,32011709,11901709,0,10311309,10810909,11800509,0,21601019,21601719,41502019,0,0,30700509,0,0,-2171031,0
26,274,561.300724395551,0,0,596710.709393317,596711.756435342,11,1,0,7,9,24251260,32412528,145522855,40601119,0,0,0,0,0,21211219,-3040041,0,0,0,0,0,0,0,12000809,20411719,0,0,41600709,11511009,0,0,0,0,40700509,30510409,21200219,40601119,0,0,0,0,0,0,0,0
26,275,589.493448962457,0,0,596713.415359773,596714.462277455,11,1,0,1,31,207268023,270841122,158025603,197536532,-1050121,40000719,10211319,31001709,11500609,30800109,41201509,10900909,30601019,31701609,31001809,31101419,30110719,42001519,31610619,42011809,0,31301619,41401219,31601319,0,11210009,10210209,0,10700019,12000919,40901909,10011319,10200219,31901219,31500609,30501419,0,40411209,21310119,21700419
26,276,426.792537095025,1,0,596716.23872938,596717.28582915,11,0,1,23,9,34022128,21010619,73842669,45423946,0,0,0,0,22011619,12010509,0,0,0,0,21010619,0,0,0,0,0,0,0,0,0,0,0,-3040151,30001809,40800709,0,0,0,0,0,11500709,10911309,11211419,0,11800509,0
26,277,448.511348222382,1,0,596718.862231876,596719.909277751,11,1,1,21,19,105236555,174647174,95246727,74423046,0,11312009,0,20611209,0,30701519,10900209,0,31711609,31101309,30110319,0,40211809,0,0,21601519,10110709,41511509,0,30511809,-2020171,0,11411819,0,30301809,0,21001119,11001319,0,20410609,0,31811109,11200009,0,0,0
26,278,398.157105664723,1,0,596721.403383591,596722.450411758,11,1,1,17,19,74135036,200407334,126126065,112513737,0,0,10310509,11000509,0,0,0,11512009,41312009,21611919,21411119,30500919,32001809,0,32011009,30800209,-1170131,30900219,0,0,11400119,0,30801919,0,31411809,20501909,32010309,0,0,30901309,0,40910719,0,0,0,40701709
26,279,425.377800012939,0,0,596723.90923502,596724.956277816,11,0,0,14,0,0,0,0,0,0,0,0,0,0,0,0,0,0,0,0,0,0,-41911191,0,0,0,0,0,0,0,0,0,0,0,0,0,0,0,0,0,0,0,0,0,0
26,280,522.866074112244,1,0,596726.532766003,596727.579769148,11,1,1,32,9,31012518,61522618,52033727,55122868,0,0,0,0,0,0,20412009,0,10600509,20810709,0,40711909,0,0,0,0,0,0,0,30011709,0,0,11710509,0,0,10311509,0,11910719,0,40202019,0,-3010130,0,0,0,0
26,281,449.590782867745,1,0,596729.215051495,596730.262095445,11,0,1,28,19,91914357,116715375,135836384,107054965,0,0,10401819,40511419,0,0,0,41001119,0,0,0,10510819,0,10600109,22002009,0,41901319,31701119,0,0,0,10101119,22000809,30810709,31910219,20302009,20711519,-4121200,0,20300319,30712019,10611109,0,10000209,0,31310109
26,282,529.430453665555,0,0,596731.815020852,596732.862064032,11,0,0,27,3,11711109,40911319,43452219,0,0,0,0,0,0,0,0,11711109,0,0,0,0,0,0,0,0,0,40911319,0,40301209,0,0,0,0,0,0,-3151010,0,0,0,0,0,0,0,0,0
26,283,499.116201186553,1,0,596734.544407268,596735.591444674,11,1,1,11,31,216429513,168454923,218058032,238081151,30912019,31000519,31300919,40701309,31501909,10011519,41001319,0,0,20900219,-3120010,20000519,10711609,0,11200009,20701519,40610319,41210719,41811409,21810509,10111119,40711919,0,31200619,20401119,41611119,10400219,11110709,21301519,31811319,31011719,40112019,40410919,11711009,10510919,40101019
26,284,492.166859097779,0,0,596737.250254385,596738.297281782,11,0,0,22,31,226536692,214724183,182670172,257957902,20410409,0,30401009,21700309,40511309,40400319,21200219,41401709,10511409,0,41301309,30200409,40510019,40900309,20201019,0,11611009,30000109,30712019,42001309,31100409,-4140070,30201509,11101619,10301519,11210909,11900809,30600709,31111119,40410609,21301009,21711909,40310319,41311219,0,31201009
26,285,478.579609654844,0,0,596739.920820465,596740.967850172,11,1,0,3,3,1041151,21901219,20611509,41501909,0,0,-1041151,0,0,0,0,0,0,0,0,0,21901219,0,0,0,0,0,20611509,0,0,0,0,0,0,0,0,0,0,0,0,0,0,0,0,41501909
26,286,612.585421069525,0,0,596742.520777118,596743.567819144,11,0,0,5,31,208785174,188519221,186487932,197518703,41310009,0,41211409,40001509,-4130111,10111009,40810109,11100009,20111009,11101909,20500009,21900509,40101319,11501809,20500719,11210919,40401509,11300519,0,40011419,10210619,11910619,20211419,41510409,10310419,21912009,30411019,30400909,0,41301809,11011919,10100319,32000719,41401509,0,31301519
26,287,510.198500007391,1,0,596764.944042939,596765.991091894,12,1,1,26,3,31322128,0,3200131,20311019,0,0,0,0,0,0,20511309,10810819,0,0,0,0,0,0,0,0,0,0,0,0,0,0,0,0,0,-3200131,0,20311019,0,0,0,0,0,0,0,0
26,288,748.75549133867,0,0,596767.614714114,596768.661642575,12,0,0,12,31,260537211,178817774,165359293,207640202,42000809,11600609,41601409,21610019,31201719,40510409,30300309,11711209,30000719,10911619,10611119,-1060161,11800209,41801519,0,30610609,40911019,31111519,40812009,0,10711219,20912009,20900309,20011309,0,30311119,21701319,30611719,10701319,20710909,11300309,0,40401509,40900509,21212009,31801919
26,289,695.232238038443,0,0,596770.43808834,596771.485138835,12,1,0,3,3,1041151,21901219,20611509,41501909,0,0,-1041151,0,0,0,0,0,0,0,0,0,21901219,0,0,0,0,0,20611509,0,0,0,0,0,0,0,0,0,0,0,0,0,0,0,0,41501909
26,290,676.513439277187,1,0,596773.308659732,596774.355700603,12,0,1,28,3,0,40511019,40820738,4011181,0,0,0,0,0,0,0,0,0,0,0,0,0,0,0,40511019,0,0,20310219,0,0,20510519,0,0,0,0,0,-4011181,0,0,0,0,0,0,0,0
26,291,737.013366888277,0,0,596776.132154837,596777.179195323,12,0,0,30,9,72310918,12001409,154733285,23131010,0,0,0,0,0,31000009,0,41310909,0,0,0,0,0,0,0,0,12001409,0,31311319,0,20110119,0,0,40800209,0,30510419,32001219,21110909,0,-2020101,0,0,0,0,0,0
26,292,517.617496196181,1,0,596778.955646862,596780.002689273,12,0,1,35,3,0,51722928,31201909,1180061,0,0,0,0,0,0,0,0,0,0,0,11711609,0,0,40011319,0,0,0,0,0,31201909,0,0,0,0,0,0,0,0,0,0,0,0,0,-1180061,0
26,293,569.74872527644,0,0,596781.555615064,596782.602660169,12,0,0,15,19,61812938,86592028,126825373,166937803,0,0,0,40711819,0,0,21101119,0,0,0,0,0,0,0,-2060091,31810009,12010019,40711909,31700409,10101809,0,11410209,10000609,31210409,0,10700209,21701719,0,31512019,11201609,11200209,40910219,0,20311519,31701019,20101209
26,294,916.907086502761,1,0,596784.320295222,596785.367339172,12,1,1,13,0,0,0,0,0,0,0,0,0,0,0,0,0,0,0,0,0,-31111001,0,0,0,0,0,0,0,0,0,0,0,0,0,0,0,0,0,0,0,0,0,0,0
26,295,543.106629513204,1,0,596787.379079372,596788.426164128,12,0,1,4,0,0,0,0,0,0,0,0,-41900901,0,0,0,0,0,0,0,0,0,0,0,0,0,0,0,0,0,0,0,0,0,0,0,0,0,0,0,0,0,0,0,0
26,296,513.866422115825,1,0,596790.06139874,596791.108449235,12,0,1,27,19,146227794,41112428,75024248,238547412,12001019,0,21111119,31111619,0,0,20201509,40601619,21200909,0,0,0,0,0,11000619,0,30111809,0,0,0,20310919,0,0,30911309,0,20801919,-3000101,31911209,21110719,30801419,40710409,30900009,30210619,11201419,0,41701609
26,297,601.804547943175,0,0,596792.7084363,596793.755486795,12,1,0,29,3,10510919,31201319,31510819,4180130,0,0,0,0,0,0,0,0,10510919,0,0,31201319,0,0,0,0,0,0,0,0,0,31510819,0,0,0,0,0,0,-4180130,0,0,0,0,0,0,0
26,298,541.850497014821,1,0,596795.367229458,596796.414329613,12,1,1,11,31,216429513,168454923,218058032,238081151,30912019,31000519,31300919,40701309,31501909,10011519,41001319,0,0,20900219,-3120010,20000519,10711609,0,11200009,20701519,40610319,41210719,41811409,21810509,10111119,40711919,0,31200619,20401119,41611119,10400219,11110709,21301519,31811319,31011719,40112019,40410919,11711009,10510919,40101019
26,299,452.292834175751,1,0,596798.026021846,596799.073058867,12,1,1,21,19,105236555,174647174,95246727,74423046,0,11312009,0,20611209,0,30701519,10900209,0,31711609,31101309,30110319,0,40211809,0,0,21601519,10110709,41511509,0,30511809,-2020171,0,11411819,0,30301809,0,21001119,11001319,0,20410609,0,31811109,11200009,0,0,0
26,300,411.011386662722,1,0,596800.567215138,596801.614217512,12,0,1,23,9,10001319,73522427,66132237,53721638,0,10001319,0,0,0,0,0,0,0,0,11700409,21511809,40310209,0,0,0,0,0,11700919,10600209,0,0,-3131000,0,0,0,40700109,0,0,0,11711019,0,0,0,0,42010619
26,301,608.029775554314,0,0,596803.214198033,596804.261234284,12,1,0,24,9,30400319,21001909,84463087,114224366,0,30400319,0,0,0,0,0,0,0,0,0,0,0,0,0,0,21001909,0,41101309,0,0,0,10200709,-2150060,0,0,31011009,41711619,0,10901219,40601209,0,21010319,0,0,0
26,302,476.818791474216,1,0,596806.002413255,596807.049436032,12,0,1,18,19,96615565,110247735,85934546,105234555,0,20300409,11901009,31101009,11811619,0,21501519,0,0,11110519,0,20601309,31601709,31202009,0,11602009,0,-4130180,0,0,20511219,21911409,0,0,11811609,31700309,0,31411309,0,0,0,30500419,21200109,0,10711109,11411609
26,303,850.391350802965,0,0,596808.578840233,596809.625881874,12,1,0,7,9,24251260,32412528,145522855,40601119,0,0,0,0,0,21211219,-3040041,0,0,0,0,0,0,0,12000809,20411719,0,0,41600709,11511009,0,0,0,0,40700509,30510409,21200219,40601119,0,0,0,0,0,0,0,0
26,304,836.586982593872,0,0,596811.637629773,596812.684674493,12,1,0,33,31,178216592,125138664,308659751,260698733,10901909,11301109,0,41900709,30500109,10100819,21801519,20100309,31610109,0,20911619,11801109,0,0,40401909,11211909,20501309,20310809,31100419,41710019,42011419,20501519,40501419,32011419,40110509,30311919,30401109,31101519,21600619,40911909,20111519,31910219,-4050001,40410519,40401109,30201319
26,305,652.783584431745,0,0,596814.649357269,596815.696399294,12,1,0,1,31,207268023,270841122,158025603,197536532,-1050121,40000719,10211319,31001709,11500609,30800109,41201509,10900909,30601019,31701609,31001809,31101419,30110719,42001519,31610619,42011809,0,31301619,41401219,31601319,0,11210009,10210209,0,10700019,12000919,40901909,10011319,10200219,31901219,31500609,30501419,0,40411209,21310119,21700419
26,306,572.930439841002,0,0,596817.555207774,596818.602254419,12,1,0,32,9,31012518,61522618,52033727,55122868,0,0,0,0,0,0,20412009,0,10600509,20810709,0,40711909,0,0,0,0,0,0,0,30011709,0,0,11710509,0,0,10311509,0,11910719,0,40202019,0,-3010130,0,0,0,0
26,307,494.251309544779,1,0,596820.355206311,596821.413782703,12,0,1,16,31,206830292,148056153,260758541,188036993,30901519,10910809,30712009,30200209,10001709,41702009,0,12001819,40400209,11100819,21010219,11100409,31801209,40201209,0,-2040160,10000109,20802019,30810209,31911219,31400109,20311509,31400219,21811719,30911219,21002019,41200319,40111309,0,31600009,21611209,11001519,11110719,30700719,0,41901509
26,308,797.559874947183,0,0,596823.084553846,596824.131592792,12,0,0,5,3,3161041,42312428,11410209,0,0,0,0,0,-3161041,0,0,0,0,0,0,0,0,11412009,0,30900419,0,0,0,0,0,0,0,0,11410209,0,0,0,0,0,0,0,0,0,0,0
26,309,549.679478281178,0,0,596826.096285961,596827.143332222,12,1,0,17,19,74135036,200407334,126126065,112513737,0,0,10310509,11000509,0,0,0,11512009,41312009,21611919,21411119,30500919,32001809,0,32011009,30800209,-1170131,30900219,0,0,11400119,0,30801919,0,31411809,20501909,32010309,0,0,30901309,0,40910719,0,0,0,40701709
26,310,772.63394172769,1,0,596828.884487325,596829.931536279,12,0,1,31,9,40711119,92713147,90912337,65412938,0,0,0,0,0,40711119,0,0,0,0,0,0,41301419,0,10310719,0,41101009,0,0,0,20000819,30400709,0,40510809,0,0,0,0,0,0,-3001200,21010119,0,41401619,0,0
26,311,502.240941277705,1,0,596831.872685916,596832.919736411,12,1,1,4,19,148723796,188624993,134121466,114216156,0,41910809,30800609,-4001140,41710719,0,30300519,0,0,0,21100719,31110819,0,40410809,31401819,11400009,32000309,21200509,0,0,0,41500619,41400119,30510019,0,20710709,0,0,0,42001809,0,40611319,0,0,11001119,20601909
26,312,578.314139624126,0,0,596834.531487928,596835.578531109,12,0,0,22,31,204677512,239328132,197877423,230729112,0,30511309,12011109,10310609,40311619,40310819,40201219,10710809,20310019,11300919,20610219,31400609,41901809,41501419,20800819,30400919,0,41411419,0,41810909,31010709,-1041050,40110919,10700909,31600209,31300709,10302009,41901609,31001309,21400719,20701009,21401419,0,41311009,21810719,31201319
26,313,670.798671781085,1,0,596857.848865595,596858.89591609,13,0,1,31,9,113522847,71923747,71510718,33650469,0,40911419,30610119,0,42001309,0,0,0,0,20000719,11011619,40911409,0,0,0,0,0,0,0,0,30400209,0,0,0,0,0,41110509,0,0,0,-3050060,0,0,30600409,0,0
26,314,537.209774716757,0,0,596860.754745742,596861.801770444,13,1,0,26,3,31322128,0,3200131,20311019,0,0,0,0,0,0,20511309,10810819,0,0,0,0,0,0,0,0,0,0,0,0,0,0,0,0,0,-3200131,0,20311019,0,0,0,0,0,0,0,0
26,315,554.371785488911,0,0,596863.425068137,596864.472318431,13,0,0,23,31,239556831,218158192,235506333,195445893,11210609,31601109,11100819,31110419,30911119,31111719,41400719,30710209,20400109,22000319,0,20910819,10901909,40711009,11010209,41002009,30910709,40711209,40210309,31101419,40010219,40010719,-1150020,21611819,0,40801519,20610309,0,10000609,30610609,41110109,40801719,20300819,31810509,0,20811519
26,316,460.126435034908,1,0,596866.201726405,596867.248762271,13,0,1,18,19,145435056,75504548,103916555,225630033,0,40412009,22011019,41011609,0,0,42000419,0,0,0,30500309,0,0,0,0,30101109,11902019,-3001111,10512009,0,0,0,40801809,0,21100309,21300409,10202019,32001619,0,40801919,30901619,20500919,40810819,0,30011319,30601819
26,317,457.518314477056,1,0,596868.91933605,596869.96638,13,0,1,15,31,248838841,243798204,289038632,183876493,31410409,31800109,40911519,11701219,10701119,20000309,41101019,40511319,20701819,42011919,41901019,31101019,31410409,40700419,-3160191,42011619,0,11501609,31611219,30511719,41411119,42001519,31300719,0,40700009,30000619,41501709,40910209,30010219,0,11111419,10411709,30011809,0,21011119,40410009
26,318,585.342398961075,0,0,596871.472252602,596872.519286543,13,0,0,27,3,42911818,0,4180051,21501119,11411109,0,0,0,31500709,0,0,0,0,0,0,0,0,0,0,0,0,0,0,0,0,0,0,0,0,0,-4180051,0,0,0,0,21501119,0,0,0,0
26,319,598.590496461838,0,0,596874.272217263,596875.319266602,13,1,0,3,3,1041151,21901219,20611509,41501909,0,0,-1041151,0,0,0,0,0,0,0,0,0,21901219,0,0,0,0,0,20611509,0,0,0,0,0,0,0,0,0,0,0,0,0,0,0,0,41501909
26,320,491.233710199595,0,0,596876.954547409,596878.001580966,13,0,0,22,9,52213138,51902218,22671120,95616566,0,0,0,0,11101819,41111319,0,0,0,0,0,40901409,0,0,0,11000809,0,0,0,0,20510109,-2161011,0,0,0,0,0,10501109,0,41811919,0,21301619,0,0,0,22001919
26,321,731.191194965504,0,0,596879.613335948,596880.660377204,13,0,0,30,19,196546854,135155284,145946175,53653209,0,31501509,40511209,0,31611309,40710909,0,21901209,30310709,31100519,10710709,40611319,10711209,0,31210819,0,0,10810709,11011609,42012019,0,30810819,30401519,0,31710209,0,0,0,31211819,-2131081,0,20310309,0,0,0,0
26,322,1026.28030604683,0,0,596882.554477115,596883.601524145,13,0,0,35,9,40210609,43811828,102532166,47194449,0,0,0,0,0,40210609,0,0,0,32010009,0,0,11801819,0,0,0,0,0,30500509,40010419,0,0,0,0,20310419,0,11710819,0,0,11701309,0,0,0,31402009,-4091131,0
26,323,550.442473730072,1,0,596885.825030645,596886.87207575,13,0,1,16,3,41511418,1160200,30210819,0,0,0,0,21301109,0,20210309,0,0,0,0,0,0,0,0,0,-1160200,0,0,0,0,0,0,0,0,0,0,30210819,0,0,0,0,0,0,0,0,0
26,324,544.829336344264,1,0,596888.483832272,596889.530912024,13,1,1,11,31,216429513,168454923,218058032,238081151,30912019,31000519,31300919,40701309,31501909,10011519,41001319,0,0,20900219,-3120010,20000519,10711609,0,11200009,20701519,40610319,41210719,41811409,21810509,10111119,40711919,0,31200619,20401119,41611119,10400219,11110709,21301519,31811319,31011719,40112019,40410919,11711009,10510919,40101019
26,325,721.060138312168,0,0,596891.201448077,596892.248483558,13,0,0,5,31,200936764,217247232,134457173,239840731,11601219,21600109,0,41100419,-4191151,30010419,40710619,10010919,41711909,21300719,10212019,21410319,31900519,21010419,40410819,30101509,0,40900909,10010209,21401509,10011309,0,40710709,0,11701919,20110909,20510609,30700009,30011119,31611619,21301719,21401809,11700409,31911619,30602019,30600409
26,326,707.234982168302,0,0,596894.154357931,596895.201399572,13,1,0,33,31,178216592,125138664,308659751,260698733,10901909,11301109,0,41900709,30500109,10100819,21801519,20100309,31610109,0,20911619,11801109,0,0,40401909,11211909,20501309,20310809,31100419,41710019,42011419,20501519,40501419,32011419,40110509,30311919,30401109,31101519,21600619,40911909,20111519,31910219,-4050001,40410519,40401109,30201319
26,327,555.121692363173,1,0,596897.001431215,596898.048419346,13,0,1,21,0,0,0,0,0,0,0,0,0,0,0,0,0,0,0,0,0,0,0,0,0,0,0,0,0,-20202001,0,0,0,0,0,0,0,0,0,0,0,0,0,0,0
26,328,535.309215192683,1,0,596899.801356225,596900.848392861,13,1,1,4,19,148723796,188624993,134121466,114216156,0,41910809,30800609,-4001140,41710719,0,30300519,0,0,0,21100719,31110819,0,40410809,31401819,11400009,32000309,21200509,0,0,0,41500619,41400119,30510019,0,20710709,0,0,0,42001809,0,40611319,0,0,11001119,20601909
26,329,633.938902872615,0,0,596902.589553353,596903.636596534,13,0,0,28,3,21810409,40100209,0,44960309,0,0,0,0,21810409,0,0,0,0,40100209,0,0,0,0,0,0,0,0,0,0,0,0,0,0,0,0,0,-4060190,0,0,0,0,0,40900119,0,0
26,330,681.729295407422,1,0,596905.47186918,596906.518920829,13,1,1,32,9,31012518,61522618,52033727,55122868,0,0,0,0,0,0,20412009,0,10600509,20810709,0,40711909,0,0,0,0,0,0,0,30011709,0,0,11710509,0,0,10311509,0,11910719,0,40202019,0,-3010130,0,0,0,0
26,331,494.216399150901,1,0,596908.354200789,596909.40124012,13,1,1,13,0,0,0,0,0,0,0,0,0,0,0,0,0,0,0,0,0,-31111001,0,0,0,0,0,0,0,0,0,0,0,0,0,0,0,0,0,0,0,0,0,0,0
26,332,791.120223235339,0,0,596911.001231035,596912.048271136,13,1,0,1,31,207268023,270841122,158025603,197536532,-1050121,40000719,10211319,31001709,11500609,30800109,41201509,10900909,30601019,31701609,31001809,31101419,30110719,42001519,31610619,42011809,0,31301619,41401219,31601319,0,11210009,10210209,0,10700019,12000919,40901909,10011319,10200219,31901219,31500609,30501419,0,40411209,21310119,21700419
26,333,621.347166365013,0,0,596913.848259664,596914.895299765,13,1,0,29,3,10510919,31201319,31510819,4180130,0,0,0,0,0,0,0,0,10510919,0,0,31201319,0,0,0,0,0,0,0,0,0,31510819,0,0,0,0,0,0,-4180130,0,0,0,0,0,0,0
26,334,546.712957671843,1,0,596916.530575952,596917.577623367,13,0,1,12,19,105022446,122938574,114122456,104433575,10710209,0,30500309,0,42000919,21811009,0,0,0,21910309,22001919,-4091180,22010819,11211519,11301909,0,30410919,0,31710119,0,20600419,40811309,0,0,0,0,21000609,11400319,0,0,20210109,0,0,11610219,40401609,20811319
26,335,514.56782373134,1,0,596919.165842131,596920.212890315,13,1,1,17,19,74135036,200407334,126126065,112513737,0,0,10310509,11000509,0,0,0,11512009,41312009,21611919,21411119,30500919,32001809,0,32011009,30800209,-1170131,30900219,0,0,11400119,0,30801919,0,31411809,20501909,32010309,0,0,30901309,0,40910719,0,0,0,40701709
26,336,481.164632481523,1,0,596921.895227392,596922.942273652,13,1,1,24,9,30400319,21001909,84463087,114224366,0,30400319,0,0,0,0,0,0,0,0,0,0,0,0,0,0,21001909,0,41101309,0,0,0,10200709,-2150060,0,0,31011009,41711619,0,10901219,40601209,0,21010319,0,0,0
26,337,676.009138580412,1,0,596924.542274576,596925.589298893,13,1,1,7,9,24251260,32412528,145522855,40601119,0,0,0,0,0,21211219,-3040041,0,0,0,0,0,0,0,12000809,20411719,0,0,41600709,11511009,0,0,0,0,40700509,30510409,21200219,40601119,0,0,0,0,0,0,0,0
26,338,517.528184922412,0,0,596927.412814016,596928.459852577,13,1,0,21,19,105236555,174647174,95246727,74423046,0,11312009,0,20611209,0,30701519,10900209,0,31711609,31101309,30110319,0,40211809,0,0,21601519,10110709,41511509,0,30511809,-2020171,0,11411819,0,30301809,0,21001119,11001319,0,20410609,0,31811109,11200009,0,0,0
26,339,502.146240556613,1,0,596953.777227164,596954.824276504,14,0,1,16,19,21300409,148295956,250457221,115223946,0,0,0,21300409,0,0,0,0,0,0,31300609,0,40300819,0,31311219,-3171171,31101619,11110519,31601509,11600919,31510319,10201419,31410209,31210109,41310309,30510419,31102009,40611009,0,0,0,11101519,0,0,32010809,31500609
26,340,614.361252868548,0,0,596956.494858367,596957.541899237,14,1,0,3,3,1041151,21901219,20611509,41501909,0,0,-1041151,0,0,0,0,0,0,0,0,0,21901219,0,0,0,0,0,20611509,0,0,0,0,0,0,0,0,0,0,0,0,0,0,0,0,41501909
26,341,722.282779053785,0,0,596959.341884301,596960.388924017,14,0,0,27,3,0,20000409,14451660,10200219,0,0,0,0,0,0,0,0,0,0,0,0,0,20000409,0,0,0,0,0,0,0,0,0,10411609,0,0,-4040051,0,0,0,10200219,0,0,0,0,0
26,342,496.57968361862,0,0,596962.212473016,596963.25947924,14,1,0,21,19,105236555,174647174,95246727,74423046,0,11312009,0,20611209,0,30701519,10900209,0,31711609,31101309,30110319,0,40211809,0,0,21601519,10110709,41511509,0,30511809,-2020171,0,11411819,0,30301809,0,21001119,11001319,0,20410609,0,31811109,11200009,0,0,0
26,343,655.092974076979,0,0,596964.835940096,596965.882984816,14,0,0,5,9,74091609,10310509,94812866,32512118,0,41610319,0,0,-2081071,0,0,30400219,0,0,0,10310509,0,0,0,0,0,0,20600019,20800419,0,11911719,0,41500709,0,0,0,0,0,0,0,0,11511309,0,21000809,0
26,344,880.444598733447,1,0,596967.694729712,596968.741779052,14,1,1,26,3,31322128,0,3200131,20311019,0,0,0,0,0,0,20511309,10810819,0,0,0,0,0,0,0,0,0,0,0,0,0,0,0,0,0,-3200131,0,20311019,0,0,0,0,0,0,0,0
26,345,879.627708462067,0,0,596970.659406713,596971.706451819,14,1,0,24,9,30400319,21001909,84463087,114224366,0,30400319,0,0,0,0,0,0,0,0,0,0,0,0,0,0,21001909,0,41101309,0,0,0,10200709,-2150060,0,0,31011009,41711619,0,10901219,40601209,0,21010319,0,0,0
26,346,484.302461380139,0,0,596973.694673508,596974.741708989,14,0,0,23,9,61612418,82903457,1160181,86711266,0,0,0,0,20200609,41411809,0,0,0,0,11400719,0,0,0,30301519,41201219,0,0,0,0,0,0,-1160181,0,0,0,0,21300119,0,0,21900019,0,11800209,0,0,31710919
26,347,627.955431700684,1,0,596976.365269614,596977.4123101,14,0,1,35,31,249738331,147436203,196669512,230678824,41601009,10811419,20000119,41811409,20612009,41400719,10300119,41901219,21300309,0,10910509,0,11010109,31900509,21601419,20412019,41400219,10201419,41600009,40611909,10111919,10411419,30911809,0,31100919,21710209,10211319,30601219,40812019,41701909,11800619,31010719,30900819,40800409,-3051111,0
26,348,716.745094279759,0,0,596979.165186539,596980.212240114,14,1,0,11,31,216429513,168454923,218058032,238081151,30912019,31000519,31300919,40701309,31501909,10011519,41001319,0,0,20900219,-3120010,20000519,10711609,0,11200009,20701519,40610319,41210719,41811409,21810509,10111119,40711919,0,31200619,20401119,41611119,10400219,11110709,21301519,31811319,31011719,40112019,40410919,11711009,10510919,40101019
