sub_id,Trial,RT,Resp,Error,Fix_onset,Disp_onset,block,repeat,tid,tloc,d_setsize,quad1,quad2,quad3,quad4,loc1,loc2,loc3,loc4,loc5,loc6,loc7,loc8,loc9,loc10,loc11,loc12,loc13,loc14,loc15,loc16,loc17,loc18,loc19,loc20,loc21,loc22,loc23,loc24,loc25,loc26,loc27,loc28,loc29,loc30,loc31,loc32,loc33,loc34,loc35,loc36
24,1,1757.6646655798,0,0,426785.808738276,426786.855778377,1,0,0,20,19,127445375,265759512,54342968,145123756,21410919,11510719,30911809,0,21600619,0,42011309,0,0,40711809,40110309,0,41601309,10210809,30912019,41101719,20010619,41100919,0,-3131040,10701609,0,0,0,40510319,0,0,0,40600609,0,41910619,0,31702019,30910509,0,0
24,2,525.459169526584,0,0,426789.749840177,426790.796869499,1,0,0,8,9,57313728,11510209,82723628,75124666,0,0,41302009,0,11901609,0,0,-4110110,0,0,0,0,0,0,0,0,0,11510209,41111809,0,0,0,0,0,0,41611819,0,10501019,31410319,0,11211509,22001819,0,0,0,0
24,3,608.329649723601,0,0,426792.338007356,426793.385044377,1,0,0,35,31,224578622,158144612,195649782,195997524,10611009,40111719,0,40410319,41310719,10100619,31011209,10611319,40411709,20900919,20600219,10711009,41500219,11410419,10900109,0,31310509,10811209,21300809,0,21711609,40901509,20201809,20111809,31310409,20100919,20010909,30800019,41011119,0,20201209,30200919,40200319,11601409,-1171121,20811409
24,4,355.117908038665,1,0,426795.13798549,426796.18497593,1,1,1,10,0,0,0,0,0,0,0,0,0,0,0,0,0,0,-20811691,0,0,0,0,0,0,0,0,0,0,0,0,0,0,0,0,0,0,0,0,0,0,0,0,0,0
24,5,470.592012396082,1,0,426797.608473884,426798.655517449,1,1,1,4,31,120017984,231129031,197857093,188037412,10311309,11210719,11900809,-2060091,0,10001309,31910819,21511219,21111709,12001819,31401009,31400319,21300009,10411119,20600019,22011909,41801419,40201409,40411319,0,11311219,31201009,0,10800209,31311609,41910019,30911709,10800109,20800309,40300509,20411819,11301719,0,21701119,31910419,30811409
24,6,527.21998776542,1,0,426800.326058891,426801.373093218,1,1,1,33,19,150755493,94515156,123303865,77203017,30900409,21910109,12010819,12012009,0,11911209,20300919,0,41710019,40400819,11501519,0,11600809,31012009,0,0,0,0,20400409,0,21600519,20200419,21101209,0,40001309,0,0,22000719,0,0,0,32001009,-1200180,22001109,0,0
24,7,478.809035732411,0,0,426803.10246847,426804.149508571,1,1,0,24,3,21201909,20400909,2190010,20001509,0,0,0,0,0,0,0,0,21201909,0,20400909,0,0,0,0,0,0,0,0,0,0,0,0,-2190010,0,0,0,20001509,0,0,0,0,0,0,0,0
24,8,738.536266726442,1,0,426805.690639883,426806.73767036,1,0,1,1,9,54452418,82013638,81612128,61410228,-1040181,0,0,11011609,0,0,21300209,21100419,0,0,0,0,41211819,0,0,40801819,0,0,40111109,41501019,0,0,0,0,0,0,0,40900219,0,0,0,20510009,0,0,0,0
24,9,528.562351770233,0,0,426808.596463826,426809.643479289,1,0,0,30,3,40500609,41722018,0,1171160,40500609,0,0,0,0,0,0,0,0,21611809,20110209,0,0,0,0,0,0,0,0,0,0,0,0,0,0,0,0,0,0,-1171160,0,0,0,0,0,0
24,10,390.008594084065,0,0,426811.26697986,426812.314004947,1,0,0,28,3,10701609,60511618,0,4171121,0,0,10701609,0,0,0,0,0,0,0,0,30411209,0,0,0,0,0,30100409,0,0,0,0,0,0,0,0,0,-4171121,0,0,0,0,0,0,0,0
24,11,448.169104987755,0,0,426813.761042969,426814.808068057,1,0,0,22,9,21900709,64033157,54343767,52511928,0,0,0,0,0,0,0,0,21900709,0,0,11310719,0,11911819,0,0,40810619,0,0,11510009,0,-2021020,30301419,10511319,0,0,0,0,0,0,41011919,0,0,11500009,0,0
24,12,550.264994497411,1,0,426816.372744442,426817.419767989,1,1,1,26,19,73620528,226844084,167993086,188448304,0,0,0,0,0,0,0,31710219,41910309,40710809,20210119,41802019,41810309,40300009,0,0,42010819,0,31800009,41911019,0,21600219,31201519,0,40310309,-1170011,0,0,40301319,42010519,22010619,41812019,31101909,11211919,0,0
24,13,387.172190763522,0,0,426819.019735806,426820.066772442,1,1,0,19,9,83813557,62321628,13810359,94813637,11600419,0,0,0,0,0,40312019,31901119,0,41011109,0,0,0,0,0,0,0,21310519,-3000050,0,0,0,0,0,0,0,10810309,0,0,21400609,0,31801409,0,0,41611619,0
24,14,440.808238112368,1,0,426821.549089962,426822.596121594,1,0,1,8,0,0,0,0,0,0,0,0,0,0,0,0,-30111591,0,0,0,0,0,0,0,0,0,0,0,0,0,0,0,0,0,0,0,0,0,0,0,0,0,0,0,0
24,15,564.509374788031,0,0,426824.231380843,426825.27841517,1,0,0,25,19,163534875,143036204,78096047,103623036,20501219,0,0,30710109,31010509,0,41301219,40011819,0,0,20200819,10511419,30811419,0,0,11100619,40000719,30411209,11711409,0,0,31801509,10901809,0,-2170201,21511119,0,0,0,22000109,30400109,0,41011709,10211109,0,0
24,16,531.825293495785,1,0,426826.937207173,426827.984281535,1,0,1,6,19,97656126,93424446,105447165,205146274,12000819,41301019,0,10101609,31101609,-3151070,0,0,0,41211209,10311109,0,0,20801819,0,0,0,21100309,0,0,41711519,0,10511409,20511519,0,21211309,11501409,31511809,41111019,0,0,40100419,40810509,30510509,21102009,0
24,17,467.193563934416,1,0,426829.607721282,426830.654755994,1,1,1,29,3,32010409,30900719,10200819,3080110,0,0,0,0,0,0,32010409,0,0,0,0,0,0,30900719,0,0,0,0,0,0,10200819,0,0,0,0,0,0,0,-3080110,0,0,0,0,0,0,0
24,18,407.740734168328,0,0,426832.125311371,426833.172338383,1,0,0,12,3,20910919,35601899,41700619,0,0,20910919,0,0,0,0,0,0,0,0,0,-4200180,0,0,31401719,0,0,0,0,0,0,0,0,0,0,0,41700619,0,0,0,0,0,0,0,0,0
24,19,463.368192140479,0,0,426834.760549063,426835.807576075,1,0,0,34,31,216959092,248657622,256828612,259529313,10011219,21811209,40001609,40200419,21401209,31810209,40411809,0,11311409,21410119,0,31612019,40000209,41700719,40810319,31711109,20001519,21411609,40900819,41100509,31501419,20701709,20601819,30610019,0,40810809,30601509,40801609,31101219,41811419,40712019,31700519,40600419,-2000190,0,30801919
24,20,518.166056019254,0,0,426837.39577867,426838.442805682,1,0,0,5,31,179726244,245356002,177248922,209328022,30600509,11312009,10610309,21110319,-2180061,20411809,41700209,0,41801019,10310719,40010009,0,10311219,31300409,40201719,41400609,40910209,30911109,41301319,30610519,0,21211219,10801419,10310709,30711409,21701009,10601319,21001519,40500519,41311219,0,31611419,21500709,31900609,10100409,11401619
24,21,363.618263741955,0,0,426840.066313952,426841.113330955,1,1,0,7,3,45740059,0,42000319,11601909,0,0,41710019,0,0,0,-4030040,0,0,0,0,0,0,0,0,0,0,0,0,0,0,0,0,42000319,0,0,0,11601909,0,0,0,0,0,0,0,0
24,22,388.346711231861,1,0,426842.548599905,426843.595623838,1,1,1,11,31,230750221,171700204,205039393,196248412,20701809,20811119,42000419,40602019,11011709,41301009,11311409,11010009,32000719,11212019,-3071001,11601009,40501809,0,10600819,42011519,21601609,31100419,21110809,40101509,0,30411919,20810709,41900409,0,40202019,10502019,40210009,11311909,0,20810409,40412019,11101919,21800119,40301209,10300819
24,23,391.266266349703,1,0,426844.995597891,426846.042624903,1,1,1,14,9,52733737,83834907,31111819,42212018,10411709,0,0,0,10610619,0,31711409,0,0,0,21501909,0,0,-1031160,0,0,40300119,21001719,0,0,0,31111819,0,0,0,0,0,0,31602009,0,0,0,0,10610009,0,0
24,24,508.705988992006,1,0,426847.513189135,426848.560210757,1,1,1,36,9,91832637,30211709,113914956,35761210,0,0,40610609,0,0,40410219,10811809,0,0,0,0,0,0,0,0,30211709,0,0,21901209,30701909,0,0,0,0,30011719,0,31300119,0,0,31711019,0,0,0,0,0,-4050191
24,25,361.104074050672,1,0,426850.230770678,426851.27779461,1,1,1,9,19,186086755,144125964,94833166,53003747,0,0,30310919,21010009,40201609,21311909,41110419,31111709,-1030181,20900909,10200519,42010909,30100709,0,0,10211009,30701909,0,10000019,31710509,0,0,11111819,42010819,0,0,0,10200809,0,20801719,0,0,0,0,22001219,0
24,26,424.938546377234,1,0,426852.819029862,426853.866012603,1,1,1,3,31,168635923,237536041,147470002,229950293,20201209,31601409,-3030040,0,30401319,20401109,21900709,30600109,10500019,40200219,21210409,10500719,30810319,10100119,20100419,31810509,31101519,41701809,22011619,21101609,20701609,11710209,10711009,0,30110419,20911709,10211819,31601709,41001719,30911509,40701719,0,0,12010909,31911319,41811409
24,27,392.75106653804,1,0,426863.748087058,426864.795124079,2,1,1,14,9,52733737,83834907,31111819,42212018,10411709,0,0,0,10610619,0,31711409,0,0,0,21501909,0,0,-1031160,0,0,40300119,21001719,0,0,0,31111819,0,0,0,0,0,0,31602009,0,0,0,0,10610009,0,0
24,28,438.284809293691,1,0,426866.277453918,426867.324479005,2,0,1,28,3,0,41510119,0,42631778,0,0,0,0,0,0,0,0,0,0,0,0,41510119,0,0,0,0,0,0,0,0,0,0,0,0,0,0,-1120150,0,0,0,30800219,0,0,10711409,0
24,29,500.552484416403,0,0,426868.842096427,426869.889125364,2,0,0,6,9,86083938,42711818,53023037,12011209,0,0,31400819,31901519,21701519,-1080081,0,0,0,0,21311609,0,0,0,0,21400209,0,0,20011819,0,0,0,0,11311109,21700109,0,0,0,0,0,0,0,0,0,12011209,0
24,30,470.175098045729,0,0,426871.512619391,426872.559652562,2,1,0,11,31,230750221,171700204,205039393,196248412,20701809,20811119,42000419,40602019,11011709,41301009,11311409,11010009,32000719,11212019,-3071001,11601009,40501809,0,10600819,42011519,21601609,31100419,21110809,40101509,0,30411919,20810709,41900409,0,40202019,10502019,40210009,11311909,0,20810409,40412019,11101919,21800119,40301209,10300819
24,31,345.838388311677,1,1,426874.147881334,426875.194886404,2,1,0,24,3,21201909,20400909,2190010,20001509,0,0,0,0,0,0,0,0,21201909,0,20400909,0,0,0,0,0,0,0,0,0,0,0,0,-2190010,0,0,0,20001509,0,0,0,0,0,0,0,0
24,32,393.065195879899,0,0,426876.71250036,426877.759529297,2,1,0,4,31,120017984,231129031,197857093,188037412,10311309,11210719,11900809,-2060091,0,10001309,31910819,21511219,21111709,12001819,31401009,31400319,21300009,10411119,20600019,22011909,41801419,40201409,40411319,0,11311219,31201009,0,10800209,31311609,41910019,30911709,10800109,20800309,40300509,20411819,11301719,0,21701119,31910419,30811409
24,33,381.705339124892,0,0,426879.28891656,426880.335933563,2,1,0,10,0,0,0,0,0,0,0,0,0,0,0,0,0,0,-20811691,0,0,0,0,0,0,0,0,0,0,0,0,0,0,0,0,0,0,0,0,0,0,0,0,0,0
24,34,395.600943476893,0,0,426881.771201743,426882.818235685,2,1,0,3,31,168635923,237536041,147470002,229950293,20201209,31601409,-3030040,0,30401319,20401109,21900709,30600109,10500019,40200219,21210409,10500719,30810319,10100119,20100419,31810509,31101519,41701809,22011619,21101609,20701609,11710209,10711009,0,30110419,20911709,10211819,31601709,41001719,30911509,40701719,0,0,12010909,31911319,41811409
24,35,488.614799047355,0,0,426884.371138763,426885.418176554,2,1,0,29,3,32010409,30900719,10200819,3080110,0,0,0,0,0,0,32010409,0,0,0,0,0,0,30900719,0,0,0,0,0,0,10200819,0,0,0,0,0,0,0,-3080110,0,0,0,0,0,0,0
24,36,335.639193363022,0,0,426887.018140907,426888.065171384,2,1,0,9,19,186086755,144125964,94833166,53003747,0,0,30310919,21010009,40201609,21311909,41110419,31111709,-1030181,20900909,10200519,42010909,30100709,0,0,10211009,30701909,0,10000019,31710509,0,0,11111819,42010819,0,0,0,10200809,0,20801719,0,0,0,0,22001219,0
24,37,527.355109574273,1,0,426889.547493138,426890.594513221,2,0,1,35,31,277764332,210736292,259151302,165984814,30810509,31300419,41210519,30700519,40011809,31610119,0,31810119,40310319,40500119,0,31410309,21810209,12000009,10800919,31601709,40801609,21811409,41112009,0,30701609,20912019,40011919,32000509,30600809,22010709,41801719,30701109,20200309,20710209,20010309,40310509,0,11811209,-2031051,20210109
24,38,387.903619441204,0,0,426892.229784404,426893.276832589,2,1,0,19,9,83813557,62321628,13810359,94813637,11600419,0,0,0,0,0,40312019,31901119,0,41011109,0,0,0,0,0,0,0,21310519,-3000050,0,0,0,0,0,0,0,10810309,0,0,21400609,0,31801409,0,0,41611619,0
24,39,467.551963985898,0,0,426894.817951967,426895.864984369,2,0,0,1,31,211920403,165517993,238347212,267858812,-4200071,20901319,21901319,21101919,21001409,30701409,20610319,40501419,31001219,30401509,10911619,0,10301309,41000109,0,21501609,41300419,10101419,40911219,41601209,0,20400709,31711409,20000009,31100819,30610719,22011119,31202009,41012009,0,31710019,20510219,41501909,20301719,41110209,40510719
24,40,414.286250597797,0,0,426897.441418662,426898.488445674,2,0,0,8,19,108924165,147157174,132222756,72325356,0,31511909,21810019,0,10110819,21810819,21500509,-2180090,0,30511709,40311209,0,10710409,0,21801909,32011519,11810419,0,30010519,0,30610209,0,0,40600519,31001509,0,0,0,20711419,0,10301709,0,0,10310309,0,31001919
24,41,502.100033452734,1,0,426900.041367231,426901.088391933,2,0,1,34,31,240255622,178728213,259439941,108236903,30911819,40010119,21610419,21500709,0,21210709,41600309,41401419,22010119,10901109,30811219,31901619,31211519,0,41801519,20200709,11900519,0,41712009,31712019,21001309,31400509,10200619,31210119,41001819,40101119,11100419,10701719,20111219,10100909,20910119,11910919,20600109,-2090100,11811809,0
24,42,437.90754606016,1,0,426902.676594143,426903.723619615,2,1,1,7,3,45740059,0,42000319,11601909,0,0,41710019,0,0,0,-4030040,0,0,0,0,0,0,0,0,0,0,0,0,0,0,0,0,42000319,0,0,0,11601909,0,0,0,0,0,0,0,0
24,43,432.896874903236,0,0,426905.323589742,426906.370731858,2,0,0,30,9,52311527,42102728,54423347,24801720,0,20610209,0,0,0,21001309,10700009,0,0,11401319,0,0,0,0,30701409,0,0,0,0,11610619,0,0,0,31601419,0,11211309,0,0,0,-3090201,0,0,0,0,0,21711519
24,44,341.777034569532,1,0,426907.86471066,426908.911738058,2,0,1,22,9,71612447,70712418,44920860,43101447,11301519,0,0,0,0,0,20000109,40310819,0,0,30411409,0,0,0,0,40301009,0,0,0,40800709,0,-4120151,0,0,0,0,0,12000509,20100419,0,0,0,0,11000519,0,0
24,45,415.21785967052,1,0,426910.335229852,426911.382259943,2,0,1,5,19,127615476,111626156,197036922,82831937,0,30911309,21510409,41002019,-4090120,0,0,30101619,0,10911509,0,0,30101209,0,0,40212019,0,30401419,41200019,20811419,10601909,20710419,0,42000419,30601909,10500819,20610009,0,30710119,10111709,0,0,0,0,42010109,0
24,46,420.707424113061,1,0,426913.005759745,426914.052785602,2,0,1,25,3,83622738,11710219,2060060,0,0,0,0,0,41911319,41711419,0,0,0,11710219,0,0,0,0,0,0,0,0,0,0,0,0,0,0,-2060060,0,0,0,0,0,0,0,0,0,0,0
24,47,472.101450141054,1,0,426915.617464682,426916.664492849,2,1,1,33,19,150755493,94515156,123303865,77203017,30900409,21910109,12010819,12012009,0,11911209,20300919,0,41710019,40400819,11501519,0,11600809,31012009,0,0,0,0,20400409,0,21600519,20200419,21101209,0,40001309,0,0,22000719,0,0,0,32001009,-1200180,22001109,0,0
24,48,463.665768096689,0,0,426918.205633785,426919.252725086,2,1,0,36,9,91832637,30211709,113914956,35761210,0,0,40610609,0,0,40410219,10811809,0,0,0,0,0,0,0,0,30211709,0,0,21901209,30701909,0,0,0,0,30011719,0,31300119,0,0,31711019,0,0,0,0,0,-4050191
24,49,439.30303491652,1,0,426920.876167528,426921.92319069,2,0,1,1,0,0,0,0,0,-21810401,0,0,0,0,0,0,0,0,0,0,0,0,0,0,0,0,0,0,0,0,0,0,0,0,0,0,0,0,0,0,0,0,0,0,0
24,50,367.25269415183,1,0,426923.476097619,426924.52313541,2,0,1,12,3,0,54421498,40511419,0,0,0,0,0,0,0,0,0,0,0,0,-2000070,0,0,21011009,0,31410419,0,0,0,0,0,0,0,0,0,40511419,0,0,0,0,0,0,0,0,0
24,51,499.17200912023,1,0,426925.993689247,426927.040714335,2,1,1,26,19,73620528,226844084,167993086,188448304,0,0,0,0,0,0,0,31710219,41910309,40710809,20210119,41802019,41810309,40300009,0,0,42010819,0,31800009,41911019,0,21600219,31201519,0,40310309,-1170011,0,0,40301319,42010519,22010619,41812019,31101909,11211919,0,0
24,52,360.834600345697,0,1,426928.652442754,426929.699565622,2,0,1,20,19,145335165,114634546,165154776,148248074,0,30010119,0,21910809,40501209,0,31011509,21901519,0,20111309,0,31201009,22011819,0,0,0,41310409,0,0,-3120030,0,0,40010309,41311909,0,40700819,40011709,32011409,12011819,41311119,0,0,0,10210909,41201909,11500909
24,53,515.789682860486,1,0,426946.487315809,426947.534417504,3,0,1,1,9,86232566,54834257,32113128,0,-4021010,10200019,0,0,0,40000219,20301009,0,11710309,0,0,0,0,21910819,21411719,0,11511719,0,0,11311909,20801219,0,0,0,0,0,0,0,0,0,0,0,0,0,0,0
24,54,476.202070072759,0,0,426949.146082405,426950.193115961,3,0,0,35,31,208533873,236837231,234849692,176797934,0,40800409,21500109,20910209,0,31910009,31611309,31200619,30601209,31501409,10201309,40000019,30710419,21001509,10511709,30600719,30300119,32010019,20401909,20901319,0,20511809,10410509,40811419,40310209,40101509,41401009,20411519,30500609,0,10911019,40910109,40201809,11400809,-1160041,21302019
24,55,501.266589795705,0,0,426951.80485285,426952.851874088,3,1,0,26,19,73620528,226844084,167993086,188448304,0,0,0,0,0,0,0,31710219,41910309,40710809,20210119,41802019,41810309,40300009,0,0,42010819,0,31800009,41911019,0,21600219,31201519,0,40310309,-1170011,0,0,40301319,42010519,22010619,41812019,31101909,11211919,0,0
24,56,353.474888310302,1,0,426954.404779476,426955.451807258,3,1,1,29,3,32010409,30900719,10200819,3080110,0,0,0,0,0,0,32010409,0,0,0,0,0,0,30900719,0,0,0,0,0,0,10200819,0,0,0,0,0,0,0,-3080110,0,0,0,0,0,0,0
24,57,336.69514534995,0,0,426956.910607808,426957.957646754,3,1,0,14,9,52733737,83834907,31111819,42212018,10411709,0,0,0,10610619,0,31711409,0,0,0,21501909,0,0,-1031160,0,0,40300119,21001719,0,0,0,31111819,0,0,0,0,0,0,31602009,0,0,0,0,10610009,0,0
24,58,385.700479382649,0,0,426959.310548755,426960.357579231,3,0,0,22,3,20400819,0,52261338,0,0,0,20400819,0,0,0,0,0,0,0,0,0,0,0,0,0,0,0,0,10010919,0,-2050200,40200219,0,0,0,0,0,0,0,0,0,0,0,0,0
24,59,443.648106069304,0,0,426961.757553285,426962.804577217,3,1,0,3,31,168635923,237536041,147470002,229950293,20201209,31601409,-3030040,0,30401319,20401109,21900709,30600109,10500019,40200219,21210409,10500719,30810319,10100119,20100419,31810509,31101519,41701809,22011619,21101609,20701609,11710209,10711009,0,30110419,20911709,10211819,31601709,41001719,30911509,40701719,0,0,12010909,31911319,41811409
24,60,410.186400578823,0,0,426964.286896277,426965.333933298,3,1,0,10,0,0,0,0,0,0,0,0,0,0,0,0,0,0,-20811691,0,0,0,0,0,0,0,0,0,0,0,0,0,0,0,0,0,0,0,0,0,0,0,0,0,0
24,61,437.769729527645,1,0,426966.757450115,426967.804458649,3,1,1,11,31,230750221,171700204,205039393,196248412,20701809,20811119,42000419,40602019,11011709,41301009,11311409,11010009,32000719,11212019,-3071001,11601009,40501809,0,10600819,42011519,21601609,31100419,21110809,40101509,0,30411919,20810709,41900409,0,40202019,10502019,40210009,11311909,0,20810409,40412019,11101919,21800119,40301209,10300819
24,62,451.042079657782,1,0,426969.416191688,426970.463284144,3,1,1,33,19,150755493,94515156,123303865,77203017,30900409,21910109,12010819,12012009,0,11911209,20300919,0,41710019,40400819,11501519,0,11600809,31012009,0,0,0,0,20400409,0,21600519,20200419,21101209,0,40001309,0,0,22000719,0,0,0,32001009,-1200180,22001109,0,0
24,63,475.199242879171,0,0,426971.969070899,426973.016104071,3,0,0,6,31,213885483,217150431,216437413,228648902,21802009,42010609,0,10610619,41810509,-4050100,40000209,21901009,31700419,40300909,21800219,41100319,21011009,20511919,10301819,10111909,30201809,21810519,0,30310109,30501719,0,40610219,31500709,30501219,41711819,11301619,10800919,0,32011909,41100109,41410409,41901709,20611319,30701219,10111309
24,64,445.753850566689,0,0,426974.557275804,426975.604273944,3,1,0,9,19,186086755,144125964,94833166,53003747,0,0,30310919,21010009,40201609,21311909,41110419,31111709,-1030181,20900909,10200519,42010909,30100709,0,0,10211009,30701909,0,10000019,31710509,0,0,11111819,42010819,0,0,0,10200809,0,20801719,0,0,0,0,22001219,0
24,65,471.875092247501,1,0,426977.204252155,426978.251263768,3,1,1,4,31,120017984,231129031,197857093,188037412,10311309,11210719,11900809,-2060091,0,10001309,31910819,21511219,21111709,12001819,31401009,31400319,21300009,10411119,20600019,22011909,41801419,40201409,40411319,0,11311219,31201009,0,10800209,31311609,41910019,30911709,10800109,20800309,40300509,20411819,11301719,0,21701119,31910419,30811409
24,66,408.138400351163,1,0,426979.921832543,426980.968860325,3,1,1,24,3,21201909,20400909,2190010,20001509,0,0,0,0,0,0,0,0,21201909,0,20400909,0,0,0,0,0,0,0,0,0,0,0,0,-2190010,0,0,0,20001509,0,0,0,0,0,0,0,0
24,67,339.54155765241,0,0,426982.439412238,426983.486443484,3,1,0,7,3,45740059,0,42000319,11601909,0,0,41710019,0,0,0,-4030040,0,0,0,0,0,0,0,0,0,0,0,0,0,0,0,0,42000319,0,0,0,11601909,0,0,0,0,0,0,0,0
24,68,498.281206062529,0,0,426984.862889403,426985.90991603,3,0,0,34,3,0,0,30201809,65233718,0,0,0,0,0,0,0,0,0,0,0,0,0,0,0,0,0,0,0,0,0,0,30201809,0,0,0,0,0,21211819,0,0,40911809,0,-3110090,0,0
24,69,477.035128802527,1,0,426987.509888467,426988.556912784,3,0,1,12,31,176138213,210449282,269260711,176347213,40701219,0,10411119,0,41900909,11801119,40611919,20501319,10210609,30111109,21700209,-3201160,41001719,10611019,31410819,21400519,40802019,10210709,30110119,21811709,41400909,31511109,31411109,10101619,40501509,41000709,21411919,10001219,31100909,11411819,41510519,10910209,0,30710919,40701619,0
24,70,473.761408182327,1,0,426990.180450697,426991.227434978,3,0,1,30,19,196738474,125614046,85224656,145987535,40901419,0,0,40500309,20312019,41512009,0,31912009,21600709,0,0,0,41500919,0,20701509,41900109,0,21511509,0,11501219,0,0,0,41301719,0,20911109,11510609,0,40401909,-1070170,0,40211519,0,41800619,11902009,10601309
24,71,486.092525126878,1,0,426992.803871196,426993.850905522,3,0,1,8,19,105965027,144315036,216929283,73613366,40510009,11210819,0,0,0,21001919,30201109,-3041171,0,0,0,31011309,0,41802009,30400609,41101109,0,0,0,31401609,0,21310309,31201919,20511809,40900819,41500809,30102009,11501309,0,0,31801419,10000219,0,0,20310419,0
24,72,398.673328745645,0,0,426995.521458128,426996.56848899,3,0,0,5,19,167285306,173226374,64833656,102724146,40601919,21810419,30200219,0,-2061131,31001209,41610409,0,0,0,40102019,40900409,10811609,30310109,21102009,30000219,0,0,11411019,0,0,21511709,20800619,0,11110309,0,0,10910609,20101409,40310609,0,31401519,0,0,0,0
24,73,410.544415644836,1,0,426998.121400923,426999.168438714,3,0,1,20,9,62902838,53212328,22451070,104115046,0,0,41901919,0,0,0,21000919,0,0,0,0,0,41801819,0,0,11410509,0,0,0,-2040151,0,0,0,0,0,20410919,0,11701909,0,41001109,0,40000419,0,0,0,11411609
24,74,484.475682897028,0,0,427000.662512987,427001.709545388,3,0,0,25,9,61200628,53722028,113953006,40610419,0,0,30500219,0,0,30700409,0,0,0,0,11810709,0,0,0,0,0,0,41911319,21211809,21500919,0,30110209,0,0,-1130060,0,40000009,0,0,0,0,40610419,0,0,0,0
24,75,361.216098070145,0,0,427003.391858982,427004.438884069,3,1,0,19,9,83813557,62321628,13810359,94813637,11600419,0,0,0,0,0,40312019,31901119,0,41011109,0,0,0,0,0,0,0,21310519,-3000050,0,0,0,0,0,0,0,10810309,0,0,21400609,0,31801409,0,0,41611619,0
24,76,447.907330526505,1,0,427005.93297913,427006.980066966,3,0,1,28,3,12010109,30200109,0,32101450,0,0,0,0,0,0,12010109,0,0,30200109,0,0,0,0,0,0,0,0,0,0,0,0,0,0,0,0,0,-2000141,0,0,0,0,0,0,30101309,0
24,77,925.877854693681,1,0,427008.521161322,427009.568174476,3,1,1,36,9,91832637,30211709,113914956,35761210,0,0,40610609,0,0,40410219,10811809,0,0,0,0,0,0,0,0,30211709,0,0,21901209,30701909,0,0,0,0,30011719,0,31300119,0,0,31711019,0,0,0,0,0,-4050191
24,78,453.861929534469,1,0,427011.626959396,427012.673986408,3,0,1,13,0,0,0,0,0,0,0,0,0,0,0,0,0,0,0,0,0,-20401191,0,0,0,0,0,0,0,0,0,0,0,0,0,0,0,0,0,0,0,0,0,0,0
24,79,418.653264525346,1,0,427023.909022147,427024.956123842,4,0,1,6,9,65073828,42613328,51112218,52412128,10011909,0,0,40611109,0,-4140101,10310709,0,0,0,0,0,11401609,31211719,0,0,0,0,0,0,41111309,10000909,0,0,0,0,0,0,0,30611909,0,0,0,21800219,0,0
24,80,364.793939050287,1,0,427026.461905593,427027.508963787,4,1,1,11,31,230750221,171700204,205039393,196248412,20701809,20811119,42000419,40602019,11011709,41301009,11311409,11010009,32000719,11212019,-3071001,11601009,40501809,0,10600819,42011519,21601609,31100419,21110809,40101509,0,30411919,20810709,41900409,0,40202019,10502019,40210009,11311909,0,20810409,40412019,11101919,21800119,40301209,10300819
24,81,477.836620586459,0,0,427029.003022662,427030.050046209,4,0,0,34,3,42522028,0,41210209,1100150,0,20812019,21710009,0,0,0,0,0,0,0,0,0,0,0,0,0,0,0,0,0,0,0,0,0,41210209,0,0,0,0,0,0,0,0,-1100150,0,0
24,82,404.289545840584,1,0,427031.720604205,427032.767629677,4,0,1,12,3,0,33051339,0,63513328,0,0,0,0,0,0,0,0,0,0,0,-1051120,0,0,32000219,0,0,0,0,0,0,0,0,0,0,0,0,0,42011319,0,0,0,0,0,21502009,0
24,83,338.420547021087,0,0,427034.379361946,427035.426397427,4,0,0,2,0,0,0,0,0,0,-31410391,0,0,0,0,0,0,0,0,0,0,0,0,0,0,0,0,0,0,0,0,0,0,0,0,0,0,0,0,0,0,0,0,0,0
24,84,466.359350306448,1,0,427036.826367631,427037.873395028,4,1,1,3,31,168635923,237536041,147470002,229950293,20201209,31601409,-3030040,0,30401319,20401109,21900709,30600109,10500019,40200219,21210409,10500719,30810319,10100119,20100419,31810509,31101519,41701809,22011619,21101609,20701609,11710209,10711009,0,30110419,20911709,10211819,31601709,41001719,30911509,40701719,0,0,12010909,31911319,41811409
24,85,338.514477829449,0,0,427039.438067564,427040.48509958,4,0,0,8,3,4161201,61812238,21200219,0,0,0,0,0,0,0,0,-4161201,0,0,0,0,0,0,30900419,0,0,30911819,0,0,21200219,0,0,0,0,0,0,0,0,0,0,0,0,0,0,0
24,86,406.606249860488,0,0,427041.885066705,427042.932096026,4,1,0,10,0,0,0,0,0,0,0,0,0,0,0,0,0,0,-20811691,0,0,0,0,0,0,0,0,0,0,0,0,0,0,0,0,0,0,0,0,0,0,0,0,0,0
24,87,507.773994875606,0,0,427044.390879253,427045.437922433,4,1,0,33,19,150755493,94515156,123303865,77203017,30900409,21910109,12010819,12012009,0,11911209,20300919,0,41710019,40400819,11501519,0,11600809,31012009,0,0,0,0,20400409,0,21600519,20200419,21101209,0,40001309,0,0,22000719,0,0,0,32001009,-1200180,22001109,0,0
24,88,535.962869762443,0,0,427047.096717901,427048.14372836,4,0,0,30,31,227829732,197658493,270157921,236776434,11300319,41201019,30001919,0,41401719,10011919,10511409,41600719,41800709,11010409,41311309,0,0,21711719,20400209,21211619,42001609,40011619,10500009,30711419,32011119,11201409,40211109,31100819,31201009,42010409,41210619,30211319,21601109,-2051121,40200219,0,30510509,30300819,40100619,41800719
24,89,369.353819172829,0,0,427049.720173816,427050.767210838,4,0,0,1,9,87554736,52512618,53711828,30710919,-4031090,0,10200009,30601109,0,0,22010519,20712009,0,0,20812009,31700609,0,0,0,0,0,0,32011709,0,0,0,0,0,0,21700119,0,0,0,30710919,0,0,0,0,0,0
24,90,408.383621426765,1,0,427052.167176807,427053.21419535,4,1,1,7,3,45740059,0,42000319,11601909,0,0,41710019,0,0,0,-4030040,0,0,0,0,0,0,0,0,0,0,0,0,0,0,0,0,42000319,0,0,0,11601909,0,0,0,0,0,0,0,0
24,91,402.268493024167,0,0,427054.696524419,427055.743549121,4,0,0,35,19,176424365,91222737,165864513,83045417,40900319,0,41800609,0,0,0,10001609,41711809,42010019,0,0,0,20311209,0,30411309,0,0,40500219,40710309,0,10411319,11300519,21810019,30310309,0,10410919,40911119,21401309,0,0,10101509,30410509,0,20101919,-1030171,0
24,92,450.135108141694,1,0,427057.249410559,427058.296433722,4,0,1,25,19,103735266,145425774,148644626,93931146,0,0,30411119,0,31210919,0,10612009,31501219,0,11811809,30300619,30000009,21411209,0,0,0,31100509,20801619,31500809,0,0,10510519,31410619,30101809,-3110061,42010809,0,0,0,21710409,20310619,10800109,0,0,41110009,0
24,93,358.408566971775,0,0,427059.955230729,427061.002252737,4,0,0,20,9,103101637,82722847,25133929,30010209,40400409,0,0,41201019,0,21500209,0,0,0,20301019,21811719,0,0,0,40610109,0,0,0,0,-3111201,0,0,10711909,0,0,11310819,0,0,0,0,30010209,0,0,0,0,0
24,94,415.936199598946,1,0,427062.484579881,427063.531601119,4,1,1,24,3,21201909,20400909,2190010,20001509,0,0,0,0,0,0,0,0,21201909,0,20400909,0,0,0,0,0,0,0,0,0,0,0,0,-2190010,0,0,0,20001509,0,0,0,0,0,0,0,0
24,95,363.777253194712,0,0,427065.072750139,427066.119785235,4,1,0,26,19,73620528,226844084,167993086,188448304,0,0,0,0,0,0,0,31710219,41910309,40710809,20210119,41802019,41810309,40300009,0,0,42010819,0,31800009,41911019,0,21600219,31201519,0,40310309,-1170011,0,0,40301319,42010519,22010619,41812019,31101909,11211919,0,0
24,96,425.53870275151,1,0,427067.555042637,427068.602080813,4,1,1,36,9,91832637,30211709,113914956,35761210,0,0,40610609,0,0,40410219,10811809,0,0,0,0,0,0,0,0,30211709,0,0,21901209,30701909,0,0,0,0,30011719,0,31300119,0,0,31711019,0,0,0,0,0,-4050191
24,97,338.16454699263,0,0,427070.143218284,427071.190240292,4,0,0,22,19,188956193,117853555,88445877,74632347,11010319,31610519,21400009,41511409,41611409,20010919,0,21801609,0,21510109,20811319,0,0,0,21810809,21910909,0,31810409,20810119,11300919,0,-3021021,21501909,0,0,0,31811909,0,11910109,0,0,0,21710419,0,0,41011819
24,98,458.186982607003,1,0,427072.531396704,427073.578421406,4,1,1,19,9,83813557,62321628,13810359,94813637,11600419,0,0,0,0,0,40312019,31901119,0,41011109,0,0,0,0,0,0,0,21310519,-3000050,0,0,0,0,0,0,0,10810309,0,0,21400609,0,31801409,0,0,41611619,0
24,99,401.871596695855,1,0,427075.060761254,427076.107789421,4,1,1,14,9,52733737,83834907,31111819,42212018,10411709,0,0,0,10610619,0,31711409,0,0,0,21501909,0,0,-1031160,0,0,40300119,21001719,0,0,0,31111819,0,0,0,0,0,0,31602009,0,0,0,0,10610009,0,0
24,100,344.455603219103,0,0,427077.590197792,427078.637126254,4,1,0,29,3,32010409,30900719,10200819,3080110,0,0,0,0,0,0,32010409,0,0,0,0,0,0,30900719,0,0,0,0,0,0,10200819,0,0,0,0,0,0,0,-3080110,0,0,0,0,0,0,0
24,101,364.679220190737,0,0,427080.048872074,427081.095892541,4,1,0,9,19,186086755,144125964,94833166,53003747,0,0,30310919,21010009,40201609,21311909,41110419,31111709,-1030181,20900909,10200519,42010909,30100709,0,0,10211009,30701909,0,10000019,31710509,0,0,11111819,42010819,0,0,0,10200809,0,20801719,0,0,0,0,22001219,0
24,102,450.664046569727,1,0,427082.554747371,427083.601717408,4,0,1,5,31,200927353,187037393,237748032,241630131,10610719,41500919,0,41401319,-2010040,20801519,12000619,41101509,31500709,0,30001319,0,21700709,21810119,42001209,30012019,31011109,10500909,10800119,41311319,20110519,20811319,31902009,40901409,31400519,40510819,0,21901809,11902009,30600309,32000019,40911919,41200909,20500919,31010619,11601619
24,103,364.274624735117,1,0,427085.22521259,427086.272234982,4,1,1,4,31,120017984,231129031,197857093,188037412,10311309,11210719,11900809,-2060091,0,10001309,31910819,21511219,21111709,12001819,31401009,31400319,21300009,10411119,20600019,22011909,41801419,40201409,40411319,0,11311219,31201009,0,10800209,31311609,41910019,30911709,10800109,20800309,40300509,20411819,11301719,0,21701119,31910419,30811409
24,104,441.531967488118,1,0,427087.707512402,427088.754535949,4,0,1,28,31,260237851,241169131,247069722,159656386,40901809,31110419,11700619,40000519,11100009,41701619,41300019,31711719,10711119,31111509,40801519,11411419,41701619,31510819,21310109,11310509,40200109,11811519,40710719,30911719,41101709,40310609,30511819,0,41001509,12010019,10511619,-3031011,0,11801119,40701009,0,41501319,31910619,30711309,0
24,105,424.343009421136,0,0,427102.965963097,427104.012997424,5,0,0,12,31,205748503,201257983,251668241,219629572,41101309,30811519,30201619,0,41010319,30100909,12011309,20511519,0,30610819,22011109,-4120090,30000409,31302019,11701609,40401019,0,31110909,30900419,10610209,21511009,40310419,41911019,12001319,41911609,31311119,21201119,21301509,11701909,40501109,11700309,41901709,0,31910909,20611809,40000309
24,106,394.307854643557,0,0,427105.565908972,427106.612936754,5,1,0,29,3,32010409,30900719,10200819,3080110,0,0,0,0,0,0,32010409,0,0,0,0,0,0,30900719,0,0,0,0,0,0,10200819,0,0,0,0,0,0,0,-3080110,0,0,0,0,0,0,0
24,107,322.654410207178,1,1,427108.13055533,427109.177591196,5,1,0,24,3,21201909,20400909,2190010,20001509,0,0,0,0,0,0,0,0,21201909,0,20400909,0,0,0,0,0,0,0,0,0,0,0,0,-2190010,0,0,0,20001509,0,0,0,0,0,0,0,0
24,108,471.826971916016,1,0,427110.518732209,427111.577534067,5,1,1,36,9,91832637,30211709,113914956,35761210,0,0,40610609,0,0,40410219,10811809,0,0,0,0,0,0,0,0,30211709,0,0,21901209,30701909,0,0,0,0,30011719,0,31300119,0,0,31711019,0,0,0,0,0,-4050191
24,109,437.312009220477,1,0,427113.259847661,427114.306877753,5,0,1,34,3,30210609,10300519,41311109,1090100,30210609,0,0,0,0,0,0,0,0,0,0,10300519,0,0,0,0,0,0,0,0,0,0,0,0,0,41311109,0,0,0,0,0,0,0,-1090100,0,0
24,110,537.11121273227,1,0,427115.848014839,427116.895043006,5,0,1,25,19,72733376,92622056,106044367,219867602,31100119,10911519,0,20611119,0,0,0,0,10110619,0,0,0,0,0,31200719,10810709,20200309,30410319,0,30700019,0,41501909,0,0,-2131120,0,31711319,41911519,21401619,30110209,0,41710409,10610409,11210609,22011519,40901309
24,111,511.086981685366,1,0,427118.53031034,427119.577341586,5,0,1,30,31,206656802,167277902,270728922,124517704,0,20210209,10511519,31510319,40510509,21401309,20000609,22001819,40510509,11811309,10310819,31511119,10110309,42011719,20500809,30311109,0,10710709,31900219,31801019,30900209,0,31911419,41111719,40101009,41701709,21301619,10111909,21010219,-1171011,30000219,11010209,10900309,20202009,0,20111819
24,112,513.296666089445,1,0,427121.189068851,427122.236083159,5,1,1,7,3,45740059,0,42000319,11601909,0,0,41710019,0,0,0,-4030040,0,0,0,0,0,0,0,0,0,0,0,0,0,0,0,0,42000319,0,0,0,11601909,0,0,0,0,0,0,0,0
24,113,329.570260480978,0,0,427123.812532466,427124.859559093,5,0,0,26,0,0,0,0,0,0,0,0,0,0,0,0,0,0,0,0,0,0,0,0,0,0,0,0,0,0,0,0,0,0,-30901791,0,0,0,0,0,0,0,0,0,0
24,114,376.419034902938,1,0,427126.247764845,427127.294797631,5,0,1,28,9,31812328,62523418,31701618,87914548,0,0,0,11311509,0,0,20500819,0,0,0,0,20711909,0,0,0,0,41811509,0,11301509,0,20400109,0,0,0,0,0,0,-4001001,0,31210809,32002019,0,20700719,0,0,0
24,115,365.597740630619,0,0,427128.847708794,427129.894740041,5,0,0,6,3,55283399,0,0,40701409,0,0,0,0,0,-4180071,20201909,0,30901419,0,0,0,0,0,0,0,0,0,0,0,0,0,0,0,0,0,0,0,0,0,0,0,0,0,0,40701409
24,116,346.878171898425,1,0,427131.471177029,427132.518197496,5,1,1,33,19,150755493,94515156,123303865,77203017,30900409,21910109,12010819,12012009,0,11911209,20300919,0,41710019,40400819,11501519,0,11600809,31012009,0,0,0,0,20400409,0,21600519,20200419,21101209,0,40001309,0,0,22000719,0,0,0,32001009,-1200180,22001109,0,0
24,117,434.161091572605,1,0,427134.024056625,427135.071077092,5,1,1,9,19,186086755,144125964,94833166,53003747,0,0,30310919,21010009,40201609,21311909,41110419,31111709,-1030181,20900909,10200519,42010909,30100709,0,0,10211009,30701909,0,10000019,31710509,0,0,11111819,42010819,0,0,0,10200809,0,20801719,0,0,0,0,22001219,0
24,118,324.670458503533,0,0,427136.553408471,427137.600437023,5,1,0,10,0,0,0,0,0,0,0,0,0,0,0,0,0,0,-20811691,0,0,0,0,0,0,0,0,0,0,0,0,0,0,0,0,0,0,0,0,0,0,0,0,0,0
24,119,419.511345797218,1,0,427138.94158843,427139.988614672,5,1,1,11,31,230750221,171700204,205039393,196248412,20701809,20811119,42000419,40602019,11011709,41301009,11311409,11010009,32000719,11212019,-3071001,11601009,40501809,0,10600819,42011519,21601609,31100419,21110809,40101509,0,30411919,20810709,41900409,0,40202019,10502019,40210009,11311909,0,20810409,40412019,11101919,21800119,40301209,10300819
24,120,484.681637783069,1,0,427141.553295677,427142.600321534,5,0,1,35,9,31600719,64016676,62002618,53311988,31600719,0,0,0,0,0,0,0,0,0,0,10801019,0,20501819,12012019,0,0,20701819,41301509,0,0,20701109,0,0,0,0,0,41811219,0,0,0,0,0,0,-1000150,10500619
24,121,670.658533868846,0,0,427144.200290891,427145.247364099,5,1,0,26,19,73620528,226844084,167993086,188448304,0,0,0,0,0,0,0,31710219,41910309,40710809,20210119,41802019,41810309,40300009,0,0,42010819,0,31800009,41911019,0,21600219,31201519,0,40310309,-1170011,0,0,40301319,42010519,22010619,41812019,31101909,11211919,0,0
24,122,507.885249040555,1,0,427147.106104055,427148.153123753,5,1,1,14,9,52733737,83834907,31111819,42212018,10411709,0,0,0,10610619,0,31711409,0,0,0,21501909,0,0,-1031160,0,0,40300119,21001719,0,0,0,31111819,0,0,0,0,0,0,31602009,0,0,0,0,10610009,0,0
24,123,478.131886804476,1,0,427149.858977415,427150.906000962,5,1,1,19,9,83813557,62321628,13810359,94813637,11600419,0,0,0,0,0,40312019,31901119,0,41011109,0,0,0,0,0,0,0,21310519,-3000050,0,0,0,0,0,0,0,10810309,0,0,21400609,0,31801409,0,0,41611619,0
24,124,411.181913397741,0,0,427152.45891867,427153.505934518,5,0,0,8,19,84744767,114734375,188754774,142124376,0,11001919,0,10700319,0,41601719,20400719,-1040091,0,21810719,0,0,12000709,40000209,0,0,10211119,30711619,0,41410819,21711009,0,21310619,21301209,41010809,42010309,0,20112019,0,40000619,40901019,0,0,0,0,41110719
24,125,441.573158430401,0,0,427155.035316391,427156.082347638,5,1,0,4,31,120017984,231129031,197857093,188037412,10311309,11210719,11900809,-2060091,0,10001309,31910819,21511219,21111709,12001819,31401009,31400319,21300009,10411119,20600019,22011909,41801419,40201409,40411319,0,11311219,31201009,0,10800209,31311609,41910019,30911709,10800109,20800309,40300509,20411819,11301719,0,21701119,31910419,30811409
24,126,727.902064216323,0,0,427157.588196757,427158.635236088,5,0,0,1,9,47626638,40400719,51411728,82432547,-4191191,0,10112009,0,21911519,0,0,0,11411919,0,0,0,0,40400719,0,0,0,0,0,20501519,0,0,0,30910209,0,0,0,0,0,40810709,0,0,0,0,20011719,21610119
24,127,491.778805386275,0,0,427160.435202288,427161.48223007,5,0,0,5,31,197637204,216569611,195431401,214425694,0,40211109,10901109,22011009,-2091011,30901409,41210219,10010419,40300919,11910519,30401609,40411609,10000419,30911509,30510709,31410809,10100509,20911919,11011509,20211809,20501119,20200019,31102009,30001109,20901709,30201109,11301009,0,30900709,31101819,0,30000019,0,40401319,41110809,40911019
24,128,488.14206518,1,0,427163.152777672,427164.199800834,5,0,1,20,19,186435984,136925755,107913026,105421866,30401309,41711319,41610909,0,30010219,31800609,0,10901619,0,0,41300609,31201819,0,0,31811909,10711309,0,21900109,31211319,-2190060,0,22010109,0,0,0,21700719,30800819,0,21900019,0,0,11311019,31100819,0,41110009,0
24,129,494.142089853995,0,0,427165.74094716,427166.787972632,5,0,0,22,3,0,11201009,24092490,31011909,0,0,0,0,0,0,0,0,0,0,0,0,0,11201009,0,0,0,0,0,0,0,-2191081,0,0,0,21901409,0,0,0,0,0,0,0,31011909,0,0
24,130,376.391317578964,0,0,427168.458535632,427169.505554175,5,1,0,3,31,168635923,237536041,147470002,229950293,20201209,31601409,-3030040,0,30401319,20401109,21900709,30600109,10500019,40200219,21210409,10500719,30810319,10100119,20100419,31810509,31101519,41701809,22011619,21101609,20701609,11710209,10711009,0,30110419,20911709,10211819,31601709,41001719,30911509,40701719,0,0,12010909,31911319,41811409
24,131,484.866804734338,0,0,427182.117026595,427183.164060921,6,0,0,35,3,0,30811519,31110009,36062159,0,0,0,0,0,0,0,0,0,0,0,0,0,0,30811519,0,0,0,0,0,0,31110009,0,0,0,0,0,0,0,0,0,32001109,0,0,-4061050,0
24,132,418.084675038699,0,0,427184.775791265,427185.822817893,6,1,0,4,31,120017984,231129031,197857093,188037412,10311309,11210719,11900809,-2060091,0,10001309,31910819,21511219,21111709,12001819,31401009,31400319,21300009,10411119,20600019,22011909,41801419,40201409,40411319,0,11311219,31201009,0,10800209,31311609,41910019,30911709,10800109,20800309,40300509,20411819,11301719,0,21701119,31910419,30811409
24,133,375.217567081563,1,0,427187.328679716,427188.375695949,6,0,1,6,19,86963217,164846164,105335366,94907955,11611219,0,41310109,0,10900509,-2040061,21101319,0,0,21411009,10300409,0,21601519,30111509,40811109,0,40610609,0,0,41910119,0,32011609,20302019,0,11111619,0,0,0,31401409,0,21802009,20402019,10401009,0,10901509,0
24,134,435.134276631288,0,0,427189.881548918,427190.928580164,6,0,0,34,31,226856303,247468431,207557322,190159923,41611309,10210819,41900709,41011319,0,40811709,0,10000219,41310219,31510409,41601319,30310919,11311309,20011109,11800019,30011019,40711719,30200609,31710919,10710319,20301619,30900309,41010119,11401409,30011619,31511009,0,21411909,31601709,20301619,0,31111519,40410409,-3021130,21600819,20700809
24,135,452.656997134909,0,0,427192.505083751,427193.552043394,6,0,0,30,19,123122276,135625285,166633775,123734755,0,0,0,0,30210919,0,30300819,21900519,40710019,30010319,21600919,0,40601419,31900809,0,0,11511819,0,0,41211209,11210009,0,0,0,41800919,31801619,40610019,20110209,10411319,-1000190,0,0,10410319,41700909,0,40101809
24,136,434.629975876305,1,0,427195.15202276,427196.199066326,6,1,1,11,31,230750221,171700204,205039393,196248412,20701809,20811119,42000419,40602019,11011709,41301009,11311409,11010009,32000719,11212019,-3071001,11601009,40501809,0,10600819,42011519,21601609,31100419,21110809,40101509,0,30411919,20810709,41900409,0,40202019,10502019,40210009,11311909,0,20810409,40412019,11101919,21800119,40301209,10300819
24,137,354.771056852769,0,0,427197.846070779,427198.893093556,6,1,0,33,19,150755493,94515156,123303865,77203017,30900409,21910109,12010819,12012009,0,11911209,20300919,0,41710019,40400819,11501519,0,11600809,31012009,0,0,0,0,20400409,0,21600519,20200419,21101209,0,40001309,0,0,22000719,0,0,0,32001009,-1200180,22001109,0,0
24,138,398.409244546201,0,0,427200.328364816,427201.375387209,6,1,0,10,0,0,0,0,0,0,0,0,0,0,0,0,0,0,-20811691,0,0,0,0,0,0,0,0,0,0,0,0,0,0,0,0,0,0,0,0,0,0,0,0,0,0
24,139,579.664191289339,0,0,427202.893005015,427203.940038187,6,1,0,29,3,32010409,30900719,10200819,3080110,0,0,0,0,0,0,32010409,0,0,0,0,0,0,30900719,0,0,0,0,0,0,10200819,0,0,0,0,0,0,0,-3080110,0,0,0,0,0,0,0
24,140,366.813067055773,0,0,427205.59887985,427206.645883764,6,1,0,7,3,45740059,0,42000319,11601909,0,0,41710019,0,0,0,-4030040,0,0,0,0,0,0,0,0,0,0,0,0,0,0,0,0,42000319,0,0,0,11601909,0,0,0,0,0,0,0,0
24,141,321.665056690108,0,0,427208.139993069,427209.186961567,6,0,0,20,3,102511247,0,4151130,0,0,0,0,0,20410419,41900609,0,0,40200219,0,0,0,0,0,0,0,0,0,0,-4151130,0,0,0,0,0,0,0,0,0,0,0,0,0,0,0,0
24,142,346.488974872045,0,1,427210.575176557,427211.622205494,6,1,1,19,9,83813557,62321628,13810359,94813637,11600419,0,0,0,0,0,40312019,31901119,0,41011109,0,0,0,0,0,0,0,21310519,-3000050,0,0,0,0,0,0,0,10810309,0,0,21400609,0,31801409,0,0,41611619,0
24,143,433.764195302501,0,0,427213.080999884,427214.128028436,6,0,0,28,9,0,11610809,215648593,33571470,0,0,0,0,0,0,0,0,0,0,0,0,11610809,0,0,0,0,0,41510009,0,0,41812019,20111909,30601909,20600619,20711119,40301009,-3061161,0,30510309,0,0,0,0,0,0
24,144,439.414289081469,1,0,427215.669171682,427216.71619677,6,0,1,5,9,82153208,61534557,32011119,21502128,0,0,0,30600319,-1140061,0,10101419,40311409,0,0,20911119,0,30111619,10511819,0,0,0,0,0,0,0,0,0,0,0,32011119,0,0,10800319,0,0,0,10701809,0,0,0
24,145,588.4979244438,1,0,427218.269106778,427219.316136099,6,0,1,25,19,121014056,189958423,117164597,113733156,40100409,0,0,20301309,0,20101919,0,40510419,0,0,21211819,0,31610819,41611019,10901319,31900209,20712019,32011219,31001119,0,0,11311209,30301609,0,-3040151,0,41510509,0,11710519,30610709,0,0,40501909,0,0,30910019
24,146,412.497330049519,0,0,427221.010221075,427222.057247317,6,1,0,26,19,73620528,226844084,167993086,188448304,0,0,0,0,0,0,0,31710219,41910309,40710809,20210119,41802019,41810309,40300009,0,0,42010819,0,31800009,41911019,0,21600219,31201519,0,40310309,-1170011,0,0,40301319,42010519,22010619,41812019,31101909,11211919,0,0
24,147,402.091795287561,1,0,427223.645451836,427224.692480388,6,0,1,22,9,41321928,102415945,42921690,31600009,0,30310009,0,0,0,0,11011919,0,0,30400809,0,10000809,20310909,0,21601809,0,0,20101609,0,0,0,-1010071,0,0,0,41911619,0,0,0,31600009,0,0,0,0,0,0
24,148,855.664554692339,1,0,427226.16304385,427227.210059698,6,1,1,14,9,52733737,83834907,31111819,42212018,10411709,0,0,0,10610619,0,31711409,0,0,0,21501909,0,0,-1031160,0,0,40300119,21001719,0,0,0,31111819,0,0,0,0,0,0,31602009,0,0,0,0,10610009,0,0
24,149,476.518124225549,1,0,427229.210022357,427230.257044749,6,1,1,3,31,168635923,237536041,147470002,229950293,20201209,31601409,-3030040,0,30401319,20401109,21900709,30600109,10500019,40200219,21210409,10500719,30810319,10100119,20100419,31810509,31101519,41701809,22011619,21101609,20701609,11710209,10711009,0,30110419,20911709,10211819,31601709,41001719,30911509,40701719,0,0,12010909,31911319,41811409
24,150,711.804089718498,1,0,427231.821725754,427232.868763545,6,1,1,9,19,186086755,144125964,94833166,53003747,0,0,30310919,21010009,40201609,21311909,41110419,31111709,-1030181,20900909,10200519,42010909,30100709,0,0,10211009,30701909,0,10000019,31710509,0,0,11111819,42010819,0,0,0,10200809,0,20801719,0,0,0,0,22001219,0
24,151,469.783976208419,0,0,427234.668720506,427235.715750598,6,1,0,36,9,91832637,30211709,113914956,35761210,0,0,40610609,0,0,40410219,10811809,0,0,0,0,0,0,0,0,30211709,0,0,21901209,30701909,0,0,0,0,30011719,0,31300119,0,0,31711019,0,0,0,0,0,-4050191
24,152,458.702062314842,0,0,427237.303949343,427238.350974431,6,1,0,24,3,21201909,20400909,2190010,20001509,0,0,0,0,0,0,0,0,21201909,0,20400909,0,0,0,0,0,0,0,0,0,0,0,0,-2190010,0,0,0,20001509,0,0,0,0,0,0,0,0
24,153,463.514092902187,1,0,427239.892123836,427240.939151233,6,0,1,1,31,229948613,217636422,225350512,160345602,-3110010,20701019,0,41101319,20901909,21310119,41711609,40411219,40701409,31101319,40400509,31410209,20002009,0,41100319,11410319,12011119,30200619,10811919,30800709,10611509,40310809,40700519,20311519,40602009,31201519,0,0,12010509,21200609,20211009,21511209,21811119,31000019,21500109,11101019
24,154,444.311396277044,1,0,427242.586176089,427243.633207721,6,0,1,8,3,3110050,21700909,30101809,31501509,0,0,0,0,0,0,0,-3110050,0,21700909,0,0,0,0,0,0,0,0,0,0,0,0,0,0,0,0,30101809,31501509,0,0,0,0,0,0,0,0
24,155,371.827587834559,1,0,427245.115529861,427246.162620776,6,0,1,22,0,0,0,0,0,0,0,0,0,0,0,0,0,0,0,0,0,0,0,0,0,0,0,0,0,0,-41601901,0,0,0,0,0,0,0,0,0,0,0,0,0,0
24,156,420.242389489431,1,0,427247.727232103,427248.7742595,6,0,1,12,31,174836074,179087432,190756841,238425312,40800119,40201709,12010319,0,21011309,0,20601809,0,40210809,40600309,21210209,-1141120,11001119,41012019,11900609,11101719,20810209,20310119,11710719,21700519,31410119,30300809,10701419,11711409,31510509,20800419,20910919,11200109,41200809,40500319,31701719,10400309,31000319,32010419,40411309,0
24,157,514.747204608284,1,0,427260.150458273,427261.19754149,7,0,1,35,19,145436165,155436104,144735475,86652637,0,42011319,32001309,10410819,0,30201609,0,30811109,0,40601209,31801719,30110319,0,11910819,20611219,20400819,0,0,31001619,41910219,10111409,21500719,0,0,0,40211509,0,0,0,0,21300709,0,31710309,0,-2140200,31501419
24,158,480.953661492094,0,0,427262.903343182,427263.950369424,7,0,0,12,3,10700309,74684249,0,0,0,0,0,0,0,0,0,0,10700309,0,0,-3061121,0,0,30512019,0,0,41111109,0,0,0,0,0,0,0,0,0,0,0,0,0,0,0,0,0,0
24,159,426.232790050562,0,0,427265.609157962,427266.656184589,7,0,0,34,19,112736456,124512056,93134647,232969402,0,30111409,31111809,21011319,0,0,30501919,0,0,0,0,0,31100619,0,31610909,20300109,0,41500419,0,0,40811409,11511519,40811719,0,0,0,0,22011019,31401119,41911609,41901809,11510519,40512019,-1110180,11810209,30800919
24,160,397.650098602753,1,0,427268.138515968,427269.185610733,7,0,1,30,9,63811227,72820538,0,89205886,0,0,11400009,21800809,0,0,0,0,30610409,0,0,0,31410319,41410219,0,0,0,0,0,0,0,0,0,0,0,0,0,0,0,-4171120,0,10910319,0,11611509,31911719,30601219
24,161,449.522247945424,1,0,427270.667857805,427271.714893287,7,1,1,24,3,21201909,20400909,2190010,20001509,0,0,0,0,0,0,0,0,21201909,0,20400909,0,0,0,0,0,0,0,0,0,0,0,0,-2190010,0,0,0,20001509,0,0,0,0,0,0,0,0
24,162,363.686787080951,0,0,427273.232515327,427274.279586225,7,1,0,14,9,52733737,83834907,31111819,42212018,10411709,0,0,0,10610619,0,31711409,0,0,0,21501909,0,0,-1031160,0,0,40300119,21001719,0,0,0,31111819,0,0,0,0,0,0,31602009,0,0,0,0,10610009,0,0
24,163,410.845456237439,1,0,427275.738332495,427276.785350653,7,1,1,7,3,45740059,0,42000319,11601909,0,0,41710019,0,0,0,-4030040,0,0,0,0,0,0,0,0,0,0,0,0,0,0,0,0,42000319,0,0,0,11601909,0,0,0,0,0,0,0,0
24,164,440.568791411351,1,0,427278.314744075,427279.361761848,7,0,1,1,31,160314424,186549612,220668951,247648912,-3191140,30810809,20300619,21700419,21600209,0,31501109,0,31210119,30312009,11211119,31401309,40002009,10000019,41111719,11700319,10811109,0,10511519,11910609,30711319,31800019,12011309,30701919,20210519,31101519,41710219,10001209,41711009,30612009,31400219,40910919,30501609,0,20511819,42000119
24,165,416.003567981534,0,0,427280.879439324,427281.926414366,7,1,0,33,19,150755493,94515156,123303865,77203017,30900409,21910109,12010819,12012009,0,11911209,20300919,0,41710019,40400819,11501519,0,11600809,31012009,0,0,0,0,20400409,0,21600519,20200419,21101209,0,40001309,0,0,22000719,0,0,0,32001009,-1200180,22001109,0,0
24,166,479.799929016735,1,0,427283.420499803,427284.467534514,7,1,1,19,9,83813557,62321628,13810359,94813637,11600419,0,0,0,0,0,40312019,31901119,0,41011109,0,0,0,0,0,0,0,21310519,-3000050,0,0,0,0,0,0,0,10810309,0,0,21400609,0,31801409,0,0,41611619,0
24,167,426.647779589985,0,0,427286.114558215,427287.161593697,7,0,0,6,9,45455108,21802019,52302337,21221838,0,10010509,0,21711809,0,-3121171,0,10611619,0,0,0,0,0,0,21802019,0,0,0,0,20500009,11601609,0,0,0,0,0,20200719,0,10110819,0,0,11111019,0,0,0,0
24,168,455.139619938564,1,0,427288.620376538,427289.667410094,7,1,1,36,9,91832637,30211709,113914956,35761210,0,0,40610609,0,0,40410219,10811809,0,0,0,0,0,0,0,0,30211709,0,0,21901209,30701909,0,0,0,0,30011719,0,31300119,0,0,31711019,0,0,0,0,0,-4050191
24,169,395.478910417296,0,0,427291.255608455,427292.302637776,7,1,0,9,19,186086755,144125964,94833166,53003747,0,0,30310919,21010009,40201609,21311909,41110419,31111709,-1030181,20900909,10200519,42010909,30100709,0,0,10211009,30701909,0,10000019,31710509,0,0,11111819,42010819,0,0,0,10200809,0,20801719,0,0,0,0,22001219,0
24,170,392.329147725832,0,0,427293.832016955,427294.879041272,7,1,0,26,19,73620528,226844084,167993086,188448304,0,0,0,0,0,0,0,31710219,41910309,40710809,20210119,41802019,41810309,40300009,0,0,42010819,0,31800009,41911019,0,21600219,31201519,0,40310309,-1170011,0,0,40301319,42010519,22010619,41812019,31101909,11211919,0,0
24,171,357.76644962607,0,0,427296.30254962,427297.349573552,7,0,0,20,3,21611309,63223738,3131101,0,0,0,0,0,21611309,0,0,0,0,0,31411919,0,31811819,0,0,0,0,0,0,-3131101,0,0,0,0,0,0,0,0,0,0,0,0,0,0,0,0
24,172,422.949830361176,0,0,427298.820130085,427299.867160177,7,0,0,28,9,71522318,125823736,0,94074468,0,30510709,0,0,0,0,0,0,41011609,31000009,21411809,0,0,0,41801009,31610909,0,0,0,0,0,0,0,0,0,0,0,-1061031,0,41702019,0,0,0,31311109,0,20000309
24,173,348.234779550694,1,1,427301.478886671,427302.525924462,7,1,0,29,3,32010409,30900719,10200819,3080110,0,0,0,0,0,0,32010409,0,0,0,0,0,0,30900719,0,0,0,0,0,0,10200819,0,0,0,0,0,0,0,-3080110,0,0,0,0,0,0,0
24,174,432.4010432465,1,0,427303.937659889,427304.984683051,7,0,1,33,0,0,0,0,0,0,0,0,0,0,0,0,0,0,0,0,0,0,0,0,0,0,0,0,0,0,0,0,0,0,0,0,0,0,0,0,0,-31311991,0,0,0
24,175,500.505519041326,1,0,427306.584657412,427307.6316825,7,1,1,11,31,230750221,171700204,205039393,196248412,20701809,20811119,42000419,40602019,11011709,41301009,11311409,11010009,32000719,11212019,-3071001,11601009,40501809,0,10600819,42011519,21601609,31100419,21110809,40101509,0,30411919,20810709,41900409,0,40202019,10502019,40210009,11311909,0,20810409,40412019,11101919,21800119,40301209,10300819
24,176,555.33725960413,1,0,427309.172826901,427310.219851603,7,0,1,25,19,101615237,206846593,114122316,175735665,30501419,30712009,0,0,0,0,40401809,0,0,20210909,40210619,10211319,31301209,31500019,0,41801609,31610909,0,0,0,31310919,41210919,20210109,20200309,-1190060,0,0,0,30110409,0,41611609,41910609,0,42001719,20101319,0
24,177,477.76347771287,0,0,427311.890403439,427312.937437765,7,0,0,5,31,209338054,207259791,145554993,239559051,31901809,31711309,41211209,0,-1000200,40601409,21210609,0,41701509,10411709,21411509,30301519,11810309,30501709,20511409,20400809,30010109,31900709,21901409,0,20010409,30911819,20210009,0,10011219,30700119,11810009,40411509,11111319,10310209,10511219,30810719,12000319,41301819,41601319,41500619
24,178,479.545853857417,1,0,427314.525637665,427315.572665062,7,0,1,22,3,61923328,41900009,2001021,0,0,0,0,20911719,0,0,0,0,41011609,0,41900009,0,0,0,0,0,0,0,0,0,0,-2001021,0,0,0,0,0,0,0,0,0,0,0,0,0,0
24,179,419.697282661218,0,0,427317.243222288,427318.290310124,7,1,0,3,31,168635923,237536041,147470002,229950293,20201209,31601409,-3030040,0,30401319,20401109,21900709,30600109,10500019,40200219,21210409,10500719,30810319,10100119,20100419,31810509,31101519,41701809,22011619,21101609,20701609,11710209,10711009,0,30110419,20911709,10211819,31601709,41001719,30911509,40701719,0,0,12010909,31911319,41811409
24,180,506.979047437198,1,0,427319.90197849,427320.949006657,7,1,1,4,31,120017984,231129031,197857093,188037412,10311309,11210719,11900809,-2060091,0,10001309,31910819,21511219,21111709,12001819,31401009,31400319,21300009,10411119,20600019,22011909,41801419,40201409,40411319,0,11311219,31201009,0,10800209,31311609,41910019,30911709,10800109,20800309,40300509,20411819,11301719,0,21701119,31910419,30811409
24,181,509.166789008304,1,0,427322.560742776,427323.607771712,7,0,1,8,31,158147504,246216341,278640902,238339332,11611209,31711809,21100519,0,20100519,40011319,0,-3111020,30501109,40310619,30601619,11500119,40400719,10000409,42000009,10101319,30400109,30901419,21810309,40101909,0,41401809,31001609,41700319,41201319,40011919,21411709,40901219,11611919,40301619,11511419,40300309,41001119,31511219,21200509,0
24,182,438.699798774906,0,0,427325.172440398,427326.219463176,7,1,0,10,0,0,0,0,0,0,0,0,0,0,0,0,0,0,-20811691,0,0,0,0,0,0,0,0,0,0,0,0,0,0,0,0,0,0,0,0,0,0,0,0,0,0
24,183,483.437439193949,1,0,427339.607387905,427340.654422616,8,1,1,19,9,83813557,62321628,13810359,94813637,11600419,0,0,0,0,0,40312019,31901119,0,41011109,0,0,0,0,0,0,0,21310519,-3000050,0,0,0,0,0,0,0,10810309,0,0,21400609,0,31801409,0,0,41611619,0
24,184,487.071484676562,1,0,427342.336743524,427343.383766686,8,1,1,4,31,120017984,231129031,197857093,188037412,10311309,11210719,11900809,-2060091,0,10001309,31910819,21511219,21111709,12001819,31401009,31400319,21300009,10411119,20600019,22011909,41801419,40201409,40411319,0,11311219,31201009,0,10800209,31311609,41910019,30911709,10800109,20800309,40300509,20411819,11301719,0,21701119,31910419,30811409
24,185,393.881701224018,0,0,427344.972033955,427346.019034405,8,1,0,29,3,32010409,30900719,10200819,3080110,0,0,0,0,0,0,32010409,0,0,0,0,0,0,30900719,0,0,0,0,0,0,10200819,0,0,0,0,0,0,0,-3080110,0,0,0,0,0,0,0
24,186,443.74588644132,0,0,427347.560151473,427348.607168476,8,0,0,22,19,123536874,178038203,84733958,41313837,30400809,10601719,10311819,31301509,20110309,0,0,0,20810709,12001919,31100309,20310709,0,11201409,30011819,31711319,41700719,0,32011809,0,21410109,-1001021,30311019,0,0,0,0,0,0,11001309,0,20210609,0,10101919,0,0
24,187,395.944330026396,1,0,427350.124785513,427351.171810985,8,0,1,5,31,182636143,198036092,187258903,239159231,0,20901219,10801209,21700309,-4020060,31610309,20801209,41100219,31701609,11700509,10710009,31811609,41300709,41501009,30301519,0,10310309,20400419,21110919,31212009,0,40310509,21512019,0,41201809,11100619,20811019,20600619,31310909,41211819,20910119,10911019,40402009,41901119,21210209,10701409
24,188,427.955112012569,1,0,427352.771782652,427353.818804274,8,1,1,10,0,0,0,0,0,0,0,0,0,0,0,0,0,0,-20811691,0,0,0,0,0,0,0,0,0,0,0,0,0,0,0,0,0,0,0,0,0,0,0,0,0,0
24,189,564.288021414541,0,0,427355.289373125,427356.336403987,8,0,0,30,19,124322746,156345693,81803437,135074295,0,0,0,30810609,0,41810819,40701009,0,11000309,40211509,20900019,41300809,11210109,0,0,10510819,11001219,21211209,0,20400609,0,0,0,21301609,0,40101219,0,40600819,0,-1051140,20600709,10300109,0,0,41911009,20610509
24,190,476.090430922341,1,0,427357.912834431,427358.959868757,8,1,1,24,3,21201909,20400909,2190010,20001509,0,0,0,0,0,0,0,0,21201909,0,20400909,0,0,0,0,0,0,0,0,0,0,0,0,-2190010,0,0,0,20001509,0,0,0,0,0,0,0,0
24,191,407.075134047773,1,0,427360.618654986,427361.665685462,8,0,1,34,3,21101719,0,50810838,4101101,0,21101719,0,0,0,0,0,0,0,0,0,0,0,0,0,0,0,0,0,0,0,20310819,0,0,0,30500019,0,0,0,0,0,0,0,-4101101,0,0
24,192,365.788296971004,0,0,427363.206831403,427364.25391539,8,1,0,14,9,52733737,83834907,31111819,42212018,10411709,0,0,0,10610619,0,31711409,0,0,0,21501909,0,0,-1031160,0,0,40300119,21001719,0,0,0,31111819,0,0,0,0,0,0,31602009,0,0,0,0,10610009,0,0
24,193,466.632288706023,0,0,427365.736185174,427366.783213341,8,0,0,12,31,236478541,172076963,218652122,135830093,21610609,10500719,10511319,30910419,40711609,10111309,40710619,31311819,40100119,11710309,40210009,-4030190,21500409,31101919,21811509,10511509,31201109,0,0,41012019,40110309,10901809,32011519,21201209,11702019,40111419,21601819,0,11100909,0,10101619,41711209,20401719,11002019,20900909,20611709
24,194,499.895738495979,1,0,427368.394950615,427369.441973778,8,1,1,33,19,150755493,94515156,123303865,77203017,30900409,21910109,12010819,12012009,0,11911209,20300919,0,41710019,40400819,11501519,0,11600809,31012009,0,0,0,0,20400409,0,21600519,20200419,21101209,0,40001309,0,0,22000719,0,0,0,32001009,-1200180,22001109,0,0
24,195,366.704507672694,0,0,427370.994884556,427372.041900404,8,1,0,7,3,45740059,0,42000319,11601909,0,0,41710019,0,0,0,-4030040,0,0,0,0,0,0,0,0,0,0,0,0,0,0,0,0,42000319,0,0,0,11601909,0,0,0,0,0,0,0,0
24,196,528.113485546783,1,0,427373.500709807,427374.54772912,8,1,1,26,19,73620528,226844084,167993086,188448304,0,0,0,0,0,0,0,31710219,41910309,40710809,20210119,41802019,41810309,40300009,0,0,42010819,0,31800009,41911019,0,21600219,31201519,0,40310309,-1170011,0,0,40301319,42010519,22010619,41812019,31101909,11211919,0,0
24,197,479.085237311665,0,0,427376.135980605,427377.182757978,8,1,0,11,31,230750221,171700204,205039393,196248412,20701809,20811119,42000419,40602019,11011709,41301009,11311409,11010009,32000719,11212019,-3071001,11601009,40501809,0,10600819,42011519,21601609,31100419,21110809,40101509,0,30411919,20810709,41900409,0,40202019,10502019,40210009,11311909,0,20810409,40412019,11101919,21800119,40301209,10300819
24,198,428.832441451959,0,0,427378.841748806,427379.888830097,8,0,0,1,31,260337412,135025874,208938812,260658731,-1111000,31200419,11900519,31001119,40300319,21011109,41911509,41401109,40500309,0,0,41701919,41401009,20700419,0,11011009,10010309,10201209,20410609,21811319,0,21701319,30901319,30601709,11400309,31500619,40611609,20510809,42001519,40101519,11800119,21611409,20710609,40810319,31900609,31211819
24,199,489.328519441187,1,0,427381.406389389,427382.453422176,8,0,1,20,9,81722447,112711547,15321270,52001428,0,0,0,10410019,40511019,30801409,0,0,0,40800509,0,40700819,0,31210219,0,0,0,0,0,-4021151,11300119,0,0,0,0,0,0,31100809,0,0,0,0,20900619,0,0,0
24,200,519.230477220844,0,0,427383.9592763,427385.006302927,8,1,0,36,9,91832637,30211709,113914956,35761210,0,0,40610609,0,0,40410219,10811809,0,0,0,0,0,0,0,0,30211709,0,0,21901209,30701909,0,0,0,0,30011719,0,31300119,0,0,31711019,0,0,0,0,0,-4050191
24,201,469.587645377032,1,0,427386.618033656,427387.665064133,8,0,1,35,9,103314666,82521918,11210219,63844048,11901809,0,0,30500119,0,20601219,40311519,0,0,0,41011509,0,0,0,41510409,0,0,0,0,0,0,0,0,0,0,11210219,0,0,21101919,0,0,0,0,41601109,-1141020,0
24,202,620.383593719453,0,0,427389.206280522,427390.253238241,8,0,0,8,9,54523858,41410809,52810328,93523147,10702019,0,11410409,0,0,0,30411319,-2000111,0,0,0,41410809,0,0,0,0,0,0,0,0,0,0,0,0,21600019,31210309,0,0,41701209,0,0,0,40711019,11110919,0,0
24,203,448.926711047534,1,0,427391.935555684,427392.982582696,8,0,1,25,3,10811519,30010509,13832860,0,0,0,10811519,0,0,0,0,0,0,0,0,30010509,0,0,0,0,0,0,0,0,0,0,10811719,0,-3021141,0,0,0,0,0,0,0,0,0,0,0
24,204,473.463832226116,1,0,427394.606077108,427395.65310489,8,0,1,28,3,10501009,41611719,0,34480430,0,0,0,0,0,10501009,0,0,0,0,0,0,41611719,0,0,0,0,0,0,0,0,0,0,0,0,0,0,-4070021,0,0,0,0,0,0,0,30410409
24,205,445.550590404309,0,0,427397.300125511,427398.347167922,8,0,0,6,19,106115405,125124146,93835385,174036575,41811509,11810519,0,0,0,-1170030,11011519,10000919,30310909,0,41800519,31211709,0,10900609,41211309,0,0,0,11300409,10510419,0,11401119,0,30412019,0,30211419,0,20611709,40811819,40101709,0,41300319,0,0,31211019,0
24,206,410.358478780836,0,0,427399.888300004,427400.935330481,8,1,0,9,19,186086755,144125964,94833166,53003747,0,0,30310919,21010009,40201609,21311909,41110419,31111709,-1030181,20900909,10200519,42010909,30100709,0,0,10211009,30701909,0,10000019,31710509,0,0,11111819,42010819,0,0,0,10200809,0,20801719,0,0,0,0,22001219,0
24,207,423.840248491615,1,0,427402.511776323,427403.558814884,8,1,1,3,31,168635923,237536041,147470002,229950293,20201209,31601409,-3030040,0,30401319,20401109,21900709,30600109,10500019,40200219,21210409,10500719,30810319,10100119,20100419,31810509,31101519,41701809,22011619,21101609,20701609,11710209,10711009,0,30110419,20911709,10211819,31601709,41001719,30911509,40701719,0,0,12010909,31911319,41811409
24,208,577.575770032126,0,0,427405.099950046,427406.146968203,8,0,0,5,0,0,0,0,0,0,0,0,0,-21611601,0,0,0,0,0,0,0,0,0,0,0,0,0,0,0,0,0,0,0,0,0,0,0,0,0,0,0,0,0,0,0
24,209,713.11142219929,0,0,427419.95840667,427421.005439841,9,0,0,20,3,0,0,24941690,51512828,0,0,0,0,0,0,0,0,0,0,0,0,0,0,0,0,0,0,0,-3141071,0,21800619,0,0,0,0,0,0,0,30611309,0,0,20901519,0,0,0
24,210,428.505608288106,1,0,427422.734816248,427423.78184249,9,0,1,22,3,21611709,0,1081051,42721638,0,21611709,0,0,0,0,0,0,0,0,0,0,0,0,0,0,0,0,0,0,0,-1081051,0,0,0,0,0,0,21810719,20910919,0,0,0,0,0,0
24,211,395.248702843674,0,0,427425.311222439,427426.358251376,9,1,0,10,0,0,0,0,0,0,0,0,0,0,0,0,0,0,-20811691,0,0,0,0,0,0,0,0,0,0,0,0,0,0,0,0,0,0,0,0,0,0,0,0,0,0
24,212,510.66313800402,1,0,427427.887632864,427428.934659876,9,0,1,25,9,83312247,32322328,3040151,74433446,21900209,0,0,0,20201119,0,0,0,41210919,0,0,0,0,21510909,10811419,0,0,0,0,0,0,0,0,0,-3040151,0,0,0,0,0,0,22001709,21710319,0,10211109,20510309
24,213,475.432145176455,1,0,427430.522867861,427431.569905652,9,0,1,34,31,260047232,204734874,221161031,241519082,40601719,21410819,30601619,41000719,0,21910509,41511109,21100219,41910519,0,40310519,40400109,41600919,41700409,30211609,0,0,10511309,12001409,40501919,11301419,31710909,30900919,10810819,20311919,31611409,32010309,30410719,41310609,30900209,20111519,21801919,40011719,-4160150,31910619,20901619
24,214,533.17304700613,0,0,427433.146330706,427434.193349249,9,0,0,30,9,21911538,62222028,0,98827015,0,0,10200219,0,11711319,0,0,0,0,0,0,0,31911609,0,0,0,0,30310419,0,0,0,0,0,0,0,0,0,0,0,-4001040,11100819,20101909,11211619,31810619,20601009,0
24,215,385.584220755845,1,0,427435.875674776,427436.922702558,9,1,1,14,9,52733737,83834907,31111819,42212018,10411709,0,0,0,10610619,0,31711409,0,0,0,21501909,0,0,-1031160,0,0,40300119,21001719,0,0,0,31111819,0,0,0,0,0,0,31602009,0,0,0,0,10610009,0,0
24,216,455.648925271817,1,0,427438.475611026,427439.522640733,9,0,1,28,3,0,0,21610138,33762789,0,0,0,0,0,0,0,0,0,0,0,0,0,0,0,0,0,0,0,0,11300119,0,0,10310019,0,0,0,-2061180,0,0,0,0,0,31701609,0,0
24,217,442.502457823139,0,0,427441.016733099,427442.063758186,9,1,0,11,31,230750221,171700204,205039393,196248412,20701809,20811119,42000419,40602019,11011709,41301009,11311409,11010009,32000719,11212019,-3071001,11601009,40501809,0,10600819,42011519,21601609,31100419,21110809,40101509,0,30411919,20810709,41900409,0,40202019,10502019,40210009,11311909,0,20810409,40412019,11101919,21800119,40301209,10300819
24,218,430.294528836384,0,0,427443.5931416,427444.640167072,9,1,0,26,19,73620528,226844084,167993086,188448304,0,0,0,0,0,0,0,31710219,41910309,40710809,20210119,41802019,41810309,40300009,0,0,42010819,0,31800009,41911019,0,21600219,31201519,0,40310309,-1170011,0,0,40301319,42010519,22010619,41812019,31101909,11211919,0,0
24,219,531.458424229641,0,0,427446.098965312,427447.145992709,9,1,0,29,3,32010409,30900719,10200819,3080110,0,0,0,0,0,0,32010409,0,0,0,0,0,0,30900719,0,0,0,0,0,0,10200819,0,0,0,0,0,0,0,-3080110,0,0,0,0,0,0,0
24,220,452.39676249912,1,0,427448.757719204,427449.804752375,9,1,1,3,31,168635923,237536041,147470002,229950293,20201209,31601409,-3030040,0,30401319,20401109,21900709,30600109,10500019,40200219,21210409,10500719,30810319,10100119,20100419,31810509,31101519,41701809,22011619,21101609,20701609,11710209,10711009,0,30110419,20911709,10211819,31601709,41001719,30911509,40701719,0,0,12010909,31911319,41811409
24,221,486.408194352407,1,0,427451.451776846,427452.498806168,9,1,1,33,19,150755493,94515156,123303865,77203017,30900409,21910109,12010819,12012009,0,11911209,20300919,0,41710019,40400819,11501519,0,11600809,31012009,0,0,0,0,20400409,0,21600519,20200419,21101209,0,40001309,0,0,22000719,0,0,0,32001009,-1200180,22001109,0,0
24,222,357.898876711261,0,0,427454.016432444,427455.063452141,9,0,0,1,31,194747693,195534303,195368921,237058812,-4001200,11500509,11611709,21701819,31210109,0,41600619,31710019,41411709,31000019,0,21100119,40611209,0,41010419,10200609,41400509,10211419,20310909,20112009,20602019,10310809,20400309,21110019,40210019,30301219,12011609,40600019,0,20311809,31110209,31111819,20511519,10101809,41410809,41900819
24,223,467.387585027609,0,0,427456.545770816,427457.592797443,9,1,0,4,31,120017984,231129031,197857093,188037412,10311309,11210719,11900809,-2060091,0,10001309,31910819,21511219,21111709,12001819,31401009,31400319,21300009,10411119,20600019,22011909,41801419,40201409,40411319,0,11311219,31201009,0,10800209,31311609,41910019,30911709,10800109,20800309,40300509,20411819,11301719,0,21701119,31910419,30811409
24,224,415.308325842489,1,0,427459.086890195,427460.133910277,9,1,1,9,19,186086755,144125964,94833166,53003747,0,0,30310919,21010009,40201609,21311909,41110419,31111709,-1030181,20900909,10200519,42010909,30100709,0,0,10211009,30701909,0,10000019,31710509,0,0,11111819,42010819,0,0,0,10200809,0,20801719,0,0,0,0,22001219,0
24,225,520.394603605382,0,0,427461.592703128,427462.639736684,9,0,0,35,19,135523575,114126884,112735066,104255156,0,32000909,0,20001019,0,31910019,40500809,11110819,0,20311119,0,10911909,20500709,30801409,0,21201519,0,10400219,0,0,10301619,0,0,40611419,30611519,31210509,0,0,20110309,30410809,41111909,0,0,0,-2121120,10501009
24,226,381.691095535643,0,0,427464.298516753,427465.345558009,9,0,0,23,0,0,0,0,0,0,0,0,0,0,0,0,0,0,0,0,0,0,0,0,0,0,0,0,0,0,0,-31810401,0,0,0,0,0,0,0,0,0,0,0,0,0
24,227,424.906594445929,1,0,427466.816110692,427467.863136549,9,1,1,36,9,91832637,30211709,113914956,35761210,0,0,40610609,0,0,40410219,10811809,0,0,0,0,0,0,0,0,30211709,0,0,21901209,30701909,0,0,0,0,30011719,0,31300119,0,0,31711019,0,0,0,0,0,-4050191
24,228,421.501601638738,1,0,427469.439583546,427470.486608633,9,0,1,5,19,156824955,123313066,176758113,73034027,30401219,40100009,20310619,21010819,-3101070,0,41901219,0,0,10300219,0,40001019,41810119,31201709,0,0,0,0,11110019,0,20211819,21501419,41911419,20411619,20711709,40900109,0,0,0,21311809,0,11511009,0,0,40211209,0
24,229,390.412034699693,1,0,427472.074808918,427473.12184132,9,1,1,24,3,21201909,20400909,2190010,20001509,0,0,0,0,0,0,0,0,21201909,0,20400909,0,0,0,0,0,0,0,0,0,0,0,0,-2190010,0,0,0,20001509,0,0,0,0,0,0,0,0
24,230,492.062522680499,0,0,427474.662984951,427475.710015043,9,0,0,12,31,258058812,169386113,251568141,249428073,30010209,11810119,40511719,31711909,41401219,31702019,40110309,30801309,0,10910209,31300909,-1141040,41700609,10311109,11210609,21901409,0,40910219,31710719,31800319,20310019,11900009,21411719,31801219,30711209,30511119,41411809,0,41902009,41811509,0,42010919,30100909,11601709,40100309,41900709
24,231,543.875002884306,1,0,427477.251159059,427478.298229186,9,0,1,6,19,118233626,186127064,124526375,114123256,0,40000809,30800219,0,0,-4120170,31311119,0,12001309,41700009,30501719,20800609,31311809,0,30701909,0,31111009,0,31501609,30301019,0,10111619,21511209,0,31100919,0,0,0,0,20810219,0,30401719,0,0,41200509,21710809
24,232,476.01844300516,1,0,427479.909921805,427480.956948817,9,0,1,8,9,44622819,63702018,86143446,11701419,20710809,0,0,0,0,0,20911909,-3000101,0,0,0,0,0,0,41700309,22001709,0,0,11810209,0,0,11310909,21110609,0,41911719,0,0,0,0,0,0,0,0,0,11701419,0
24,233,406.436481396668,0,0,427482.615735815,427483.662762443,9,1,0,19,9,83813557,62321628,13810359,94813637,11600419,0,0,0,0,0,40312019,31901119,0,41011109,0,0,0,0,0,0,0,21310519,-3000050,0,0,0,0,0,0,0,10810309,0,0,21400609,0,31801409,0,0,41611619,0
24,234,361.166052985936,0,0,427485.203910308,427486.250937705,9,1,0,7,3,45740059,0,42000319,11601909,0,0,41710019,0,0,0,-4030040,0,0,0,0,0,0,0,0,0,0,0,0,0,0,0,0,42000319,0,0,0,11601909,0,0,0,0,0,0,0,0
24,235,397.588504594751,1,0,427501.61527617,427502.662305877,10,0,1,5,19,178735174,146432565,101634446,84023566,30000219,10901819,0,41300109,-4010180,21110619,30800609,0,40611619,21810109,31811009,41400319,0,0,0,31410719,20000409,0,20001919,0,0,10310809,0,0,0,41010609,30311109,11401219,0,0,11700309,30110719,0,0,30811319,0
24,236,412.655164720491,1,0,427504.262275619,427505.309305711,10,1,1,3,31,168635923,237536041,147470002,229950293,20201209,31601409,-3030040,0,30401319,20401109,21900709,30600109,10500019,40200219,21210409,10500719,30810319,10100119,20100419,31810509,31101519,41701809,22011619,21101609,20701609,11710209,10711009,0,30110419,20911709,10211819,31601709,41001719,30911509,40701719,0,0,12010909,31911319,41811409
24,237,356.563441979233,0,0,427506.803388068,427507.85041893,10,1,0,9,19,186086755,144125964,94833166,53003747,0,0,30310919,21010009,40201609,21311909,41110419,31111709,-1030181,20900909,10200519,42010909,30100709,0,0,10211009,30701909,0,10000019,31710509,0,0,11111819,42010819,0,0,0,10200809,0,20801719,0,0,0,0,22001219,0
24,238,474.164078885224,1,0,427509.391563716,427510.438589573,10,0,1,25,3,41111019,41411609,1000191,21901009,41111019,0,0,0,0,0,0,0,0,0,0,41411609,0,0,0,0,0,0,0,0,0,0,0,0,-1000191,0,0,0,0,0,0,0,21901009,0,0,0
24,239,478.076067229267,1,0,427512.120905861,427513.167941342,10,0,1,1,9,44783118,82911528,51821128,52213628,-2181171,11100609,10701219,0,0,20800119,0,0,0,41711119,0,0,41200409,0,0,0,0,0,20410419,0,31410709,0,0,0,0,0,0,0,0,0,0,0,40701919,11511709,0,0
24,240,383.366067137104,0,0,427514.791436909,427515.838460841,10,0,0,20,31,228742211,248452621,118474525,188430402,41500609,21700719,10402009,10610109,41111409,20101909,31701819,41501909,10111719,31810009,31611109,31302019,10701019,10712019,40101609,30601009,40101909,21511919,41701809,-1160170,0,11601309,0,11800209,40901009,11310019,0,10311909,11500409,30901219,0,41900819,20800909,20401719,41001509,11611909
24,241,525.885707931593,0,0,427517.414903219,427518.461930616,10,1,0,29,3,32010409,30900719,10200819,3080110,0,0,0,0,0,0,32010409,0,0,0,0,0,0,30900719,0,0,0,0,0,0,10200819,0,0,0,0,0,0,0,-3080110,0,0,0,0,0,0,0
24,242,353.755910880864,1,0,427520.108992043,427521.155992878,10,0,1,22,31,230378231,258730701,116256806,167351222,10500419,30710419,31111509,40310809,21611519,21111409,11310819,21910009,41801319,40700209,20701119,32011109,30100919,31111509,10501509,21301309,31001809,41301209,11710509,10310909,30911309,-2121061,40101309,0,0,0,21101709,20010819,21501809,0,21201309,30311619,31311809,11900119,20701819,10411919
24,243,490.700140653644,1,0,427522.638305779,427523.685334715,10,0,1,34,31,189947882,158539203,288138931,189546773,41402009,0,41010609,41510719,10311309,11701409,11100709,12011009,20900109,11900519,20201709,0,21711419,30901919,20701909,0,41211409,11910319,30001509,40300619,40911109,11101709,41600719,40601119,30111309,11500219,42010619,10100219,31800709,41301419,0,20400109,21411919,-3021070,30100309,31411019
24,244,337.072023598012,0,0,427525.320593195,427526.367616742,10,1,0,19,9,83813557,62321628,13810359,94813637,11600419,0,0,0,0,0,40312019,31901119,0,41011109,0,0,0,0,0,0,0,21310519,-3000050,0,0,0,0,0,0,0,10810309,0,0,21400609,0,31801409,0,0,41611619,0
24,245,543.459243432153,0,0,427527.838178664,427528.885207216,10,1,0,36,9,91832637,30211709,113914956,35761210,0,0,40610609,0,0,40410219,10811809,0,0,0,0,0,0,0,0,30211709,0,0,21901209,30701909,0,0,0,0,30011719,0,31300119,0,0,31711019,0,0,0,0,0,-4050191
24,246,389.75913845934,1,0,427530.449923252,427531.496906378,10,1,1,4,31,120017984,231129031,197857093,188037412,10311309,11210719,11900809,-2060091,0,10001309,31910819,21511219,21111709,12001819,31401009,31400319,21300009,10411119,20600019,22011909,41801419,40201409,40411319,0,11311219,31201009,0,10800209,31311609,41910019,30911709,10800109,20800309,40300509,20411819,11301719,0,21701119,31910419,30811409
24,247,461.050333280582,0,0,427533.002762812,427534.049787514,10,0,0,12,9,20701809,103113828,95024537,72812428,0,0,0,0,0,0,0,0,20701809,0,0,-3000201,40000309,0,40111609,0,0,20001709,41411519,0,11701509,41911509,0,0,0,0,0,30901309,0,0,0,0,0,0,0,41911119
24,248,448.539053846616,0,0,427535.685049073,427536.732080705,10,0,0,8,19,98734346,115224956,188035584,104937485,0,0,30010519,0,21700619,20901519,22010509,-4111180,0,20511309,0,0,31811319,41702019,0,0,0,21200309,0,31811319,40410309,41401819,11110719,0,21900709,0,41400709,40311919,0,0,11501719,0,0,20800619,21212019,11111209
24,249,484.353264793754,0,0,427538.367343804,427539.414368891,10,0,0,30,3,0,0,30100619,65954419,0,0,0,0,0,0,0,0,0,0,0,0,0,0,0,0,0,0,0,0,0,0,0,30100619,0,0,0,0,0,-4151001,31402009,0,0,30401409,0,0
24,250,388.62195936963,1,0,427541.084978471,427542.131978921,10,0,1,28,3,0,30301519,0,72672799,0,0,0,0,0,0,0,0,0,0,30301519,0,0,0,0,0,0,0,0,0,0,0,0,0,0,0,0,-1051161,0,0,30710519,0,40911119,0,0,0
24,251,391.478380712215,0,0,427543.614275268,427544.661300355,10,1,0,24,3,21201909,20400909,2190010,20001509,0,0,0,0,0,0,0,0,21201909,0,20400909,0,0,0,0,0,0,0,0,0,0,0,0,-2190010,0,0,0,20001509,0,0,0,0,0,0,0,0
24,252,616.652537661139,1,0,427546.131859967,427547.178890059,10,0,1,35,9,33312728,73723047,63821818,54551949,21301409,0,0,0,0,0,0,0,12011319,31010519,0,0,0,0,10700719,32011809,0,0,0,0,0,0,31911409,0,0,31910409,0,0,0,0,0,31310219,0,0,-3040111,20201619
24,253,461.726327310316,1,0,427548.87297003,427549.920002431,10,1,1,14,9,52733737,83834907,31111819,42212018,10411709,0,0,0,10610619,0,31711409,0,0,0,21501909,0,0,-1031160,0,0,40300119,21001719,0,0,0,31111819,0,0,0,0,0,0,31602009,0,0,0,0,10610009,0,0
24,254,419.017054024152,0,0,427551.53178821,427552.578789045,10,0,0,6,19,145515745,159047493,31521228,116724355,20211709,31100509,0,31510919,0,-1180080,21511109,0,40001419,20701209,11310809,0,0,21811209,21911519,40111409,11600419,31600919,0,0,0,0,0,0,0,11011019,20510209,0,0,0,21611209,10901109,31800809,0,40610809,11800419
24,255,451.116377429571,0,0,427554.037549173,427555.084579265,10,0,0,25,0,0,0,0,0,0,0,0,0,0,0,0,0,0,0,0,0,0,0,0,0,0,0,0,0,0,0,0,0,-40310101,0,0,0,0,0,0,0,0,0,0,0
24,256,699.62503289571,1,0,427556.661017793,427557.708050194,10,1,1,7,3,45740059,0,42000319,11601909,0,0,41710019,0,0,0,-4030040,0,0,0,0,0,0,0,0,0,0,0,0,0,0,0,0,42000319,0,0,0,11601909,0,0,0,0,0,0,0,0
24,257,457.489430671558,1,0,427559.602122774,427560.64915633,10,1,1,33,19,150755493,94515156,123303865,77203017,30900409,21910109,12010819,12012009,0,11911209,20300919,0,41710019,40400819,11501519,0,11600809,31012009,0,0,0,0,20400409,0,21600519,20200419,21101209,0,40001309,0,0,22000719,0,0,0,32001009,-1200180,22001109,0,0
24,258,343.616000143811,0,0,427562.307937169,427563.354961102,10,1,0,10,0,0,0,0,0,0,0,0,0,0,0,0,0,0,-20811691,0,0,0,0,0,0,0,0,0,0,0,0,0,0,0,0,0,0,0,0,0,0,0,0,0,0
24,259,571.552647626959,0,0,427564.849056163,427565.896083175,10,1,0,26,19,73620528,226844084,167993086,188448304,0,0,0,0,0,0,0,31710219,41910309,40710809,20210119,41802019,41810309,40300009,0,0,42010819,0,31800009,41911019,0,21600219,31201519,0,40310309,-1170011,0,0,40301319,42010519,22010619,41812019,31101909,11211919,0,0
24,260,365.120387170464,1,0,427567.672518546,427568.719544403,10,1,1,11,31,230750221,171700204,205039393,196248412,20701809,20811119,42000419,40602019,11011709,41301009,11311409,11010009,32000719,11212019,-3071001,11601009,40501809,0,10600819,42011519,21601609,31100419,21110809,40101509,0,30411919,20810709,41900409,0,40202019,10502019,40210009,11311909,0,20810409,40412019,11101919,21800119,40301209,10300819
24,261,379.375931399409,1,0,427594.813036767,427595.860069938,11,0,1,22,31,209536193,187547602,227649442,198249522,0,41410119,41700819,12000809,30201109,0,22011209,20400309,41811819,41201309,0,30411309,10900109,32000009,20401619,11611109,20811719,20210419,41911509,40211619,20100309,-2100040,11101809,10001619,30610419,30301409,41310709,0,11010219,21911819,21100309,10102019,40701909,41411219,20511109,31500919
24,262,387.380840431433,0,0,427597.412979946,427598.460009268,11,0,0,8,31,246466762,240443631,105956884,209146402,30811119,21011519,40300419,30911709,21100319,40410219,20600419,-1021020,40300019,30301609,10900919,31211819,42010419,11002019,41411709,21001709,21501419,31102009,40901019,10811719,11311309,0,21811619,11110409,0,0,10010809,0,11710619,21910109,20310209,31001909,41700509,41400709,30910619,10201719
24,263,422.00628737919,0,0,427600.048214173,427601.095233871,11,0,0,5,3,44600749,0,52812338,0,0,0,0,0,-4200030,0,0,0,40400719,0,0,0,0,0,0,0,0,0,0,0,0,11501219,0,0,0,0,41311119,0,0,0,0,0,0,0,0,0
24,264,430.457752896473,1,0,427602.65991911,427603.706944967,11,1,1,19,9,83813557,62321628,13810359,94813637,11600419,0,0,0,0,0,40312019,31901119,0,41011109,0,0,0,0,0,0,0,21310519,-3000050,0,0,0,0,0,0,0,10810309,0,0,21400609,0,31801409,0,0,41611619,0
24,265,469.278520497028,1,0,427605.153961816,427606.200993063,11,0,1,30,19,144104885,94632237,166036904,155995945,0,31600309,0,0,20100619,40101219,31202019,21100719,0,0,21810009,0,41711009,0,0,31111219,0,0,10301519,0,0,0,40710119,21110909,41701319,10701919,41511119,41601319,40301509,-1060080,0,21811909,0,10311119,0,40910009
24,266,481.760157796089,1,0,427607.765675222,427608.812705699,11,1,1,3,31,168635923,237536041,147470002,229950293,20201209,31601409,-3030040,0,30401319,20401109,21900709,30600109,10500019,40200219,21210409,10500719,30810319,10100119,20100419,31810509,31101519,41701809,22011619,21101609,20701609,11710209,10711009,0,30110419,20911709,10211819,31601709,41001719,30911509,40701719,0,0,12010909,31911319,41811409
24,267,477.813522797078,0,0,427610.424441433,427611.47146883,11,1,0,26,19,73620528,226844084,167993086,188448304,0,0,0,0,0,0,0,31710219,41910309,40710809,20210119,41802019,41810309,40300009,0,0,42010819,0,31800009,41911019,0,21600219,31201519,0,40310309,-1170011,0,0,40301319,42010519,22010619,41812019,31101909,11211919,0,0
24,268,314.820424420759,0,0,427612.97730871,427614.024401551,11,1,0,7,3,45740059,0,42000319,11601909,0,0,41710019,0,0,0,-4030040,0,0,0,0,0,0,0,0,0,0,0,0,0,0,0,0,42000319,0,0,0,11601909,0,0,0,0,0,0,0,0
24,269,447.71138462238,0,0,427615.459604288,427616.506633609,11,0,0,28,9,113824956,0,61824557,64352798,0,0,40010809,20600219,32012019,0,0,21201909,0,0,0,0,0,0,0,0,0,0,0,0,10401819,0,0,21011519,0,30411219,0,-3140170,20110919,0,0,0,0,41101709,0,0
24,270,374.829524953384,1,0,427618.01252623,427619.059511281,11,0,1,35,9,41813347,73111647,74811837,3020130,0,10600719,0,0,0,0,20410919,10801709,0,0,0,0,21100319,30810609,21200719,0,0,0,0,0,0,0,42010109,0,11601019,0,21200709,0,0,0,0,0,0,0,-3020130,0
24,271,352.066695690155,0,0,427620.577129857,427621.62415071,11,0,0,34,3,40900319,21900419,20410609,1151181,40900319,0,0,0,0,0,0,0,0,0,0,0,21900419,0,0,0,0,0,0,0,0,0,0,20410609,0,0,0,0,0,0,0,0,0,-1151181,0,0
24,272,309.285819414072,1,0,427623.035895375,427624.082921232,11,0,1,28,0,0,0,0,0,0,0,0,0,0,0,0,0,0,0,0,0,0,0,0,0,0,0,0,0,0,0,0,0,0,0,0,-10611701,0,0,0,0,0,0,0,0
24,273,367.508309194818,1,0,427625.447597309,427626.494635485,11,1,1,29,3,32010409,30900719,10200819,3080110,0,0,0,0,0,0,32010409,0,0,0,0,0,0,30900719,0,0,0,0,0,0,10200819,0,0,0,0,0,0,0,-3080110,0,0,0,0,0,0,0
24,274,353.512614674401,0,0,427628.035777191,427629.082800354,11,1,0,33,19,150755493,94515156,123303865,77203017,30900409,21910109,12010819,12012009,0,11911209,20300919,0,41710019,40400819,11501519,0,11600809,31012009,0,0,0,0,20400409,0,21600519,20200419,21101209,0,40001309,0,0,22000719,0,0,0,32001009,-1200180,22001109,0,0
24,275,404.366538336035,1,0,427630.588659867,427631.635684184,11,0,1,6,31,269249282,155840483,177746403,239548721,40701919,21211319,20400819,41211709,20910319,-2200050,40501719,41311219,40800209,10311609,0,30801719,10401519,12011909,21101109,40900609,0,30312009,11010419,30711919,42010709,0,11200219,10800709,0,30300419,41712009,31101409,40610509,42000209,20310719,21801719,12011319,30611109,20501509,20600219
24,276,410.738436679821,0,0,427633.094476265,427634.141499427,11,1,0,9,19,186086755,144125964,94833166,53003747,0,0,30310919,21010009,40201609,21311909,41110419,31111709,-1030181,20900909,10200519,42010909,30100709,0,0,10211009,30701909,0,10000019,31710509,0,0,11111819,42010819,0,0,0,10200809,0,20801719,0,0,0,0,22001219,0
24,277,444.692509132437,1,0,427635.600296512,427636.647387043,11,0,1,25,3,0,0,53712059,31310619,0,0,0,0,0,0,0,0,0,0,0,0,0,0,0,0,0,0,0,20300519,0,0,0,0,-2111031,0,31300509,0,0,0,0,0,0,0,31310619,0
24,278,406.632042315323,1,0,427638.282597786,427639.329615174,11,0,1,20,19,146329874,136035894,96785378,112825076,0,41211419,20700909,30501909,10311709,0,11701919,0,31902009,10410519,0,0,40911019,0,11411809,21401409,30100219,21800919,0,-3081131,0,0,21701019,41401609,30601619,0,0,11012019,41501219,20211819,0,0,0,0,0,40100019
24,279,613.431171979755,0,0,427640.929577987,427641.976604614,11,1,0,36,9,91832637,30211709,113914956,35761210,0,0,40610609,0,0,40410219,10811809,0,0,0,0,0,0,0,0,30211709,0,0,21901209,30701909,0,0,0,0,30011719,0,31300119,0,0,31711019,0,0,0,0,0,-4050191
24,280,493.654727353714,1,0,427643.682452502,427644.729489138,11,0,1,1,9,82951728,40500819,94423227,93523727,-2151010,40000309,40800409,0,0,0,0,0,0,0,0,40500819,0,0,0,0,0,0,41410409,0,0,31611309,0,0,21401509,0,0,40212009,0,0,41910809,11400909,0,0,0,0
24,281,397.176979749929,0,0,427646.400035199,427647.447061441,11,1,0,10,0,0,0,0,0,0,0,0,0,0,0,0,0,0,-20811691,0,0,0,0,0,0,0,0,0,0,0,0,0,0,0,0,0,0,0,0,0,0,0,0,0,0
24,282,403.816042060498,0,0,427648.941149958,427649.988208537,11,0,0,12,19,95113995,105716397,73147765,122533555,0,41401819,21301019,0,0,0,10810519,10700519,10900119,0,30601619,-4001031,20611709,30000219,20501819,0,0,0,10201309,0,0,0,11112019,11211419,0,10211509,30411509,30100209,10410719,0,0,30710509,20811809,0,0,30500309
24,283,563.972737116273,0,0,427651.541090058,427652.58811938,11,1,0,11,31,230750221,171700204,205039393,196248412,20701809,20811119,42000419,40602019,11011709,41301009,11311409,11010009,32000719,11212019,-3071001,11601009,40501809,0,10600819,42011519,21601609,31100419,21110809,40101509,0,30411919,20810709,41900409,0,40202019,10502019,40210009,11311909,0,20810409,40412019,11101919,21800119,40301209,10300819
24,284,435.548881185241,0,0,427654.364547821,427655.411579068,11,1,0,4,31,120017984,231129031,197857093,188037412,10311309,11210719,11900809,-2060091,0,10001309,31910819,21511219,21111709,12001819,31401009,31400319,21300009,10411119,20600019,22011909,41801419,40201409,40411319,0,11311219,31201009,0,10800209,31311609,41910019,30911709,10800109,20800309,40300509,20411819,11301719,0,21701119,31910419,30811409
24,285,464.255915547255,1,0,427656.90566027,427657.952691517,11,1,1,14,9,52733737,83834907,31111819,42212018,10411709,0,0,0,10610619,0,31711409,0,0,0,21501909,0,0,-1031160,0,0,40300119,21001719,0,0,0,31111819,0,0,0,0,0,0,31602009,0,0,0,0,10610009,0,0
24,286,470.728674030397,1,0,427659.529144288,427660.576163216,11,1,1,24,3,21201909,20400909,2190010,20001509,0,0,0,0,0,0,0,0,21201909,0,20400909,0,0,0,0,0,0,0,0,0,0,0,0,-2190010,0,0,0,20001509,0,0,0,0,0,0,0,0
24,287,578.447325038724,1,0,427678.246317771,427679.293359027,12,0,1,30,31,177423293,241447381,176734703,151959162,0,0,41300519,30700419,10900909,11100409,20710309,31300619,31410109,10710509,31811009,40110209,10300009,21001409,11801209,31800109,41901509,42011409,10910009,21401419,0,40400709,41500309,10500619,0,41810719,10210919,20911309,31700809,-1121060,11100019,21102009,11001919,31510309,12001719,11510009
24,288,440.75049366802,0,0,427681.046266648,427682.093288655,12,0,0,35,9,33510418,123133556,0,45631948,11510409,0,0,0,0,0,22000009,0,0,0,40711109,20910509,0,0,40210119,21301819,0,0,0,0,0,0,0,0,0,0,0,21500619,0,11310919,11710319,0,0,0,-1110091,0
24,289,370.119894389063,1,0,427683.575619264,427684.622642427,12,0,1,22,31,238062041,139557283,139835385,250650711,20200819,40911019,40302019,41111709,20912009,20901819,21910019,21400809,10411819,11900219,31211509,41411619,11401009,20811209,11911009,0,0,10910709,31300309,21510819,31500809,-3200201,30201619,11411009,0,10710619,0,41210419,11000509,11311919,41212009,40100709,11600009,30911309,41602009,21701819
24,290,331.182483176235,0,0,427686.022609166,427687.069641952,12,0,0,7,0,0,0,0,0,0,0,0,0,0,0,-41500691,0,0,0,0,0,0,0,0,0,0,0,0,0,0,0,0,0,0,0,0,0,0,0,0,0,0,0,0,0
24,291,467.284800019115,1,0,427688.422553192,427689.469582514,12,1,1,19,9,83813557,62321628,13810359,94813637,11600419,0,0,0,0,0,40312019,31901119,0,41011109,0,0,0,0,0,0,0,21310519,-3000050,0,0,0,0,0,0,0,10810309,0,0,21400609,0,31801409,0,0,41611619,0
24,292,385.85253956262,0,0,427690.951963168,427691.998947064,12,1,0,4,31,120017984,231129031,197857093,188037412,10311309,11210719,11900809,-2060091,0,10001309,31910819,21511219,21111709,12001819,31401009,31400319,21300009,10411119,20600019,22011909,41801419,40201409,40411319,0,11311219,31201009,0,10800209,31311609,41910019,30911709,10800109,20800309,40300509,20411819,11301719,0,21701119,31910419,30811409
24,293,360.327604750637,0,0,427693.469491663,427694.516520985,12,1,0,29,3,32010409,30900719,10200819,3080110,0,0,0,0,0,0,32010409,0,0,0,0,0,0,30900719,0,0,0,0,0,0,10200819,0,0,0,0,0,0,0,-3080110,0,0,0,0,0,0,0
24,294,419.949818053283,1,0,427696.057668466,427697.104685469,12,0,1,6,9,32232040,30812028,31203118,94645056,0,31212019,0,0,0,-1020021,0,0,0,0,0,10510319,0,0,0,0,20301709,0,20701109,0,0,0,10502009,0,0,0,0,0,0,21811119,0,40811309,0,20911309,0,11111319
24,295,334.093954123091,0,0,427698.598783224,427699.645801767,12,1,0,9,19,186086755,144125964,94833166,53003747,0,0,30310919,21010009,40201609,21311909,41110419,31111709,-1030181,20900909,10200519,42010909,30100709,0,0,10211009,30701909,0,10000019,31710509,0,0,11111819,42010819,0,0,0,10200809,0,20801719,0,0,0,0,22001219,0
24,296,320.150229439605,1,0,427701.104603087,427702.151631254,12,0,1,5,3,33063180,0,41511238,0,0,0,0,0,-2061161,0,31002019,0,0,0,0,0,0,0,0,0,0,0,20000919,0,0,0,0,21510319,0,0,0,0,0,0,0,0,0,0,0,0
24,297,481.03835323127,1,0,427703.492782276,427704.539809673,12,1,1,26,19,73620528,226844084,167993086,188448304,0,0,0,0,0,0,0,31710219,41910309,40710809,20210119,41802019,41810309,40300009,0,0,42010819,0,31800009,41911019,0,21600219,31201519,0,40310309,-1170011,0,0,40301319,42010519,22010619,41812019,31101909,11211919,0,0
24,298,458.847963134758,1,0,427706.186864171,427707.23387001,12,0,1,25,19,73425337,176745184,58014207,187034274,21201919,0,0,0,0,31311909,0,20911509,0,41411309,41311309,10200119,31010019,42012019,0,0,0,10800409,20400209,0,0,0,11210919,11810819,-3091151,0,11501109,41310219,0,11010819,41200509,41201409,0,10810109,0,41501209
24,299,459.060847351793,1,0,427708.751473573,427709.79850328,12,1,1,7,3,45740059,0,42000319,11601909,0,0,41710019,0,0,0,-4030040,0,0,0,0,0,0,0,0,0,0,0,0,0,0,0,0,42000319,0,0,0,11601909,0,0,0,0,0,0,0,0
24,300,458.470314973965,0,0,427711.469052806,427712.516088287,12,1,0,11,31,230750221,171700204,205039393,196248412,20701809,20811119,42000419,40602019,11011709,41301009,11311409,11010009,32000719,11212019,-3071001,11601009,40501809,0,10600819,42011519,21601609,31100419,21110809,40101509,0,30411919,20810709,41900409,0,40202019,10502019,40210009,11311909,0,20810409,40412019,11101919,21800119,40301209,10300819
24,301,440.471010981128,1,0,427714.104290112,427715.151314814,12,1,1,36,9,91832637,30211709,113914956,35761210,0,0,40610609,0,0,40410219,10811809,0,0,0,0,0,0,0,0,30211709,0,0,21901209,30701909,0,0,0,0,30011719,0,31300119,0,0,31711019,0,0,0,0,0,-4050191
24,302,369.137470261194,0,0,427716.798339671,427717.845369762,12,1,0,10,0,0,0,0,0,0,0,0,0,0,0,0,0,0,-20811691,0,0,0,0,0,0,0,0,0,0,0,0,0,0,0,0,0,0,0,0,0,0,0,0,0,0
24,303,661.937979632057,1,0,427719.233648272,427720.280601756,12,0,1,1,31,242136473,234977722,175940103,208446641,-4190180,41401109,40702019,31010109,41200919,0,41711319,21410009,20510809,11310709,30011019,30511609,0,30610309,40810119,40101519,31610619,20011819,41801519,11011909,0,30001619,0,31711309,20901719,30310409,10201619,21300309,21000319,11010419,21210319,40500719,20910109,31001419,10601009,30912019
24,304,383.621297194622,0,0,427721.962914965,427723.009952756,12,1,0,33,19,150755493,94515156,123303865,77203017,30900409,21910109,12010819,12012009,0,11911209,20300919,0,41710019,40400819,11501519,0,11600809,31012009,0,0,0,0,20400409,0,21600519,20200419,21101209,0,40001309,0,0,22000719,0,0,0,32001009,-1200180,22001109,0,0
24,305,534.700962889474,0,0,427724.46875369,427725.515783782,12,1,0,24,3,21201909,20400909,2190010,20001509,0,0,0,0,0,0,0,0,21201909,0,20400909,0,0,0,0,0,0,0,0,0,0,0,0,-2190010,0,0,0,20001509,0,0,0,0,0,0,0,0
24,306,445.541351335123,0,0,427727.198088906,427728.245139786,12,0,0,34,19,114224965,51222236,73916655,166035105,0,10010509,0,20501119,0,41111119,0,11300209,31302009,0,20011109,0,10000809,0,0,10510109,10700209,0,0,0,0,11801809,20210709,10101109,20301809,0,11501219,0,40000619,41411009,31901609,41301519,10400209,-1020140,0,0
24,307,416.155628161505,1,0,427729.880378632,427730.927407954,12,0,1,28,9,40011919,92527775,72211638,12200160,0,0,0,0,0,40011919,0,0,0,40111909,10902009,0,0,0,11001719,0,10311019,20201119,0,0,0,0,31510119,0,40701519,0,0,-2090041,0,0,0,0,10110119,0,0,0
24,308,351.380307693034,0,0,427732.445026145,427733.492052387,12,0,0,8,19,125017746,114726375,174615394,84223647,0,31601609,10812009,40301309,0,0,20601509,-1191101,20510209,11901919,0,0,0,30101809,20811319,41801009,10110319,0,0,41501109,0,40700019,20500319,20101119,20800909,0,31011919,0,0,41301119,0,0,21311419,0,0,21611109
24,309,342.656288819853,0,0,427734.892025286,427735.939051913,12,1,0,14,9,52733737,83834907,31111819,42212018,10411709,0,0,0,10610619,0,31711409,0,0,0,21501909,0,0,-1031160,0,0,40300119,21001719,0,0,0,31111819,0,0,0,0,0,0,31602009,0,0,0,0,10610009,0,0
24,310,411.829035321716,1,0,427737.350781179,427738.397815891,12,1,1,3,31,168635923,237536041,147470002,229950293,20201209,31601409,-3030040,0,30401319,20401109,21900709,30600109,10500019,40200219,21210409,10500719,30810319,10100119,20100419,31810509,31101519,41701809,22011619,21101609,20701609,11710209,10711009,0,30110419,20911709,10211819,31601709,41001719,30911509,40701719,0,0,12010909,31911319,41811409
24,311,455.343265028205,1,0,427739.98602272,427741.033046268,12,0,1,12,3,40201009,72582119,0,0,0,0,0,0,0,0,40201009,0,0,0,0,-1080091,31102009,0,0,0,0,40400019,0,0,0,0,0,0,0,0,0,0,0,0,0,0,0,0,0,0
24,312,397.568486514501,0,0,427742.644779692,427743.691805549,12,0,0,20,3,0,41501119,44201079,41001009,0,0,0,0,0,0,0,0,0,0,0,0,0,0,0,0,41501119,0,0,-2190070,0,0,0,0,0,42011009,0,0,0,0,0,0,0,41001009,0,0
24,313,361.315033456776,0,0,427766.408904734,427767.455937905,13,1,0,4,31,120017984,231129031,197857093,188037412,10311309,11210719,11900809,-2060091,0,10001309,31910819,21511219,21111709,12001819,31401009,31400319,21300009,10411119,20600019,22011909,41801419,40201409,40411319,0,11311219,31201009,0,10800209,31311609,41910019,30911709,10800109,20800309,40300509,20411819,11301719,0,21701119,31910419,30811409
24,314,510.140358994249,1,0,427768.844147507,427769.891174134,13,1,1,26,19,73620528,226844084,167993086,188448304,0,0,0,0,0,0,0,31710219,41910309,40710809,20210119,41802019,41810309,40300009,0,0,42010819,0,31800009,41911019,0,21600219,31201519,0,40310309,-1170011,0,0,40301319,42010519,22010619,41812019,31101909,11211919,0,0
24,315,472.027152369265,1,0,427771.526473419,427772.573457315,13,1,1,7,3,45740059,0,42000319,11601909,0,0,41710019,0,0,0,-4030040,0,0,0,0,0,0,0,0,0,0,0,0,0,0,0,0,42000319,0,0,0,11601909,0,0,0,0,0,0,0,0
24,316,323.468605754897,0,0,427774.208722339,427775.255748966,13,1,0,14,9,52733737,83834907,31111819,42212018,10411709,0,0,0,10610619,0,31711409,0,0,0,21501909,0,0,-1031160,0,0,40300119,21001719,0,0,0,31111819,0,0,0,0,0,0,31602009,0,0,0,0,10610009,0,0
24,317,428.220736095682,1,0,427776.643956257,427777.690987119,13,1,1,10,0,0,0,0,0,0,0,0,0,0,0,0,0,0,-20811691,0,0,0,0,0,0,0,0,0,0,0,0,0,0,0,0,0,0,0,0,0,0,0,0,0,0
24,318,440.405182424001,1,0,427779.290981114,427780.337978483,13,0,1,35,3,0,21711619,20701719,12332669,0,0,0,0,0,0,0,0,0,0,0,0,0,0,21711619,0,0,0,0,0,0,0,20701719,0,0,0,0,0,0,0,0,10201619,0,0,-2131050,0
24,319,413.418545213062,1,0,427781.796777878,427782.84380643,13,1,1,3,31,168635923,237536041,147470002,229950293,20201209,31601409,-3030040,0,30401319,20401109,21900709,30600109,10500019,40200219,21210409,10500719,30810319,10100119,20100419,31810509,31101519,41701809,22011619,21101609,20701609,11710209,10711009,0,30110419,20911709,10211819,31601709,41001719,30911509,40701719,0,0,12010909,31911319,41811409
24,320,455.025286064483,1,0,427784.267299764,427785.314322926,13,1,1,24,3,21201909,20400909,2190010,20001509,0,0,0,0,0,0,0,0,21201909,0,20400909,0,0,0,0,0,0,0,0,0,0,0,0,-2190010,0,0,0,20001509,0,0,0,0,0,0,0,0
24,321,450.848828535527,1,0,427786.808420682,427787.855514678,13,1,1,33,19,150755493,94515156,123303865,77203017,30900409,21910109,12010819,12012009,0,11911209,20300919,0,41710019,40400819,11501519,0,11600809,31012009,0,0,0,0,20400409,0,21600519,20200419,21101209,0,40001309,0,0,22000719,0,0,0,32001009,-1200180,22001109,0,0
24,322,482.031171384733,0,0,427789.373060881,427790.420084428,13,0,0,22,3,0,21601919,31991389,20200109,0,0,0,0,0,0,0,0,0,0,0,0,0,0,0,0,0,21601919,0,0,0,-1180170,30811219,0,0,0,0,0,0,0,20200109,0,0,0,0,0
24,323,466.440962336492,0,0,427792.090647813,427793.137667511,13,0,0,6,9,34742080,31521338,93112747,53333637,0,0,0,0,0,-4041171,30700909,0,0,0,0,0,0,20410619,0,11110719,0,0,41600519,0,0,0,0,0,0,10610619,40901609,0,31310809,10411609,0,0,0,0,0,11611219
24,324,530.823236156721,1,0,427794.749412869,427795.796429102,13,0,1,25,3,0,60421518,31381900,0,0,0,0,0,0,0,0,0,0,20111509,0,40310009,0,0,0,0,0,0,0,30210819,0,0,0,0,-1171081,0,0,0,0,0,0,0,0,0,0,0
24,325,484.837162657641,0,0,427797.396402309,427798.443432015,13,0,0,30,31,200866692,170648122,166869112,170527623,41810509,21610809,21910619,11410609,41411019,0,11701609,30101209,20910309,22010919,21111319,21001919,21701309,11710109,0,31301119,21311009,20500419,21210909,11802009,10610419,0,21712009,40311619,10511619,40310519,10400009,31200909,0,-2070140,20210009,11510509,21911619,41710919,20211909,21701609
24,326,575.210560811684,0,0,427800.113981542,427801.161003934,13,1,0,9,19,186086755,144125964,94833166,53003747,0,0,30310919,21010009,40201609,21311909,41110419,31111709,-1030181,20900909,10200519,42010909,30100709,0,0,10211009,30701909,0,10000019,31710509,0,0,11111819,42010819,0,0,0,10200809,0,20801719,0,0,0,0,22001219,0
24,327,437.123762501869,0,0,427802.866857596,427803.913884223,13,0,0,8,9,32641929,83803627,42212338,74002347,0,0,0,0,31500819,0,0,-1141110,0,21600209,0,0,0,0,31602009,0,0,30601409,0,0,0,0,0,0,0,21101019,21111319,0,40400019,0,21801109,0,0,0,0,11801219
24,328,453.764534031507,0,0,427805.443260322,427806.490301193,13,0,0,28,19,155823965,91123637,149657283,136622276,41111409,10210509,0,40801119,0,0,21900109,0,41800819,0,0,30410319,0,0,20211309,0,0,40502009,30110809,0,32011509,21511809,12001109,11010319,21311609,0,21700119,-3110130,0,41310219,40100209,0,21301309,0,0,30800409
24,329,433.961681032088,1,0,427808.043202347,427809.090238598,13,0,1,34,31,296571341,184847112,151270902,97594155,40001409,40410619,40611419,21311419,20911119,30611609,40610919,20301119,41801709,20011219,20010619,21401409,21301409,20010419,0,40601209,11210009,30300819,21111919,0,11600219,21711609,41802009,11311809,11311619,11211709,21210009,10101519,11600409,21810809,10910209,0,20410219,-2160071,0,20600919
24,330,583.101135969628,1,0,427810.701958934,427811.748982096,13,1,1,36,9,91832637,30211709,113914956,35761210,0,0,40610609,0,0,40410219,10811809,0,0,0,0,0,0,0,0,30211709,0,0,21901209,30701909,0,0,0,0,30011719,0,31300119,0,0,31711019,0,0,0,0,0,-4050191
24,331,405.337413598318,0,0,427813.454834218,427814.50186277,13,0,0,5,9,75344797,104922747,32710428,21210819,0,0,0,30701209,-3031160,0,21110909,0,20501519,0,32010319,42001709,0,0,0,0,0,30910719,20700219,0,12010209,0,0,0,0,0,0,0,0,0,0,0,0,0,21210819,0
24,332,357.021547330078,0,0,427815.948892323,427816.995919335,13,0,0,1,31,202948733,190740592,196425083,164850612,-4100041,20100009,41101909,11111009,30811709,31211209,21110809,31800819,11601219,30610909,30701609,11711509,0,12001709,31901909,30301009,11710219,31801719,40900019,41300909,10200909,0,0,40300209,11200219,40711209,11811609,30910519,0,20301409,21111509,11511519,30001209,10701109,20101519,20211819
24,333,449.041044921614,1,0,427818.53706643,427819.584088823,13,1,1,19,9,83813557,62321628,13810359,94813637,11600419,0,0,0,0,0,40312019,31901119,0,41011109,0,0,0,0,0,0,0,21310519,-3000050,0,0,0,0,0,0,0,10810309,0,0,21400609,0,31801409,0,0,41611619,0
24,334,425.117938837502,0,0,427821.089936018,427822.136970729,13,0,0,20,19,164513955,147135574,97654247,176134175,40000209,0,40400909,11900109,31411409,0,0,40801319,0,0,0,10311119,32000709,20210609,21410709,0,21401519,41800909,0,-3040110,41411309,22001809,0,31201019,0,0,0,41311119,0,41000119,31211909,0,0,0,31500019,31111009
24,335,439.526313159149,0,0,427823.607530341,427824.654562743,13,0,0,12,19,116123495,155956466,44323337,184636394,31211319,32000219,0,0,10600019,10301119,32010819,0,0,41401309,0,-2121091,30200109,20211819,40911919,21110219,0,0,11411019,22001009,0,0,10911309,0,0,0,0,31310919,40511709,20710719,0,0,0,30001609,21701219,40400219
24,336,353.34438609425,1,0,427826.195701754,427827.242718757,13,0,1,35,0,0,0,0,0,0,0,0,0,0,0,0,0,0,0,0,0,0,0,0,0,0,0,0,0,0,0,0,0,0,0,0,0,0,0,0,0,0,0,-10311601,0
24,337,363.590546417981,0,0,427828.701522001,427829.748549013,13,1,0,11,31,230750221,171700204,205039393,196248412,20701809,20811119,42000419,40602019,11011709,41301009,11311409,11010009,32000719,11212019,-3071001,11601009,40501809,0,10600819,42011519,21601609,31100419,21110809,40101509,0,30411919,20810709,41900409,0,40202019,10502019,40210009,11311909,0,20810409,40412019,11101919,21800119,40301209,10300819
24,338,374.615485838149,1,0,427831.254403137,427832.301429764,13,1,1,29,3,32010409,30900719,10200819,3080110,0,0,0,0,0,0,32010409,0,0,0,0,0,0,30900719,0,0,0,0,0,0,10200819,0,0,0,0,0,0,0,-3080110,0,0,0,0,0,0,0
24,339,389.300263195764,1,0,427854.47736453,427855.524397701,14,0,1,30,0,0,0,0,0,0,0,0,0,0,0,0,0,0,0,0,0,0,0,0,0,0,0,0,0,0,0,0,0,0,0,0,0,0,-41900701,0,0,0,0,0,0
24,340,465.314177272376,1,0,427857.065544027,427858.112574119,14,1,1,26,19,73620528,226844084,167993086,188448304,0,0,0,0,0,0,0,31710219,41910309,40710809,20210119,41802019,41810309,40300009,0,0,42010819,0,31800009,41911019,0,21600219,31201519,0,40310309,-1170011,0,0,40301319,42010519,22010619,41812019,31101909,11211919,0,0
24,341,458.294002164621,0,0,427859.771363042,427860.81839044,14,0,0,6,31,240090302,273646722,198038522,156466913,40310809,10400219,31912009,21211619,30100519,-2150170,41902019,40401319,21701619,30300619,40511109,0,20511319,40100209,40500519,30411219,40610009,30701719,0,10100519,30410209,40901309,41311019,11811319,11901819,20201309,31401019,40810909,10911619,21111419,0,40710519,10710609,21610519,0,10601319
24,342,401.299927500077,0,0,427862.465415681,427863.512441153,14,0,0,20,3,41412009,0,52130698,0,0,0,0,0,0,0,41412009,0,0,0,0,0,0,0,0,0,0,0,0,-2020080,0,0,0,0,0,30110609,20000009,0,0,0,0,0,0,0,0,0
24,343,360.102401755285,1,0,427865.053585554,427866.100611796,14,0,1,30,19,154848184,103047366,144925955,104304507,31200919,10201919,20111809,0,0,30511819,41510809,21310909,0,0,0,20011719,21011819,30111919,0,0,0,31911909,21100809,0,20801619,41910809,0,0,0,31010809,30101909,40110619,30311619,-2070131,21510719,0,0,0,10301419,0
24,344,388.436792418361,1,0,427867.665291261,427868.712310189,14,1,1,24,3,21201909,20400909,2190010,20001509,0,0,0,0,0,0,0,0,21201909,0,20400909,0,0,0,0,0,0,0,0,0,0,0,0,-2190010,0,0,0,20001509,0,0,0,0,0,0,0,0
24,345,588.70349440258,1,0,427870.171113818,427871.218140445,14,0,1,5,31,172499142,216618303,207968623,275146651,10500609,21602009,21900219,11201419,-3171030,30511209,41400109,21011519,11201019,40901209,40000919,21401609,31302019,30201319,0,10800809,42010419,0,20311919,31311319,31411419,0,30210919,21210419,41901119,31611509,0,21701219,40301219,20510809,40000919,30210509,30800119,20311319,30700319,40610219
24,346,340.997485618573,0,0,427872.888693436,427873.935715828,14,1,0,14,9,52733737,83834907,31111819,42212018,10411709,0,0,0,10610619,0,31711409,0,0,0,21501909,0,0,-1031160,0,0,40300119,21001719,0,0,0,31111819,0,0,0,0,0,0,31602009,0,0,0,0,10610009,0,0
24,347,503.305350837763,0,0,427875.347447405,427876.394484426,14,1,0,29,3,32010409,30900719,10200819,3080110,0,0,0,0,0,0,32010409,0,0,0,0,0,0,30900719,0,0,0,0,0,0,10200819,0,0,0,0,0,0,0,-3080110,0,0,0,0,0,0,0
24,348,906.168547517154,1,0,427878.088562856,427879.135592948,14,0,1,1,19,169426893,82013147,196756013,52812018,-1110180,22000309,10400119,40901519,41800519,21710509,21202019,10301719,0,21310909,0,0,0,40400719,0,0,0,20301519,31000709,31500019,10210219,30911019,0,31611719,20010609,0,41511719,41801509,11010509,0,0,0,0,0,0,0
