sub_id,Trial,RT,Resp,Error,Fix_onset,Disp_onset,block,repeat,tid,tloc,d_setsize,quad1,quad2,quad3,quad4,loc1,loc2,loc3,loc4,loc5,loc6,loc7,loc8,loc9,loc10,loc11,loc12,loc13,loc14,loc15,loc16,loc17,loc18,loc19,loc20,loc21,loc22,loc23,loc24,loc25,loc26,loc27,loc28,loc29,loc30,loc31,loc32,loc33,loc34,loc35,loc36
28,1,643.09525990393,0,1,599990.69161688,599991.738652362,1,0,1,7,19,118787285,52522447,54023257,215948723,20000919,21910519,10200519,31502019,0,0,-3170181,11201409,20801719,20810319,0,21400319,0,0,0,10311809,0,0,0,0,21201319,20911619,0,0,0,0,11910319,40812019,30010519,20901319,0,0,31611209,20301719,31601619,40710319
28,2,659.259447944351,0,0,599993.397434741,599994.444466757,1,1,0,19,3,20110719,0,11892809,41210619,0,0,0,0,0,0,0,0,20110719,0,0,0,0,0,0,0,0,0,-1081200,0,0,10811609,0,0,0,0,0,0,0,0,0,41210619,0,0,0,0
28,3,712.682995945215,1,0,599996.173846629,599997.220932925,1,1,1,10,31,209135112,189002303,206628693,220160351,41700909,11700019,30110409,31211419,0,21700509,30700109,20501519,21510219,-3130110,40311309,10212019,0,40501809,31612019,11511609,41111809,10611619,0,30811819,41601609,10101209,0,32001819,31211409,40900109,20000719,10710719,30400509,32001019,31011919,21801219,10910319,30011619,21501019,31812009
28,4,642.675265902653,0,0,599999.056119725,600000.103178304,1,0,0,11,19,136124455,65631578,135536784,106748394,0,31010009,41911709,0,20000109,0,11301209,0,31901419,0,-4020160,31500809,0,0,0,0,30110609,0,11001509,0,21810319,30411409,10901309,40410519,0,21001719,0,0,0,10910319,40112019,11611909,12002009,0,21911519,10200619
28,5,544.916748302057,1,0,600001.879591347,600002.92660989,1,0,1,23,31,97148303,176455993,181719602,286261021,11211519,10300719,0,20812019,21200309,0,11211309,11501119,10911309,0,40510409,11311419,31610509,20800319,0,10001419,31611509,30610409,40101509,31502019,11610119,21510119,-3061080,12000519,31411709,10411419,20111109,41610919,40200519,20511509,40602019,41810319,10001109,20201009,40811909,30511709
28,6,746.205140603706,0,0,600004.538346779,600005.58537764,1,1,0,36,9,11501609,112034537,50722618,82556728,0,0,0,0,0,11501609,0,0,0,40712009,40611309,0,0,0,0,30711219,0,0,0,0,0,40711409,0,10011209,0,0,0,10812019,30201819,0,0,0,0,0,40501709,-1041181
28,7,619.305350934155,0,0,600007.338281027,600008.385311889,1,0,0,25,3,0,10811309,13872989,20701219,0,0,0,0,0,0,0,0,0,0,0,0,10811309,0,0,0,0,0,0,0,0,0,11811909,0,-2061080,0,0,0,0,0,0,0,20701219,0,0,0
28,8,624.987011542544,1,0,600010.067628947,600011.114716783,1,1,1,9,9,24391068,21401719,52913947,94611737,0,10710919,0,0,0,11510019,0,0,-2170130,0,0,0,0,0,21401719,0,0,0,0,21201609,0,0,0,0,0,20111419,11600919,21900309,31410319,0,0,0,0,0,0,41301109
28,9,542.558853281662,0,0,600012.891085555,600013.938114877,1,1,0,27,3,40501619,30601909,3151170,20010909,0,0,0,40501619,0,0,0,0,0,0,0,0,30601909,0,0,0,0,0,0,0,0,0,0,0,0,0,-3151170,0,0,0,20010909,0,0,0,0,0
28,10,518.186496105045,1,0,600015.573372586,600016.620397289,1,1,1,16,19,104735585,147005626,144936175,75939355,21901319,0,0,0,42010119,20511019,0,10101719,10211409,30811019,0,0,41101309,31900309,0,-3081070,40111919,0,41010719,22001619,20001709,0,40510919,21411209,0,0,0,0,11412009,10102009,20911919,11601409,0,0,0,21912009
28,11,539.162714616396,1,0,600018.314475719,600019.361508121,1,1,1,3,9,2000141,62834357,103734266,82411628,0,0,-2000141,0,0,0,0,0,0,0,0,0,0,20511219,0,11111719,0,31211419,20011519,0,42001519,0,0,0,30011209,0,11710019,0,41100609,0,0,0,0,41311019,0,0
28,12,477.497505722567,1,0,600021.07912508,600022.126144393,1,1,1,14,31,218657631,190910533,187045692,158157583,30801219,31710209,11410419,30800019,10601509,10011619,20101019,31810409,41411209,31911509,11611919,40701809,41301119,-1060140,32011109,11701519,20611409,0,31000709,30901009,10811819,40310519,11510009,30901109,11200409,20410109,0,21500919,30701319,10011009,20811209,0,21311709,11811209,0,42010209
28,13,637.157214339823,0,0,600023.80847069,600024.855494238,1,1,0,12,19,84113746,48194747,116944994,197637074,20700809,21501019,0,21800409,0,20111509,0,0,0,0,0,-3191010,0,0,22000709,11801419,11201609,0,21010019,0,20711109,11111609,41501419,0,11710119,10900719,0,41910409,0,21011009,30212019,41401809,0,0,21201519,41900309
28,14,488.9197263401,1,0,600026.643757195,600027.690718763,1,0,1,4,3,12172090,0,40801809,11511009,0,0,0,-2170181,0,0,0,10001909,0,0,0,0,0,0,0,0,0,0,0,0,0,0,0,0,40801809,0,0,0,0,0,0,11511009,0,0,0,0
28,15,588.919110363349,1,0,600029.349509996,600030.396536239,1,0,1,1,9,12431090,92034637,53424947,32423528,-1120071,0,0,0,11311019,0,0,0,0,40611609,0,0,0,0,10111419,0,0,41311609,0,0,0,0,0,30411319,11901719,0,11111909,0,0,0,0,11711619,20711909,0,0,0
28,16,465.626803808846,0,0,600032.137682487,600033.184728363,1,0,0,8,31,261877523,260665102,196961512,197037402,41501909,40600619,41100519,0,41311119,21610419,40511009,-4031020,31210909,40211309,0,41900309,41910709,20610319,21811819,31910309,20810219,41500109,41110519,10101909,20810909,31111719,30611619,20301819,31801009,0,11112009,30711319,41910809,0,30800109,30400309,11911709,20301819,20900109,10101219
28,17,581.751879537478,1,0,600034.831720112,600035.878751359,1,0,1,32,3,50413338,0,0,43532760,0,0,0,0,0,0,0,10401619,40011719,0,0,0,0,0,0,0,0,0,0,0,0,0,0,0,0,0,0,0,0,41401619,0,-2131141,0,0,0,0
28,18,581.287230015732,0,0,600037.608133925,600038.655157472,1,1,0,6,0,0,0,0,0,0,0,0,0,0,-30301501,0,0,0,0,0,0,0,0,0,0,0,0,0,0,0,0,0,0,0,0,0,0,0,0,0,0,0,0,0,0
28,19,559.605760267004,1,0,600040.266891667,600041.313915984,1,0,1,2,9,96313627,90613747,52111738,30200919,40411509,-4090200,10801409,0,0,0,0,0,41010509,0,10011619,40100519,0,0,0,0,0,40501609,0,0,0,0,0,0,0,20911419,31200319,0,0,0,0,30200919,0,0,0,0
28,20,483.83937694598,0,0,600042.984536728,600044.031523704,1,0,0,26,0,0,0,0,0,0,0,0,0,0,0,0,0,0,0,0,0,0,0,0,0,0,0,0,0,0,0,0,0,0,-10210291,0,0,0,0,0,0,0,0,0,0
28,21,568.929935572669,0,0,600045.537343566,600046.584367114,1,1,0,5,3,1041171,0,20501619,32122018,0,0,0,0,-1041171,0,0,0,0,0,0,0,0,0,0,0,0,0,0,0,0,0,0,0,0,0,20501619,0,0,0,0,0,20111109,0,12010909,0
28,22,496.132382657379,0,0,600048.184339551,600049.231366948,1,0,0,34,9,41011928,112325866,72302928,31950980,0,0,0,0,0,0,0,30810119,10201809,21401819,0,20201019,0,0,30111019,0,40612009,0,0,0,0,0,0,0,0,31801709,40501219,0,30800909,0,0,0,0,-1150071,0,0
28,23,453.739933436736,0,0,600050.772513658,600051.819605344,1,1,0,22,19,93004346,134035165,137245755,154112675,30601819,0,0,0,10601009,31500809,0,20300709,0,21110609,0,0,20511619,40500719,0,30511809,0,21400409,30610819,21610319,20600019,-3121180,0,0,0,40301809,21001609,0,0,40901519,20400509,0,21600219,40400119,0,30810309
28,24,528.568163164891,1,0,600053.348915614,600054.395951096,1,0,1,13,31,241826711,156879974,201164932,168067213,40400309,12001409,30701019,11601309,21910619,31501009,31500209,31500719,30710109,20501809,10011309,0,-4131091,31211409,30101019,10711109,20001419,30210809,11810319,21910219,0,41310519,40811519,22000519,11111309,41510209,10700319,0,10300509,21910919,31410909,0,40211419,21711019,21111419,21411019
28,25,641.753665870056,1,0,600056.113591923,600057.160581978,1,1,1,30,31,160226013,233557621,240658831,167888885,0,41900219,21901519,12000609,0,11001509,11500619,30711519,31210019,31310819,21900709,22010009,41400719,41911809,11900419,30600009,21711209,10811919,30910319,11001519,21110019,12010209,41801809,31400419,40911909,40501419,11011209,41411919,10711909,-2151101,40311009,0,11800419,31301419,30201109,0
28,26,614.617663202807,0,0,600058.948785266,600059.995809968,1,0,0,31,19,134534765,94812485,94723727,160436264,0,20300909,11411909,40400909,0,42010819,0,0,20410219,20900519,0,0,0,31100719,21710319,10800109,0,10300819,0,0,11411709,0,41601709,0,0,0,41710309,41310319,21011719,40710019,-4181160,10810119,11110919,0,31302009,0
28,27,548.579665948637,0,0,600092.371494047,600093.418522599,2,1,0,5,3,1041171,0,20501619,32122018,0,0,0,0,-1041171,0,0,0,0,0,0,0,0,0,0,0,0,0,0,0,0,0,0,0,0,0,20501619,0,0,0,0,0,20111109,0,12010909,0
28,28,596.387381781824,0,0,600095.053774533,600096.100810785,2,1,0,12,19,84113746,48194747,116944994,197637074,20700809,21501019,0,21800409,0,20111509,0,0,0,0,0,-3191010,0,0,22000709,11801419,11201609,0,21010019,0,20711109,11111609,41501419,0,11710119,10900719,0,41910409,0,21011009,30212019,41401809,0,0,21201519,41900309
28,29,535.481318715028,1,0,600097.865484398,600098.912506021,2,0,1,13,9,71212718,65032358,0,74133166,0,31201209,0,0,0,0,40011509,0,0,0,10611619,0,-3010011,20600609,0,30810119,0,0,0,0,0,0,0,0,0,0,0,0,0,30811519,22000809,0,0,10710119,0,10610719
28,30,476.624025846832,0,0,600100.465416029,600101.512443811,2,0,0,4,9,32141589,42711838,133023675,11900319,0,0,0,-1030080,0,0,0,31111509,0,0,0,0,31301019,0,11410819,0,0,0,20200119,0,40101819,41710709,20210619,0,0,10800409,0,0,0,11900319,0,0,0,0,0,0
28,31,459.525149082765,0,0,600103.100647176,600104.147678807,2,1,0,22,19,93004346,134035165,137245755,154112675,30601819,0,0,0,10601009,31500809,0,20300709,0,21110609,0,0,20511619,40500719,0,30511809,0,21400409,30610819,21610319,20600019,-3121180,0,0,0,40301809,21001609,0,0,40901519,20400509,0,21600219,40400119,0,30810309
28,32,511.001172009856,1,0,600105.782928047,600106.829953904,2,0,1,7,31,240818093,238947412,208346093,227197811,41101109,31910119,41311619,41600409,41400319,0,-1181080,21001519,21311919,0,11611719,40010319,31300309,31101709,21001409,21700219,41710619,40511109,41001909,0,0,30900009,11611519,30610519,30500409,31910109,31811619,11110809,20810209,40310509,10110909,31211419,21110419,31511109,30510709,30511719
28,33,567.373532452621,0,0,600108.535804487,600109.582837273,2,1,0,19,3,20110719,0,11892809,41210619,0,0,0,0,0,0,0,0,20110719,0,0,0,0,0,0,0,0,0,-1081200,0,0,10811609,0,0,0,0,0,0,0,0,0,41210619,0,0,0,0
28,34,626.645429758355,1,0,600111.206330145,600112.253354077,2,0,1,23,19,176137064,113125975,115415557,165217085,40011209,0,0,11811909,41211609,10401609,30700419,42000309,0,0,0,30111319,10201219,21411409,11401409,0,40000619,0,40601619,0,30601919,40200909,-4011110,0,0,0,0,40811519,41700119,41501909,0,20101819,0,21101719,0,0
28,35,509.123325231485,0,0,600114.076850337,600115.12386734,2,0,0,2,3,2151011,20801409,0,62512828,0,-2151011,0,0,0,0,0,0,0,0,0,0,0,0,0,20801409,0,0,0,0,0,0,0,0,0,0,0,0,31511609,0,31001219,0,0,0,0,0
28,36,662.220579106361,0,0,600116.735604229,600117.782631241,2,1,0,36,9,11501609,112034537,50722618,82556728,0,0,0,0,0,11501609,0,0,0,40712009,40611309,0,0,0,0,30711219,0,0,0,0,0,40711409,0,10011209,0,0,0,10812019,30201819,0,0,0,0,0,40501709,-1041181
28,37,640.188023564406,1,0,600119.570833374,600120.617853072,2,1,1,30,31,160226013,233557621,240658831,167888885,0,41900219,21901519,12000609,0,11001509,11500619,30711519,31210019,31310819,21900709,22010009,41400719,41911809,11900419,30600009,21711209,10811919,30910319,11001519,21110019,12010209,41801809,31400419,40911909,40501419,11011209,41411919,10711909,-2151101,40311009,0,11800419,31301419,30201109,0
28,38,493.533886154182,0,0,600122.441347792,600123.488377499,2,0,0,11,9,82402957,12761790,31301009,82533456,30301119,0,0,0,0,11800719,40301119,0,0,0,-2160171,0,0,0,10601619,0,0,0,0,0,31301009,0,0,0,0,0,0,40500309,0,0,10211219,0,0,10910919,20911009,0
28,39,551.450715749525,1,0,600125.08834724,600126.135366938,2,0,1,8,3,65141658,31610619,0,0,0,0,0,0,0,30610319,0,-3031030,31500309,0,0,0,0,0,0,0,0,31610619,0,0,0,0,0,0,0,0,0,0,0,0,0,0,0,0,0,0
28,40,577.494579949416,1,0,600127.888279949,600128.935303881,2,0,1,31,31,157159803,189250331,177049402,180937613,10411119,0,31401609,30801209,0,41711719,21112019,10810819,10911309,21801909,41201709,21010119,10510619,10500509,10410419,21601619,40512019,11701409,40211419,20801619,21300909,11710409,11301019,0,40101809,21411509,10210709,11400419,21700509,21701219,-2030200,41701709,30701919,20700019,31001619,0
28,41,546.739930403419,0,0,600130.594100504,600131.641116737,2,0,0,35,0,0,0,0,0,0,0,0,0,0,0,0,0,0,0,0,0,0,0,0,0,0,0,0,0,0,0,0,0,0,0,0,0,0,0,0,0,0,0,-40400091,0
28,42,462.736505782232,0,0,600133.335204022,600134.382226415,2,1,0,27,3,40501619,30601909,3151170,20010909,0,0,0,40501619,0,0,0,0,0,0,0,0,30601909,0,0,0,0,0,0,0,0,0,0,0,0,0,-3151170,0,0,0,20010909,0,0,0,0,0
28,43,469.66852445621,1,0,600136.029250116,600137.076281363,2,1,1,10,31,209135112,189002303,206628693,220160351,41700909,11700019,30110409,31211419,0,21700509,30700109,20501519,21510219,-3130110,40311309,10212019,0,40501809,31612019,11511609,41111809,10611619,0,30811819,41601609,10101209,0,32001819,31211409,40900109,20000719,10710719,30400509,32001019,31011919,21801219,10910319,30011619,21501019,31812009
28,44,455.10424033273,0,0,600138.746830504,600139.793855591,2,1,0,3,9,2000141,62834357,103734266,82411628,0,0,-2000141,0,0,0,0,0,0,0,0,0,0,20511219,0,11111719,0,31211419,20011519,0,42001519,0,0,0,30011209,0,11710019,0,41100609,0,0,0,0,41311019,0,0
28,45,551.219738437794,1,0,600141.29971164,600142.346735572,2,0,1,1,19,86424747,125813966,83435456,202325522,-1100000,0,0,41611209,0,31901919,0,11811619,0,41300619,31700209,0,0,0,0,22001419,0,30811719,10700619,0,0,0,21211209,0,0,40511609,11012019,31311319,0,40900219,41701209,11900019,21700719,10800109,22010609,22001319
28,46,533.144981600344,1,0,600144.052585769,600145.099612012,2,0,1,32,3,0,0,30100909,63023569,0,0,0,0,0,0,0,0,0,0,0,0,0,0,0,0,0,0,0,0,0,0,0,30100909,0,0,0,0,0,20901309,0,-2121141,40001119,0,0,0
28,47,595.973547082394,0,0,600146.734917071,600147.781900582,2,1,0,16,19,104735585,147005626,144936175,75939355,21901319,0,0,0,42010119,20511019,0,10101719,10211409,30811019,0,0,41101309,31900309,0,-3081070,40111919,0,41010719,22001619,20001709,0,40510919,21411209,0,0,0,0,11412009,10102009,20911919,11601409,0,0,0,21912009
28,48,519.19586758595,1,0,600149.440686426,600150.487714978,2,1,1,9,9,24391068,21401719,52913947,94611737,0,10710919,0,0,0,11510019,0,0,-2170130,0,0,0,0,0,21401719,0,0,0,0,21201609,0,0,0,0,0,20111419,11600919,21900309,31410319,0,0,0,0,0,0,41301109
28,49,520.394255639985,1,0,600152.158269894,600153.205293056,2,1,1,14,31,218657631,190910533,187045692,158157583,30801219,31710209,11410419,30800019,10601509,10011619,20101019,31810409,41411209,31911509,11611919,40701809,41301119,-1060140,32011109,11701519,20611409,0,31000709,30901009,10811819,40310519,11510009,30901109,11200409,20410109,0,21500919,30701319,10011009,20811209,0,21311709,11811209,0,42010209
28,50,637.972949771211,1,0,600154.828857916,600155.875871455,2,1,1,6,0,0,0,0,0,0,0,0,0,0,-30301501,0,0,0,0,0,0,0,0,0,0,0,0,0,0,0,0,0,0,0,0,0,0,0,0,0,0,0,0,0,0
28,51,694.797255913727,0,0,600157.711075577,600158.75809874,2,0,0,25,31,208446002,226388831,199807813,163045693,11011609,0,30700019,11400509,31600609,20310609,41901019,40711119,20810509,30711809,20910919,30111519,20910009,40111709,20510019,21401519,20910119,20811209,42010719,20510609,30701319,0,40300209,11101209,-4161030,10511909,40510809,30010109,0,41900119,10000809,10010409,30601019,30412009,0,10111219
28,52,562.128804042004,1,0,600160.628655503,600161.675668271,2,0,1,34,19,168626164,123225946,113912885,108537016,0,30500109,41101419,11701009,0,0,22011809,42000809,21311009,0,0,0,30111409,41501819,40201609,0,0,11411109,21900619,0,0,10401319,10010009,0,40200119,31400819,0,11501809,0,32010619,0,0,0,-2011070,41201709,21811809
28,53,592.485787463374,1,0,600188.075025615,600189.122064946,3,0,1,19,0,0,0,0,0,0,0,0,0,0,0,0,0,0,0,0,0,0,0,0,0,0,0,-40400691,0,0,0,0,0,0,0,0,0,0,0,0,0,0,0,0,0
28,54,633.871174883097,1,0,600190.839673821,600191.886763967,3,1,1,19,3,20110719,0,11892809,41210619,0,0,0,0,0,0,0,0,20110719,0,0,0,0,0,0,0,0,0,-1081200,0,0,10811609,0,0,0,0,0,0,0,0,0,41210619,0,0,0,0
28,55,413.890931056812,0,0,600193.580789273,600194.627807816,3,0,0,32,9,33303228,63812047,62710528,72273338,0,0,0,0,0,21601219,0,11702009,0,0,20400319,21710019,0,21701709,0,0,0,0,0,40810019,21900509,0,0,0,0,0,0,0,0,0,0,-1161000,0,30010319,41102019,0
28,56,459.354610648006,1,0,600196.216015415,600197.263048587,3,1,1,22,19,93004346,134035165,137245755,154112675,30601819,0,0,0,10601009,31500809,0,20300709,0,21110609,0,0,20511619,40500719,0,30511809,0,21400409,30610819,21610319,20600019,-3121180,0,0,0,40301809,21001609,0,0,40901519,20400509,0,21600219,40400119,0,30810309
28,57,468.397378455848,0,0,600198.815953205,600199.862980987,3,0,0,31,3,20600519,10500419,0,35321239,0,0,20600519,0,0,0,0,0,0,0,0,0,0,0,10500419,0,0,0,0,0,0,0,0,0,0,0,0,0,31201209,0,-4120030,0,0,0,0,0
28,58,495.090289274231,0,0,600201.345301587,600202.392324365,3,0,0,34,3,40501828,0,0,14092859,0,20400419,0,0,20101409,0,0,0,0,0,0,0,0,0,0,0,0,0,0,0,0,0,0,0,0,0,0,11011719,0,0,0,0,0,-3081140,0,0
28,59,529.636818915606,1,0,600203.968769052,600205.015793369,3,1,1,10,31,209135112,189002303,206628693,220160351,41700909,11700019,30110409,31211419,0,21700509,30700109,20501519,21510219,-3130110,40311309,10212019,0,40501809,31612019,11511609,41111809,10611619,0,30811819,41601609,10101209,0,32001819,31211409,40900109,20000719,10710719,30400509,32001019,31011919,21801219,10910319,30011619,21501019,31812009
28,60,398.428529733792,0,0,600206.756934998,600207.803958545,3,0,0,25,3,0,40601019,4100181,43212228,0,0,0,0,0,0,0,0,0,0,0,0,0,0,0,0,0,40601019,0,0,0,0,0,0,-4100181,0,0,21910519,0,0,0,0,0,21301709,0,0
28,61,618.971588439308,0,0,600209.227466893,600210.274561274,3,0,0,23,31,228155692,258656222,139007244,207758221,30400519,40700009,31511109,0,20111309,41510609,31201309,11310709,21410119,21311409,30110219,40810009,31310819,0,41200609,31701319,42010719,20201119,0,40601309,41412019,12011919,-2060140,11300519,21210919,0,10410419,10500009,41711819,41111309,30510009,10411109,30510209,10300519,11701419,21001819
28,62,512.062128516845,0,0,600211.933273204,600212.980297907,3,0,0,4,9,65352669,11711219,43122337,32903047,0,0,0,-2041031,0,21300719,0,42010919,0,0,0,0,0,0,0,0,11711219,0,11811209,0,0,0,0,0,0,11000719,20310409,10501909,0,12000519,10400619,0,0,0,0,0
28,63,632.291673915461,0,0,600214.533211765,600215.580241471,3,0,0,8,9,66893837,0,84134266,53110928,0,20310609,0,11402009,0,0,0,-4070010,31111209,0,0,0,0,0,0,0,0,0,10110209,11610319,0,0,0,0,31612019,0,30801719,0,0,0,0,41300119,0,11810809,0,0
28,64,580.145431333222,0,0,600217.380204977,600218.42722583,3,1,0,30,31,160226013,233557621,240658831,167888885,0,41900219,21901519,12000609,0,11001509,11500619,30711519,31210019,31310819,21900709,22010009,41400719,41911809,11900419,30600009,21711209,10811919,30910319,11001519,21110019,12010209,41801809,31400419,40911909,40501419,11011209,41411919,10711909,-2151101,40311009,0,11800419,31301419,30201109,0
28,65,586.392216850072,0,0,600220.144838939,600221.191867491,3,1,0,3,9,2000141,62834357,103734266,82411628,0,0,-2000141,0,0,0,0,0,0,0,0,0,0,20511219,0,11111719,0,31211419,20011519,0,42001519,0,0,0,30011209,0,11710019,0,41100609,0,0,0,0,41311019,0,0
28,66,437.946079298854,0,0,600222.815356513,600223.862443195,3,0,0,13,19,50614656,76292857,125036565,259245173,0,10300509,0,0,0,10200919,10111719,20001509,0,20200619,40401119,0,-4191000,0,0,0,0,11500119,10110309,0,10211009,21311219,0,0,42002019,41402009,0,41910819,40711809,0,41300609,30201109,0,41500309,42010309,21610209
28,67,640.181479160674,1,0,600225.427061066,600226.474085768,3,0,1,11,31,135248003,145858374,170951451,166827512,22011219,0,10701409,30001019,11210519,10701709,20010119,0,30612009,11111309,-2001081,10311209,30211409,10210219,31301519,0,40200309,10511319,11700009,31510919,21701319,10412019,11200919,20702019,21311209,11011819,31401219,21810309,20400809,40201409,11100619,30201019,21310609,0,10601219,11201519
28,68,541.231887764297,1,0,600228.168176132,600229.21519429,3,0,1,7,31,183099962,226434393,168135731,208725503,21610609,11811009,22011819,41202019,11900109,30210309,-2031060,20612009,21711019,30600819,41500509,20711019,10510409,41300709,40400009,0,41410919,0,10001519,30610309,10300309,20810209,11001719,31800619,20500519,22010519,11100009,21101509,32001619,41210619,41000419,41300219,0,20201109,11910009,0
28,69,454.855939606205,1,0,600230.80340497,600231.850434676,3,1,1,16,19,104735585,147005626,144936175,75939355,21901319,0,0,0,42010119,20511019,0,10101719,10211409,30811019,0,0,41101309,31900309,0,-3081070,40111919,0,41010719,22001619,20001709,0,40510919,21411209,0,0,0,0,11412009,10102009,20911919,11601409,0,0,0,21912009
28,70,598.033866146579,0,0,600233.356284566,600234.403372787,3,0,0,1,19,127424266,143915875,53301818,167047893,-3181101,0,20710609,31100009,30710019,10712019,0,31010509,0,0,0,40411419,0,21701919,0,10701209,30000719,41100609,0,0,32001509,0,0,0,0,0,21300309,31510809,0,30411809,30611709,11300519,11401709,0,20910219,30901119
28,71,500.907456735149,0,0,600236.050364536,600237.097363446,3,1,0,14,31,218657631,190910533,187045692,158157583,30801219,31710209,11410419,30800019,10601509,10011619,20101019,31810409,41411209,31911509,11611919,40701809,41301119,-1060140,32011109,11701519,20611409,0,31000709,30901009,10811819,40310519,11510009,30901109,11200409,20410109,0,21500919,30701319,10011009,20811209,0,21311709,11811209,0,42010209
28,72,747.077465523034,1,0,600238.603209871,600239.650234958,3,1,1,12,19,84113746,48194747,116944994,197637074,20700809,21501019,0,21800409,0,20111509,0,0,0,0,0,-3191010,0,0,22000709,11801419,11201609,0,21010019,0,20711109,11111609,41501419,0,11710119,10900719,0,41910409,0,21011009,30212019,41401809,0,0,21201519,41900309
28,73,623.666975297965,1,0,600241.485497595,600242.532515752,3,1,1,27,3,40501619,30601909,3151170,20010909,0,0,0,40501619,0,0,0,0,0,0,0,0,30601909,0,0,0,0,0,0,0,0,0,0,0,0,0,-3151170,0,0,0,20010909,0,0,0,0,0
28,74,667.893385631032,1,0,600244.297189366,600245.344218303,3,0,1,2,19,54834097,116644465,152525904,166535375,0,-2010040,11210419,0,0,0,20311719,0,21301919,30011209,0,0,11900909,11810219,0,21510809,0,41411319,20411509,0,30800519,20300519,20201819,40111519,20700019,0,0,21901009,0,0,21310519,41410919,41212009,0,40700919,0
28,75,636.629815679044,1,0,600247.07359086,600248.120625956,3,1,1,36,9,11501609,112034537,50722618,82556728,0,0,0,0,0,11501609,0,0,0,40712009,40611309,0,0,0,0,30711219,0,0,0,0,0,40711409,0,10011209,0,0,0,10812019,30201819,0,0,0,0,0,40501709,-1041181
28,76,553.602655883878,1,0,600249.967635722,600251.014665814,3,1,1,5,3,1041171,0,20501619,32122018,0,0,0,0,-1041171,0,0,0,0,0,0,0,0,0,0,0,0,0,0,0,0,0,0,0,0,0,20501619,0,0,0,0,0,20111109,0,12010909,0
28,77,658.713571261615,0,0,600252.579408413,600253.626396928,3,1,0,6,0,0,0,0,0,0,0,0,0,0,-30301501,0,0,0,0,0,0,0,0,0,0,0,0,0,0,0,0,0,0,0,0,0,0,0,0,0,0,0,0,0,0
28,78,541.776609607041,1,0,600255.379276062,600256.426299225,3,1,1,9,9,24391068,21401719,52913947,94611737,0,10710919,0,0,0,11510019,0,0,-2170130,0,0,0,0,0,21401719,0,0,0,0,21201609,0,0,0,0,0,20111419,11600919,21900309,31410319,0,0,0,0,0,0,41301109
28,79,592.010358697735,1,0,600287.802004091,600288.849059206,4,0,1,34,3,0,41800538,20100909,3051191,0,0,0,0,0,0,0,0,0,0,31600219,0,0,10200319,0,0,0,0,0,0,0,0,0,0,0,20100909,0,0,0,0,0,0,0,-3051191,0,0
28,80,419.916363316588,0,0,600290.554873216,600291.601901383,4,0,0,7,3,3131111,0,101624737,0,0,0,0,0,0,0,-3131111,0,0,0,0,0,0,0,0,0,0,0,0,30311719,0,0,0,0,31111609,0,40201409,0,0,0,0,0,0,0,0,0
28,81,512.181466910988,0,0,600293.213635962,600294.260664514,4,1,0,16,19,104735585,147005626,144936175,75939355,21901319,0,0,0,42010119,20511019,0,10101719,10211409,30811019,0,0,41101309,31900309,0,-3081070,40111919,0,41010719,22001619,20001709,0,40510919,21411209,0,0,0,0,11412009,10102009,20911919,11601409,0,0,0,21912009
28,82,508.657905622385,1,0,600295.837150392,600296.884126589,4,1,1,27,3,40501619,30601909,3151170,20010909,0,0,0,40501619,0,0,0,0,0,0,0,0,30601909,0,0,0,0,0,0,0,0,0,0,0,0,0,-3151170,0,0,0,20010909,0,0,0,0,0
28,83,538.593355100602,0,0,600298.519391998,600299.566419395,4,1,0,22,19,93004346,134035165,137245755,154112675,30601819,0,0,0,10601009,31500809,0,20300709,0,21110609,0,0,20511619,40500719,0,30511809,0,21400409,30610819,21610319,20600019,-3121180,0,0,0,40301809,21001609,0,0,40901519,20400509,0,21600219,40400119,0,30810309
28,84,505.764527944848,0,0,600301.236973925,600302.283995933,4,0,0,25,31,188448412,199835683,157410663,217968031,10610419,40211009,0,10810419,21601219,21702019,41201209,31411709,10900409,21202009,0,41811209,32010309,20200109,31400809,41410919,11800319,0,41602009,11511219,10502009,20101619,10211509,30910519,-1070160,31501619,0,20511909,22001619,40000119,10810619,20210619,31710309,20610909,41811719,10300209
28,85,637.577593326569,0,0,600303.872200453,600304.919229005,4,1,0,36,9,11501609,112034537,50722618,82556728,0,0,0,0,0,11501609,0,0,0,40712009,40611309,0,0,0,0,30711219,0,0,0,0,0,40711409,0,10011209,0,0,0,10812019,30201819,0,0,0,0,0,40501709,-1041181
28,86,533.303971169516,1,0,600306.707424593,600307.75445199,4,1,1,3,9,2000141,62834357,103734266,82411628,0,0,-2000141,0,0,0,0,0,0,0,0,0,0,20511219,0,11111719,0,31211419,20011519,0,42001519,0,0,0,30011209,0,11710019,0,41100609,0,0,0,0,41311019,0,0
28,87,595.69752914831,0,0,600309.460299108,600310.50732535,4,0,0,4,19,109795595,75213327,166604675,196427884,0,11911409,0,-3061140,0,11701609,21310409,40310809,21500219,0,31610809,0,0,0,0,22001109,21601409,0,21401909,0,40301009,41400619,0,21701019,0,0,41800119,0,20701819,41401209,22011219,40001219,0,40511209,31801209,0
28,88,481.876838486642,0,0,600312.224939615,600313.272025911,4,0,0,23,3,51722628,0,4080130,20510809,41412019,0,0,10310609,0,0,0,0,0,0,0,0,0,0,0,0,0,0,0,0,0,0,-4080130,0,0,0,0,0,0,0,0,0,0,0,0,20510809
28,89,442.683042259887,1,0,600314.919033059,600315.96601965,4,0,1,4,0,0,0,0,0,0,0,0,-10900201,0,0,0,0,0,0,0,0,0,0,0,0,0,0,0,0,0,0,0,0,0,0,0,0,0,0,0,0,0,0,0,0
28,90,410.362750291824,0,0,600317.601273894,600318.648302061,4,1,0,9,9,24391068,21401719,52913947,94611737,0,10710919,0,0,0,11510019,0,0,-2170130,0,0,0,0,0,21401719,0,0,0,0,21201609,0,0,0,0,0,20111419,11600919,21900309,31410319,0,0,0,0,0,0,41301109
28,91,420.782913803123,1,0,600320.165983386,600321.21299577,4,1,1,10,31,209135112,189002303,206628693,220160351,41700909,11700019,30110409,31211419,0,21700509,30700109,20501519,21510219,-3130110,40311309,10212019,0,40501809,31612019,11511609,41111809,10611619,0,30811819,41601609,10101209,0,32001819,31211409,40900109,20000719,10710719,30400509,32001019,31011919,21801219,10910319,30011619,21501019,31812009
28,92,489.08218042925,0,0,600322.7776198,600323.824642963,4,1,0,5,3,1041171,0,20501619,32122018,0,0,0,0,-1041171,0,0,0,0,0,0,0,0,0,0,0,0,0,0,0,0,0,0,0,0,0,20501619,0,0,0,0,0,20111109,0,12010909,0
28,93,405.741661204956,0,0,600325.459909911,600326.506932303,4,0,0,8,19,177908254,106725765,71533027,155316175,30301909,42011609,0,21110309,41111709,20511309,20811409,-2050000,0,0,12001609,0,0,10701809,20010119,32011009,0,32001219,0,0,20511209,0,0,0,10311009,0,40710809,0,40301309,21611919,0,42001619,30301119,21100209,0,0
28,94,620.39594957605,1,0,600328.095134898,600329.142167685,4,0,1,31,19,248947973,112123056,137444574,55954609,31801909,41500109,41400609,0,31611209,0,30911909,40411409,31310819,0,30210919,20500009,0,0,40801709,20610419,0,0,0,12011009,0,21310519,32010809,20410809,0,30500609,21200819,0,0,0,-3051181,41301819,0,11601609,0,0
28,95,571.259728283621,1,0,600330.883305849,600331.930327087,4,0,1,13,9,101504147,23850350,92824647,52312938,0,0,21100609,40201719,0,0,0,0,40201819,0,21700309,0,-2150041,0,0,0,0,0,41201719,0,0,21611909,0,0,0,30011019,0,0,0,0,0,0,41412019,0,10900919,0
28,96,413.133710040711,1,0,600333.624408982,600334.671436379,4,1,1,19,3,20110719,0,11892809,41210619,0,0,0,0,0,0,0,0,20110719,0,0,0,0,0,0,0,0,0,-1081200,0,0,10811609,0,0,0,0,0,0,0,0,0,41210619,0,0,0,0
28,97,675.643449532799,0,0,600336.236185137,600337.283135542,4,0,0,32,31,146136403,255858402,178727212,221346562,10801209,0,0,11701009,40910219,30810319,20000809,10412019,21500819,20111609,41400519,10111909,41610719,30010819,0,30901209,41710709,40000909,31501609,11601419,12000219,10210119,30101319,41802009,0,10800509,30710009,31200419,20800509,20810119,40900319,-3000040,41010009,11302019,11211519,41111609
28,98,612.786781857722,1,0,600339.141922464,600340.188943316,4,1,1,6,0,0,0,0,0,0,0,0,0,0,-30301501,0,0,0,0,0,0,0,0,0,0,0,0,0,0,0,0,0,0,0,0,0,0,0,0,0,0,0,0,0,0
28,99,523.324974696152,1,0,600341.824212575,600342.871239202,4,1,1,14,31,218657631,190910533,187045692,158157583,30801219,31710209,11410419,30800019,10601509,10011619,20101019,31810409,41411209,31911509,11611919,40701809,41301119,-1060140,32011109,11701519,20611409,0,31000709,30901009,10811819,40310519,11510009,30901109,11200409,20410109,0,21500919,30701319,10011009,20811209,0,21311709,11811209,0,42010209
28,100,571.548835025169,0,0,600344.482971856,600345.529990784,4,1,0,12,19,84113746,48194747,116944994,197637074,20700809,21501019,0,21800409,0,20111509,0,0,0,0,0,-3191010,0,0,22000709,11801419,11201609,0,21010019,0,20711109,11111609,41501419,0,11710119,10900719,0,41910409,0,21011009,30212019,41401809,0,0,21201519,41900309
28,101,700.565148261376,1,0,600347.224072294,600348.271103541,4,1,1,30,31,160226013,233557621,240658831,167888885,0,41900219,21901519,12000609,0,11001509,11500619,30711519,31210019,31310819,21900709,22010009,41400719,41911809,11900419,30600009,21711209,10811919,30910319,11001519,21110019,12010209,41801809,31400419,40911909,40501419,11011209,41411919,10711909,-2151101,40311009,0,11800419,31301419,30201109,0
28,102,528.079645941034,1,0,600350.000482258,600351.047498876,4,0,1,11,31,239949961,199085314,220149513,226340241,21500919,10910709,41911519,40910619,41400719,21601619,10110719,40001719,11601419,41300709,-4030130,40410719,0,30311619,0,41610409,20310419,21111309,0,40411419,32001609,31601419,31110819,41901909,0,11910719,31211619,30001819,31911019,20902019,11410509,40010519,30001509,40500009,11201319,10401519
28,103,541.587978019379,0,0,600352.776884137,600353.823906144,4,0,0,2,9,23341639,92223947,73812147,53011328,0,-3131020,0,0,20210619,0,0,0,0,0,22011509,0,30102019,0,0,0,0,40110419,0,0,11600519,21800119,0,40411509,0,0,0,0,32011219,0,0,0,0,0,0,21000109
28,104,611.398607259616,1,0,600355.412115669,600356.459140371,4,0,1,1,9,127673547,21510409,21000709,83921447,-3140091,41711019,30710509,0,0,41901319,10210609,0,0,0,0,0,0,0,0,0,0,21510409,0,0,0,0,0,0,21000709,0,0,0,0,10610009,0,0,0,31301219,0,42010219
28,105,657.40161924623,0,0,600384.387860725,600385.434897361,5,1,0,19,3,20110719,0,11892809,41210619,0,0,0,0,0,0,0,0,20110719,0,0,0,0,0,0,0,0,0,-1081200,0,0,10811609,0,0,0,0,0,0,0,0,0,41210619,0,0,0,0
28,106,553.817849955522,1,0,600387.246621084,600388.293648866,5,0,1,13,9,60800828,73843608,113011147,42812028,0,0,0,0,30400119,0,0,30400709,0,0,0,0,-2030070,0,0,0,31311719,40501819,0,30900709,0,40510219,0,0,0,41600219,0,0,0,0,11610709,0,0,0,31201319,0
28,107,462.136349291541,1,0,600389.917146743,600390.96417106,5,0,1,8,19,158094735,186144394,93327065,92823827,30101319,11501119,0,41100119,0,41110819,0,-3180050,31101309,0,40201509,40610419,32000419,0,20911109,31810319,20610619,0,10801909,0,0,30400719,10211909,0,31900909,10011619,0,30911409,0,0,0,40401709,0,0,21510709,0
28,108,589.080024743453,0,0,600392.611196301,600393.658221389,5,0,0,25,31,188248593,230331431,158567763,178851113,41111119,0,20201109,21111909,31811219,41501309,0,20610309,11901619,42011109,40300109,10402019,31201319,41401819,11400409,11301219,21211919,21101509,40411219,10001309,21211109,20110409,10400209,10311109,-4011071,21900319,20211009,22010809,0,40502019,21802009,30711619,41611219,10301619,11911819,0
28,109,563.255204120651,1,0,600395.422893847,600396.469918934,5,1,1,10,31,209135112,189002303,206628693,220160351,41700909,11700019,30110409,31211419,0,21700509,30700109,20501519,21510219,-3130110,40311309,10212019,0,40501809,31612019,11511609,41111809,10611619,0,30811819,41601609,10101209,0,32001819,31211409,40900109,20000719,10710719,30400509,32001019,31011919,21801219,10910319,30011619,21501019,31812009
28,110,642.826171126217,0,0,600398.140510036,600399.187519725,5,1,0,3,9,2000141,62834357,103734266,82411628,0,0,-2000141,0,0,0,0,0,0,0,0,0,0,20511219,0,11111719,0,31211419,20011519,0,42001519,0,0,0,30011209,0,11710019,0,41100609,0,0,0,0,41311019,0,0
28,111,521.644228720106,0,0,600400.940403864,600401.987491315,5,1,0,22,19,93004346,134035165,137245755,154112675,30601819,0,0,0,10601009,31500809,0,20300709,0,21110609,0,0,20511619,40500719,0,30511809,0,21400409,30610819,21610319,20600019,-3121180,0,0,0,40301809,21001609,0,0,40901519,20400509,0,21600219,40400119,0,30810309
28,112,526.860084850341,0,0,600403.587404853,600404.63448191,5,0,0,11,31,186346093,180008684,268338851,197947402,20511009,0,20701819,0,21110919,31910609,10700709,41300909,40110119,31511919,-3151061,11000519,30911809,20301719,31210419,0,21510919,30410319,41111519,40501919,30300219,20200719,30000009,41500519,41811319,11101709,11810919,20301309,31801409,30011209,40810719,20010409,0,11701009,31610219,11701119
28,113,653.065402293578,1,0,600406.352040355,600407.399062747,5,0,1,31,9,104524346,0,52703428,75182187,0,0,32000209,0,0,0,21810509,30001709,20711919,0,0,0,0,0,0,0,0,0,0,0,0,0,21901819,0,30801609,0,0,0,30810319,0,-2151140,12010709,0,30210019,0,0
28,114,935.955053544603,0,0,600409.140202452,600410.187229079,5,0,0,4,9,34731089,102912047,105613537,20700738,0,0,0,-3120070,0,31611019,0,0,0,40510419,0,0,31400709,0,0,0,0,31000919,0,0,0,0,0,0,42000919,31711709,31900909,10100019,0,0,0,0,0,10600719,0,0
28,115,568.320540012792,1,0,600412.257773831,600413.304805463,5,0,1,23,3,20501209,31510709,2140120,10301819,0,0,0,0,0,0,20501209,0,0,0,0,0,0,0,31510709,0,0,0,0,0,0,0,-2140120,0,0,0,0,10301819,0,0,0,0,0,0,0,0
28,116,481.36560828425,1,0,600415.05770115,600416.104729702,5,1,1,5,3,1041171,0,20501619,32122018,0,0,0,0,-1041171,0,0,0,0,0,0,0,0,0,0,0,0,0,0,0,0,0,0,0,0,0,20501619,0,0,0,0,0,20111109,0,12010909,0
28,117,779.541733325459,1,0,600417.610589601,600418.657611608,5,1,1,36,9,11501609,112034537,50722618,82556728,0,0,0,0,0,11501609,0,0,0,40712009,40611309,0,0,0,0,30711219,0,0,0,0,0,40711409,0,10011209,0,0,0,10812019,30201819,0,0,0,0,0,40501709,-1041181
28,118,553.844797192141,1,0,600420.622278985,600421.669363742,5,0,1,7,31,241189403,194756612,165355903,186249441,41211419,10710309,41001909,31901909,40300309,40011809,-4040020,32011719,0,10500119,40600309,20100419,30010909,0,22010509,20011819,11410609,40111919,0,41001519,11010409,40700319,11411819,30110709,21010619,0,10110509,10000909,20110919,11801119,10200809,40000719,40900119,31411609,10311319,11511919
28,119,580.94846305903,0,0,600423.281036727,600424.328057579,5,0,0,2,19,97945234,94924556,165326585,144312366,0,-2011030,21810419,11900319,11311319,20210219,10501519,0,20200409,0,0,31910519,32000609,0,0,20701619,10311809,0,21710909,41500719,0,20112019,0,40001919,0,0,42001019,0,0,40710809,21500019,0,0,40200819,41900719,0
28,120,567.604894866236,1,0,600426.010380412,600427.057403574,5,1,1,12,19,84113746,48194747,116944994,197637074,20700809,21501019,0,21800409,0,20111509,0,0,0,0,0,-3191010,0,0,22000709,11801419,11201609,0,21010019,0,20711109,11111609,41501419,0,11710119,10900719,0,41910409,0,21011009,30212019,41401809,0,0,21201519,41900309
28,121,509.687680169009,0,0,600428.704431895,600429.751455058,5,0,0,1,3,3051181,0,21500709,31510218,-3051181,0,0,0,0,0,0,0,0,0,0,0,0,0,0,0,0,0,0,0,0,0,21500709,0,0,0,0,0,0,0,10210209,0,0,0,21300009,0
28,122,631.027842289768,1,0,600431.422005739,600432.469031211,5,1,1,27,3,40501619,30601909,3151170,20010909,0,0,0,40501619,0,0,0,0,0,0,0,0,30601909,0,0,0,0,0,0,0,0,0,0,0,0,0,-3151170,0,0,0,20010909,0,0,0,0,0
28,123,567.789291730151,0,0,600434.163118496,600435.210184004,5,1,0,16,19,104735585,147005626,144936175,75939355,21901319,0,0,0,42010119,20511019,0,10101719,10211409,30811019,0,0,41101309,31900309,0,-3081070,40111919,0,41010719,22001619,20001709,0,40510919,21411209,0,0,0,0,11412009,10102009,20911919,11601409,0,0,0,21912009
28,124,662.985884468071,0,0,600436.868940976,600437.915955669,5,1,0,30,31,160226013,233557621,240658831,167888885,0,41900219,21901519,12000609,0,11001509,11500619,30711519,31210019,31310819,21900709,22010009,41400719,41911809,11900419,30600009,21711209,10811919,30910319,11001519,21110019,12010209,41801809,31400419,40911909,40501419,11011209,41411919,10711909,-2151101,40311009,0,11800419,31301419,30201109,0
28,125,535.206840489991,1,0,600439.774749905,600440.821776147,5,1,1,14,31,218657631,190910533,187045692,158157583,30801219,31710209,11410419,30800019,10601509,10011619,20101019,31810409,41411209,31911509,11611919,40701809,41301119,-1060140,32011109,11701519,20611409,0,31000709,30901009,10811819,40310519,11510009,30901109,11200409,20410109,0,21500919,30701319,10011009,20811209,0,21311709,11811209,0,42010209
28,126,569.213652866893,0,0,600442.362917853,600443.409941786,5,0,0,34,19,163826994,154727385,143424455,78814278,30600819,40011119,10310709,0,0,10600809,41102019,0,31201519,40301219,0,30711319,0,0,0,30511319,21201809,32001719,0,40900909,31310409,10201109,20410019,40602009,0,0,0,0,12001909,0,0,41511109,0,-4190151,0,21111109
28,127,618.712508701719,1,0,600445.056965872,600446.103982875,5,1,1,6,0,0,0,0,0,0,0,0,0,0,-30301501,0,0,0,0,0,0,0,0,0,0,0,0,0,0,0,0,0,0,0,0,0,0,0,0,0,0,0,0,0,0
28,128,466.765907593071,0,0,600447.751090113,600448.798122515,5,0,0,32,3,0,10700509,52510628,2070111,0,0,0,0,0,0,0,0,0,0,0,0,10700509,0,0,0,0,0,40900319,0,0,11610309,0,0,0,0,0,0,0,0,0,-2070111,0,0,0,0
28,129,577.651259605773,0,0,600450.280371512,600451.327400449,5,0,0,30,0,0,0,0,0,0,0,0,0,0,0,0,0,0,0,0,0,0,0,0,0,0,0,0,0,0,0,0,0,0,0,0,0,0,-31000001,0,0,0,0,0,0
28,130,494.948623119853,1,0,600452.99794882,600454.044976602,5,1,1,9,9,24391068,21401719,52913947,94611737,0,10710919,0,0,0,11510019,0,0,-2170130,0,0,0,0,0,21401719,0,0,0,0,21201609,0,0,0,0,0,20111419,11600919,21900309,31410319,0,0,0,0,0,0,41301109
28,131,543.643677374348,0,0,600484.456001002,600485.503025705,6,1,0,3,9,2000141,62834357,103734266,82411628,0,0,-2000141,0,0,0,0,0,0,0,0,0,0,20511219,0,11111719,0,31211419,20011519,0,42001519,0,0,0,30011209,0,11710019,0,41100609,0,0,0,0,41311019,0,0
28,132,550.563377328217,1,0,600487.091227145,600488.138245687,6,0,1,4,19,87425686,93015246,136525275,167425574,0,21501119,12000219,-3011010,30401619,20511719,0,0,0,21011109,0,30001309,0,0,0,11701409,0,30301419,31511209,0,0,0,0,10500919,41111519,31901009,21500619,30401009,0,0,31700519,12011809,40501509,41810309,11000419,0
28,133,545.004519633949,0,0,600489.761755498,600490.80883525,6,1,0,22,19,93004346,134035165,137245755,154112675,30601819,0,0,0,10601009,31500809,0,20300709,0,21110609,0,0,20511619,40500719,0,30511809,0,21400409,30610819,21610319,20600019,-3121180,0,0,0,40301809,21001609,0,0,40901519,20400509,0,21600219,40400119,0,30810309
28,134,648.965167230926,1,0,600492.561689746,600493.608704439,6,1,1,9,9,24391068,21401719,52913947,94611737,0,10710919,0,0,0,11510019,0,0,-2170130,0,0,0,0,0,21401719,0,0,0,0,21201609,0,0,0,0,0,20111419,11600919,21900309,31410319,0,0,0,0,0,0,41301109
28,135,431.572641129605,0,0,600495.432201854,600496.479230021,6,0,0,2,3,42801889,10111419,21001519,0,0,-2200080,0,40601809,0,0,0,0,0,0,0,0,0,10111419,0,0,0,0,0,0,0,0,0,0,0,21001519,0,0,0,0,0,0,0,0,0,0
28,136,476.987045374699,0,0,600498.055668164,600499.102692866,6,0,0,1,31,211029363,158744792,209429832,207449622,-4191160,21000419,41500819,40910709,10602009,40712019,30810409,0,21301819,20800109,0,41700619,10300009,10810809,10910509,32011619,20600509,11610609,30600209,32001919,41401509,0,11512019,11911519,20300519,40301319,21400819,20101819,0,10100919,20101709,21911309,31410319,40811209,21012019,42000319
28,137,445.684979320504,1,0,600500.73795635,600501.784982977,6,0,1,11,19,94415246,106723607,176744983,145233565,0,11612009,0,0,31701709,11000519,0,0,40101009,0,-2000060,41600809,0,31110819,32011919,0,0,0,22010209,41001809,0,0,20610219,40301009,20610709,21300809,10910219,41610509,0,22010009,0,0,30600619,10902009,40110419,0
28,138,576.751602464356,1,0,600503.384947714,600504.431971262,6,0,1,13,9,52823428,87046026,71501328,11701419,0,0,0,0,41911719,10911709,0,0,0,11512009,0,20510719,-3110170,30911809,21001319,0,0,0,0,41500119,0,0,30001209,0,0,0,0,0,11701419,0,0,0,0,0,0,0
28,139,557.411089306697,1,0,600506.173110966,600507.220136823,6,1,1,14,31,218657631,190910533,187045692,158157583,30801219,31710209,11410419,30800019,10601509,10011619,20101019,31810409,41411209,31911509,11611919,40701809,41301119,-1060140,32011109,11701519,20611409,0,31000709,30901009,10811819,40310519,11510009,30901109,11200409,20410109,0,21500919,30701319,10011009,20811209,0,21311709,11811209,0,42010209
28,140,579.125280841254,0,0,600508.808350582,600509.855374129,6,0,0,7,19,77494198,133826066,114205865,197228303,0,0,0,0,31812019,31200119,-4081051,10401009,0,0,31712019,41900919,0,0,20011819,40201309,0,0,20401419,21300709,0,10100709,0,0,21801719,40601309,0,41800619,40201919,21202019,41301209,0,0,31010309,11201709,10510519
28,141,720.075814751908,1,0,600511.502396291,600512.549423688,6,1,1,6,0,0,0,0,0,0,0,0,0,0,-30301501,0,0,0,0,0,0,0,0,0,0,0,0,0,0,0,0,0,0,0,0,0,0,0,0,0,0,0,0,0,0
28,142,787.518539931625,0,0,600514.372910709,600515.419942725,6,1,0,36,9,11501609,112034537,50722618,82556728,0,0,0,0,0,11501609,0,0,0,40712009,40611309,0,0,0,0,30711219,0,0,0,0,0,40711409,0,10011209,0,0,0,10812019,30201819,0,0,0,0,0,40501709,-1041181
28,143,727.976014022715,0,0,600517.290489095,600518.337511102,6,1,0,19,3,20110719,0,11892809,41210619,0,0,0,0,0,0,0,0,20110719,0,0,0,0,0,0,0,0,0,-1081200,0,0,10811609,0,0,0,0,0,0,0,0,0,41210619,0,0,0,0
28,144,833.079615025781,0,0,600520.090420263,600521.137448815,6,1,0,27,3,40501619,30601909,3151170,20010909,0,0,0,40501619,0,0,0,0,0,0,0,0,30601909,0,0,0,0,0,0,0,0,0,0,0,0,0,-3151170,0,0,0,20010909,0,0,0,0,0
28,145,713.826719438657,1,0,600523.078582668,600524.125627003,6,1,1,12,19,84113746,48194747,116944994,197637074,20700809,21501019,0,21800409,0,20111509,0,0,0,0,0,-3191010,0,0,22000709,11801419,11201609,0,21010019,0,20711109,11111609,41501419,0,11710119,10900719,0,41910409,0,21011009,30212019,41401809,0,0,21201519,41900309
28,146,595.704843406565,1,0,600526.007920887,600527.054991785,6,1,1,30,31,160226013,233557621,240658831,167888885,0,41900219,21901519,12000609,0,11001509,11500619,30711519,31210019,31310819,21900709,22010009,41400719,41911809,11900419,30600009,21711209,10811919,30910319,11001519,21110019,12010209,41801809,31400419,40911909,40501419,11011209,41411919,10711909,-2151101,40311009,0,11800419,31301419,30201109,0
28,147,600.794816855341,0,0,600528.772560624,600529.819595335,6,0,0,23,9,83100928,82624637,43931119,73002957,0,0,0,0,0,41200719,0,0,41900209,0,0,0,0,0,30701409,0,40711919,11211309,0,0,0,40911119,-3020000,0,0,0,0,0,0,41301619,21400419,0,0,0,10300919,0
28,148,482.200591824949,0,0,600531.584257015,600532.631277097,6,0,0,8,3,32670930,0,0,51810628,0,30510809,0,0,0,0,0,-2160121,0,0,0,0,0,0,0,0,0,0,0,0,0,0,0,0,0,0,0,0,0,0,0,0,0,31610619,20200009,0
28,149,499.881531926803,1,0,600534.219490086,600535.266509784,6,1,1,5,3,1041171,0,20501619,32122018,0,0,0,0,-1041171,0,0,0,0,0,0,0,0,0,0,0,0,0,0,0,0,0,0,0,0,0,20501619,0,0,0,0,0,20111109,0,12010909,0
28,150,516.420288360678,0,0,600536.78413375,600537.831157682,6,0,0,25,31,185927422,198258402,201527713,237656803,10001819,31301909,40600719,20311019,40700209,10900119,12011519,0,20100109,31811219,30411909,0,41710909,30810409,11011009,20301809,20400519,11800619,11711009,11810419,21611119,20410919,40301119,21600509,-2161001,30111109,41810509,41301219,21711319,41701219,0,41111809,30011009,21210019,40610209,0
28,151,617.149561294355,1,0,600539.419360662,600540.466381514,6,1,1,16,19,104735585,147005626,144936175,75939355,21901319,0,0,0,42010119,20511019,0,10101719,10211409,30811019,0,0,41101309,31900309,0,-3081070,40111919,0,41010719,22001619,20001709,0,40510919,21411209,0,0,0,0,11412009,10102009,20911919,11601409,0,0,0,21912009
28,152,556.739714811556,0,0,600542.254588652,600543.30160604,6,0,0,32,9,43113038,95413527,73320657,24471059,0,0,0,0,11802019,0,31311019,0,0,0,41801709,0,41601109,0,0,0,0,12010709,31610019,0,0,30700419,11010219,0,0,0,0,0,0,0,0,-4060150,20410909,0,0,0
28,153,605.584904435091,1,0,600544.936874143,600545.983897306,6,0,1,31,3,41302009,0,0,31443298,0,0,41302009,0,0,0,0,0,0,0,0,0,0,0,0,0,0,0,0,0,0,0,0,0,0,0,0,10201409,0,0,-1131180,20110709,0,0,0,0
28,154,492.308165761642,1,0,600547.630917542,600548.677944939,6,1,1,10,31,209135112,189002303,206628693,220160351,41700909,11700019,30110409,31211419,0,21700509,30700109,20501519,21510219,-3130110,40311309,10212019,0,40501809,31612019,11511609,41111809,10611619,0,30811819,41601609,10101209,0,32001819,31211409,40900109,20000719,10710719,30400509,32001019,31011919,21801219,10910319,30011619,21501019,31812009
28,155,447.663301369175,1,0,600550.289683753,600551.33670884,6,0,1,16,0,0,0,0,0,0,0,0,0,0,0,0,0,0,0,0,0,0,0,0,-40810301,0,0,0,0,0,0,0,0,0,0,0,0,0,0,0,0,0,0,0,0
28,156,549.477783264592,0,0,600552.877852086,600553.924879483,6,0,0,34,31,229977401,209689712,198956621,155996526,11711609,30001019,10811109,41300709,31110909,41310209,31711009,11410709,20610119,21511909,0,32011219,10410119,41811019,21311809,40611409,31212009,10810219,30910019,20511309,20610409,11210809,30301109,12000419,21000019,11210909,41201619,30501619,0,30510419,31900109,30101309,0,-2171161,0,30811909
28,157,587.280325242318,0,0,600587.829924647,600588.876960898,7,1,0,19,3,20110719,0,11892809,41210619,0,0,0,0,0,0,0,0,20110719,0,0,0,0,0,0,0,0,0,-1081200,0,0,10811609,0,0,0,0,0,0,0,0,0,41210619,0,0,0,0
28,158,565.497610368766,1,0,600590.50045685,600591.547478858,7,0,1,25,9,42612228,72812647,24051940,112624337,0,31602019,0,11010209,0,0,0,0,0,0,0,0,0,21611419,0,10901119,0,40300109,21901809,0,0,0,0,0,-2150131,0,0,0,31911819,0,40001409,0,0,0,0,40711109
28,159,555.45778980013,0,0,600593.194508333,600594.241532651,7,1,0,36,9,11501609,112034537,50722618,82556728,0,0,0,0,0,11501609,0,0,0,40712009,40611309,0,0,0,0,30711219,0,0,0,0,0,40711409,0,10011209,0,0,0,10812019,30201819,0,0,0,0,0,40501709,-1041181
28,160,478.143857675605,0,0,600595.876788435,600596.923821992,7,0,0,34,31,238041341,208964603,177435403,209691802,20801519,11211919,40401219,20300709,40901409,41111309,21411419,31301019,10600819,11410219,40711009,0,31210209,41911719,20410119,31500219,31811109,0,12010019,11100319,41310509,0,30101519,10701409,0,40610509,31601119,20311119,41911719,40401119,11701509,20910709,10011409,-3031180,40511119,20901919
28,161,479.814594611526,1,0,600598.500265524,600599.547311014,7,1,1,5,3,1041171,0,20501619,32122018,0,0,0,0,-1041171,0,0,0,0,0,0,0,0,0,0,0,0,0,0,0,0,0,0,0,0,0,20501619,0,0,0,0,0,20111109,0,12010909,0
28,162,523.169834865257,1,0,600601.111955832,600602.158984769,7,0,1,8,31,134736626,277369241,230569792,170345961,30801619,0,41101609,40101219,0,10210819,11510309,-1011051,0,31911809,40411319,40011219,31600319,21100919,20900119,30911019,40410809,20111709,32010409,42011319,0,21110719,30710609,21002009,30811609,12011509,40901609,10910519,21700109,11401419,30600119,20300819,11610019,30010219,21801319,12011419
28,163,471.216073492542,0,0,600603.770849851,600604.817740586,7,0,0,32,9,80512118,147254685,52411218,2060131,0,0,0,0,40210109,0,0,40302009,0,11510419,0,31211009,0,31911119,0,32011619,0,40610519,11010409,0,0,0,0,0,41400809,0,0,0,0,0,0,-2060131,0,0,0,0
28,164,602.766594500281,1,0,600606.347133623,600607.394149086,7,0,1,1,3,4141051,31211419,30311009,30402009,-4141051,0,0,0,0,0,0,0,0,0,0,0,0,0,31211419,0,0,0,0,0,0,0,0,30311009,0,0,0,0,0,0,0,0,0,0,0,30402009
28,165,477.114083128981,0,0,600609.111759116,600610.158784974,7,0,0,32,0,0,0,0,0,0,0,0,0,0,0,0,0,0,0,0,0,0,0,0,0,0,0,0,0,0,0,0,0,0,0,0,0,0,0,0,-41201601,0,0,0,0
28,166,474.694594158791,1,0,600611.688173776,600612.735230431,7,0,1,13,19,122643256,51953309,150349012,135735475,0,10210019,0,0,0,31411319,40711309,0,40310609,0,0,10112009,-1031091,0,0,0,40810209,0,20300619,11710409,11101219,11312009,21300919,32010509,20801719,0,21811609,41302019,0,20711509,0,21510019,0,20211819,32000109,0
28,167,447.157460614108,1,0,600614.252808586,600615.299835598,7,1,1,3,9,2000141,62834357,103734266,82411628,0,0,-2000141,0,0,0,0,0,0,0,0,0,0,20511219,0,11111719,0,31211419,20011519,0,42001519,0,0,0,30011209,0,11710019,0,41100609,0,0,0,0,41311019,0,0
28,168,538.383550592698,0,0,600616.864510443,600617.911543614,7,0,0,2,3,32610920,31001909,20010509,0,0,-1100101,0,0,0,31510819,0,0,0,0,0,0,0,0,31001909,0,0,0,0,0,20010509,0,0,0,0,0,0,0,0,0,0,0,0,0,0,0
28,169,506.248810677789,1,0,600619.605622815,600620.652646363,7,1,1,9,9,24391068,21401719,52913947,94611737,0,10710919,0,0,0,11510019,0,0,-2170130,0,0,0,0,0,21401719,0,0,0,0,21201609,0,0,0,0,0,20111419,11600919,21900309,31410319,0,0,0,0,0,0,41301109
28,170,592.263664118946,1,0,600622.20555791,600623.252589157,7,1,1,30,31,160226013,233557621,240658831,167888885,0,41900219,21901519,12000609,0,11001509,11500619,30711519,31210019,31310819,21900709,22010009,41400719,41911809,11900419,30600009,21711209,10811919,30910319,11001519,21110019,12010209,41801809,31400419,40911909,40501419,11011209,41411919,10711909,-2151101,40311009,0,11800419,31301419,30201109,0
28,171,592.644006945193,0,0,600624.911371151,600625.958400473,7,0,0,31,9,0,44122837,63222837,64993837,0,0,0,0,0,0,0,0,0,0,0,11911309,0,0,21911209,0,10300319,0,0,0,0,0,41801619,0,11110309,0,10310909,0,0,0,-1070100,31911909,21400009,10611819,0,0
28,172,577.83719652798,1,0,600627.581894885,600628.628918047,7,0,1,11,19,81814656,62850848,136757404,275140183,0,0,20301809,0,10611819,40400109,10500919,0,0,0,-2040120,0,40600619,20210109,0,0,0,0,0,41011319,20101919,11910219,20811409,32011419,10911119,0,0,40001909,0,40601419,40611819,40600909,41511809,41810909,0,30001409
28,173,533.765926142223,0,0,600630.264186151,600631.311207773,7,1,0,22,19,93004346,134035165,137245755,154112675,30601819,0,0,0,10601009,31500809,0,20300709,0,21110609,0,0,20511619,40500719,0,30511809,0,21400409,30610819,21610319,20600019,-3121180,0,0,0,40301809,21001609,0,0,40901519,20400509,0,21600219,40400119,0,30810309
28,174,610.398474847898,0,0,600632.852353329,600633.899384576,7,1,0,12,19,84113746,48194747,116944994,197637074,20700809,21501019,0,21800409,0,20111509,0,0,0,0,0,-3191010,0,0,22000709,11801419,11201609,0,21010019,0,20711109,11111609,41501419,0,11710119,10900719,0,41910409,0,21011009,30212019,41401809,0,0,21201519,41900309
28,175,445.987559738569,1,0,600635.569971058,600636.616966503,7,0,1,23,3,42912838,20910409,2170110,0,22000819,20912019,0,0,0,0,0,0,0,0,0,20910409,0,0,0,0,0,0,0,0,0,0,-2170110,0,0,0,0,0,0,0,0,0,0,0,0,0
28,176,621.163949603215,0,0,600638.087542284,600639.134542349,7,1,0,14,31,218657631,190910533,187045692,158157583,30801219,31710209,11410419,30800019,10601509,10011619,20101019,31810409,41411209,31911509,11611919,40701809,41301119,-1060140,32011109,11701519,20611409,0,31000709,30901009,10811819,40310519,11510009,30901109,11200409,20410109,0,21500919,30701319,10011009,20811209,0,21311709,11811209,0,42010209
28,177,564.396617817692,0,0,600640.840390621,600641.887420713,7,1,0,6,0,0,0,0,0,0,0,0,0,0,-30301501,0,0,0,0,0,0,0,0,0,0,0,0,0,0,0,0,0,0,0,0,0,0,0,0,0,0,0,0,0,0
28,178,575.265647377819,1,0,600643.581504533,600644.62852885,7,1,1,10,31,209135112,189002303,206628693,220160351,41700909,11700019,30110409,31211419,0,21700509,30700109,20501519,21510219,-3130110,40311309,10212019,0,40501809,31612019,11511609,41111809,10611619,0,30811819,41601609,10101209,0,32001819,31211409,40900109,20000719,10710719,30400509,32001019,31011919,21801219,10910319,30011619,21501019,31812009
28,179,481.618528603576,0,0,600646.346141575,600647.393171667,7,1,0,27,3,40501619,30601909,3151170,20010909,0,0,0,40501619,0,0,0,0,0,0,0,0,30601909,0,0,0,0,0,0,0,0,0,0,0,0,0,-3151170,0,0,0,20010909,0,0,0,0,0
28,180,465.614484972321,1,0,600649.004902396,600650.052008711,7,1,1,16,19,104735585,147005626,144936175,75939355,21901319,0,0,0,42010119,20511019,0,10101719,10211409,30811019,0,0,41101309,31900309,0,-3081070,40111919,0,41010719,22001619,20001709,0,40510919,21411209,0,0,0,0,11412009,10102009,20911919,11601409,0,0,0,21912009
28,181,513.665882055648,0,0,600651.698958499,600652.745975117,7,0,0,4,31,130337284,227128351,235959022,187918812,40210409,11400909,21201219,-4010120,21301909,0,0,11301209,20911509,20310409,21201909,11300619,30100119,42010219,20401019,30901819,20901319,30000919,40510619,40901409,20611709,21900419,20510909,40611319,30411019,20501619,0,41000819,32001309,40200119,30101009,11200009,0,11301919,11001919,11111709
28,182,645.991332479753,1,0,600654.451851877,600655.498853481,7,0,1,7,19,161104895,116934166,165022675,123113075,22001019,41810309,0,21010719,41701609,30501119,-4080120,0,0,0,41710819,42001119,21910619,0,0,0,11311609,0,31410509,41800709,0,20310219,30400319,41100919,0,0,0,20800619,40500009,0,0,0,0,10510509,20200819,31101119
28,183,624.47693629656,0,0,600690.203881784,600691.250909566,8,0,0,7,3,25082179,0,40011109,31210709,0,0,0,20901119,0,0,-4181060,0,0,0,0,0,0,0,0,0,0,0,0,0,0,0,0,0,40011109,0,0,0,0,0,0,0,0,0,0,31210709
28,184,386.418471345678,0,0,600692.944994926,600693.992021553,8,0,0,2,3,54501638,30001109,0,0,0,-3001110,0,0,0,10400319,0,41100209,0,0,0,0,0,30001109,0,0,0,0,0,0,0,0,0,0,0,0,0,0,0,0,0,0,0,0,0,0
28,185,509.773526806384,1,0,600695.403758134,600696.450784376,8,0,1,4,31,230054714,161570302,197169222,230425842,11511019,41710019,41900109,-1191121,30910209,21010919,40610609,0,41210709,21600909,21711019,21811309,31701809,11411809,10411709,11411119,31510619,0,0,31800809,11810219,20512019,40411319,20111809,11110619,20800909,40611519,41110519,42000319,11511619,40200219,0,41300519,11500419,31101409,11700819
28,186,491.587516036816,0,0,600698.050747574,600699.097772276,8,1,0,14,31,218657631,190910533,187045692,158157583,30801219,31710209,11410419,30800019,10601509,10011619,20101019,31810409,41411209,31911509,11611919,40701809,41301119,-1060140,32011109,11701519,20611409,0,31000709,30901009,10811819,40310519,11510009,30901109,11200409,20410109,0,21500919,30701319,10011009,20811209,0,21311709,11811209,0,42010209
28,187,450.983217451721,1,0,600700.756563509,600701.803588597,8,1,1,3,9,2000141,62834357,103734266,82411628,0,0,-2000141,0,0,0,0,0,0,0,0,0,0,20511219,0,11111719,0,31211419,20011519,0,42001519,0,0,0,30011209,0,11710019,0,41100609,0,0,0,0,41311019,0,0
28,188,537.523544509895,0,0,600703.438846306,600704.485879092,8,1,0,22,19,93004346,134035165,137245755,154112675,30601819,0,0,0,10601009,31500809,0,20300709,0,21110609,0,0,20511619,40500719,0,30511809,0,21400409,30610819,21610319,20600019,-3121180,0,0,0,40301809,21001609,0,0,40901519,20400509,0,21600219,40400119,0,30810309
28,189,455.282862880267,1,0,600706.179959063,600707.226995314,8,1,1,12,19,84113746,48194747,116944994,197637074,20700809,21501019,0,21800409,0,20111509,0,0,0,0,0,-3191010,0,0,22000709,11801419,11201609,0,21010019,0,20711109,11111609,41501419,0,11710119,10900719,0,41910409,0,21011009,30212019,41401809,0,0,21201519,41900309
28,190,418.839238467626,1,0,600708.803430377,600709.850458929,8,1,1,9,9,24391068,21401719,52913947,94611737,0,10710919,0,0,0,11510019,0,0,-2170130,0,0,0,0,0,21401719,0,0,0,0,21201609,0,0,0,0,0,20111419,11600919,21900309,31410319,0,0,0,0,0,0,41301109
28,191,488.136712694541,1,0,600711.41512877,600712.462148852,8,0,1,23,19,93914146,124534485,56055727,185123084,21211709,0,0,0,0,30300219,31501909,0,10900309,31810719,31112009,21310619,20300819,0,0,0,20000319,0,0,0,11411909,11300219,-1121171,20211619,0,12010809,0,30100219,0,30700209,31910519,0,31500609,20210519,0,40701009
28,192,583.982352050953,1,0,600714.003292099,600715.050321805,8,0,1,8,19,88565776,113746785,93822447,146345804,0,20102019,10901809,0,11510319,31500209,10411309,-4140111,0,30311709,20511919,0,11010919,20801919,31110319,0,0,0,30810319,0,41701719,0,0,0,0,21310409,0,30210119,10710019,31601519,0,31901719,0,20211219,0,21711209
28,193,453.456216142513,0,0,600716.673819682,600717.720851313,8,1,0,5,3,1041171,0,20501619,32122018,0,0,0,0,-1041171,0,0,0,0,0,0,0,0,0,0,0,0,0,0,0,0,0,0,0,0,0,20501619,0,0,0,0,0,20111109,0,12010909,0
28,194,443.661616765894,1,0,600719.379636772,600720.426658395,8,0,1,10,0,0,0,0,0,0,0,0,0,0,0,0,0,0,-40800401,0,0,0,0,0,0,0,0,0,0,0,0,0,0,0,0,0,0,0,0,0,0,0,0,0,0
28,195,409.379941178486,1,0,600721.96781242,600723.014835582,8,1,1,10,31,209135112,189002303,206628693,220160351,41700909,11700019,30110409,31211419,0,21700509,30700109,20501519,21510219,-3130110,40311309,10212019,0,40501809,31612019,11511609,41111809,10611619,0,30811819,41601609,10101209,0,32001819,31211409,40900109,20000719,10710719,30400509,32001019,31011919,21801219,10910319,30011619,21501019,31812009
28,196,676.38642701786,0,0,600724.461859361,600725.508896767,8,0,0,32,31,207048993,157057523,236436821,249638312,21312009,21311909,40910509,31201409,0,30210819,32000519,30101819,0,21400619,0,0,41100219,30911419,12012019,30010819,11310419,10312009,11901219,40300909,40901219,20300509,10710909,20400509,30910219,40201119,20810209,30411019,20600209,40411119,40310519,-1180200,21802009,41301119,11710609,41911509
28,197,601.981271058321,0,0,600727.34414516,600728.391171787,8,1,0,16,19,104735585,147005626,144936175,75939355,21901319,0,0,0,42010119,20511019,0,10101719,10211409,30811019,0,0,41101309,31900309,0,-3081070,40111919,0,41010719,22001619,20001709,0,40510919,21411209,0,0,0,0,11412009,10102009,20911919,11601409,0,0,0,21912009
28,198,641.555025242269,1,0,600730.108779507,600731.15579959,8,0,1,13,9,63634127,75132199,72522347,21410419,0,0,0,0,40612009,0,11611809,11410309,0,0,0,0,-4021171,30010909,0,0,41100119,0,0,0,0,0,21011919,0,30210219,21300209,0,0,0,0,0,0,0,21410419,0,0
28,199,596.289216424339,1,0,600732.896953538,600733.94397593,8,0,1,25,31,256942511,174336293,126236434,268549331,30900709,20711119,30310319,31300909,40511909,11201919,41602009,30001909,20401709,30101019,10100509,10210819,31700019,0,30011309,41901509,0,20311109,20211119,0,10401709,41110119,0,30800709,-2201140,10610919,10900719,30510209,40801219,21111309,40110219,41401009,21301319,11310819,21501809,40501419
28,200,586.265949299559,1,0,600735.685117945,600736.732136487,8,0,1,1,9,32051170,82511018,82012827,82413137,-1151151,0,0,0,0,0,0,0,30900019,0,40510209,0,0,0,0,0,42000809,0,0,0,40401509,10800309,30811009,0,0,0,0,0,0,31201209,30210919,0,0,0,0,21001009
28,201,581.725702271797,0,0,600738.461521749,600739.508547606,8,0,0,11,9,10500819,13171569,75202656,72403147,10500819,0,0,0,0,0,0,0,0,0,-1170150,0,0,0,0,0,0,12001419,0,21900209,10901019,0,11301009,0,31100419,0,0,0,0,0,0,30100019,30401719,11901409,0,0
28,202,592.971225036308,0,0,600741.226151476,600742.273174639,8,1,0,6,0,0,0,0,0,0,0,0,0,0,-30301501,0,0,0,0,0,0,0,0,0,0,0,0,0,0,0,0,0,0,0,0,0,0,0,0,0,0,0,0,0,0
28,203,655.696620582603,0,0,600744.00255836,600745.049586142,8,1,0,36,9,11501609,112034537,50722618,82556728,0,0,0,0,0,11501609,0,0,0,40712009,40611309,0,0,0,0,30711219,0,0,0,0,0,40711409,0,10011209,0,0,0,10812019,30201819,0,0,0,0,0,40501709,-1041181
28,204,1075.69449557923,1,0,600746.849545798,600747.89657281,8,0,1,31,3,41710719,42011209,11711019,2131041,0,0,0,0,0,0,0,0,41710719,0,0,0,0,0,42011209,0,0,0,0,0,0,11711019,0,0,0,0,0,0,0,0,-2131041,0,0,0,0,0
28,205,658.454491524026,0,0,600750.143583962,600751.190613283,8,0,0,34,19,132735094,173103375,53502937,177145805,20601519,10511619,0,30400019,10310309,0,20600109,40311519,0,20601619,0,0,40900019,40000209,40700119,0,30901409,0,0,11300109,0,10201019,0,0,0,32001809,0,0,0,0,41802009,41410309,40410219,-2111050,40411209,11001009
28,206,579.347404185683,1,0,600753.037630748,600754.084654296,8,1,1,27,3,40501619,30601909,3151170,20010909,0,0,0,40501619,0,0,0,0,0,0,0,0,30601909,0,0,0,0,0,0,0,0,0,0,0,0,0,-3151170,0,0,0,20010909,0,0,0,0,0
28,207,535.874750348739,0,0,600755.849379494,600756.896351842,8,1,0,30,31,160226013,233557621,240658831,167888885,0,41900219,21901519,12000609,0,11001509,11500619,30711519,31210019,31310819,21900709,22010009,41400719,41911809,11900419,30600009,21711209,10811919,30910319,11001519,21110019,12010209,41801809,31400419,40911909,40501419,11011209,41411919,10711909,-2151101,40311009,0,11800419,31301419,30201109,0
28,208,583.954634726979,0,0,600758.461025147,600759.508051004,8,1,0,19,3,20110719,0,11892809,41210619,0,0,0,0,0,0,0,0,20110719,0,0,0,0,0,0,0,0,0,-1081200,0,0,10811609,0,0,0,0,0,0,0,0,0,41210619,0,0,0,0
28,209,446.618898189627,1,0,600788.013232599,600789.06027039,9,1,1,16,19,104735585,147005626,144936175,75939355,21901319,0,0,0,42010119,20511019,0,10101719,10211409,30811019,0,0,41101309,31900309,0,-3081070,40111919,0,41010719,22001619,20001709,0,40510919,21411209,0,0,0,0,11412009,10102009,20911919,11601409,0,0,0,21912009
28,210,460.781666450202,0,0,600790.672039615,600791.719029671,9,1,0,10,31,209135112,189002303,206628693,220160351,41700909,11700019,30110409,31211419,0,21700509,30700109,20501519,21510219,-3130110,40311309,10212019,0,40501809,31612019,11511609,41111809,10611619,0,30811819,41601609,10101209,0,32001819,31211409,40900109,20000719,10710719,30400509,32001019,31011919,21801219,10910319,30011619,21501019,31812009
28,211,442.262278171256,0,0,600793.283696432,600794.330727294,9,1,0,5,3,1041171,0,20501619,32122018,0,0,0,0,-1041171,0,0,0,0,0,0,0,0,0,0,0,0,0,0,0,0,0,0,0,0,0,20501619,0,0,0,0,0,20111109,0,12010909,0
28,212,587.17869524844,1,0,600795.777752997,600796.824779624,9,1,1,14,31,218657631,190910533,187045692,158157583,30801219,31710209,11410419,30800019,10601509,10011619,20101019,31810409,41411209,31911509,11611919,40701809,41301119,-1060140,32011109,11701519,20611409,0,31000709,30901009,10811819,40310519,11510009,30901109,11200409,20410109,0,21500919,30701319,10011009,20811209,0,21311709,11811209,0,42010209
28,213,482.933175400831,0,0,600798.518862289,600799.565881217,9,0,0,31,9,0,31804237,101724527,34584017,0,0,0,0,0,0,0,0,0,10101709,0,0,0,0,0,10500919,0,11201609,41401009,0,40011509,0,0,20312009,0,0,0,0,0,0,-3070070,0,10611119,0,10701519,10201309
28,214,396.54875814449,0,0,600801.142328984,600802.189351377,9,0,0,8,3,42210830,31710019,40610019,0,0,0,0,0,0,0,0,-2100111,40110719,0,0,0,31710019,0,0,0,0,0,0,0,0,40610019,0,0,0,0,0,0,0,0,0,0,0,0,0,0
28,215,586.194346193224,1,0,600803.671675441,600804.718700143,9,0,1,34,19,62422947,235554093,178335364,86254158,0,40001709,0,11910019,0,0,0,0,10511219,40210309,0,0,31712009,40300109,20100109,40710219,30810019,31711319,0,0,30710409,40301609,22000009,11401019,31911809,42010509,0,0,41511609,0,31500809,0,10211609,-3030131,0,0
28,216,461.068848380819,1,0,600806.47160584,600807.518632852,9,0,1,23,9,0,41900409,106786907,114324056,0,0,0,0,0,0,0,0,0,0,0,0,0,41900409,0,0,0,0,0,11802019,30202009,0,-3081041,40001219,21700619,0,0,0,31400809,0,0,0,0,20901009,20111219,41911019
28,217,566.239817999303,0,0,600809.071536701,600810.118568332,9,0,0,32,9,32822238,51821638,75012537,44013279,0,0,0,21911619,0,0,10910619,0,0,0,0,0,11710519,0,0,0,0,40111119,21510419,0,0,0,0,41600809,0,11901309,0,30011219,0,0,10902019,-3100041,0,0,0,0
28,218,546.76148830913,0,0,600811.800896939,600812.847912402,9,0,0,11,31,135839222,210326534,221851511,149767303,10600519,20401019,11501009,20801519,0,10411209,40401709,11111919,10610319,0,-4191031,41611509,20000119,21011619,30400309,10700619,42000509,40410819,21300419,41712009,11701209,31711809,40310609,21001119,21801119,21702009,10611209,0,10911719,0,21210209,10511219,11911919,22011109,31800709,41410419
28,219,557.86265025381,1,0,600814.447893693,600815.494912621,9,0,1,7,19,126366374,142323565,122033956,112912366,20601409,11100219,10210709,20000709,41801819,0,-2040200,0,20611309,0,0,0,0,40411309,40000309,20000119,20110719,21801109,20511119,0,0,0,0,41011619,30010609,30500609,0,0,10900919,40101219,20410209,0,0,0,41500019,0
28,220,461.87572972849,0,0,600817.15369808,600818.200730866,9,0,0,27,0,0,0,0,0,0,0,0,0,0,0,0,0,0,0,0,0,0,0,0,0,0,0,0,0,0,0,0,0,0,0,-30610691,0,0,0,0,0,0,0,0,0
28,221,579.879422206432,1,0,600819.694864424,600820.74184986,9,0,1,13,3,11202009,4180140,30000909,41510309,0,0,0,0,0,0,11202009,0,0,0,0,0,-4180140,0,0,0,0,0,0,0,0,30000909,0,0,0,0,0,0,0,41510309,0,0,0,0,0,0
28,222,605.487124063075,0,0,600822.37709833,600823.424122262,9,0,0,1,31,217217835,266766702,279678501,199028692,-1201041,30900409,31200819,41210109,40201919,41901819,0,30601719,0,20711219,40900909,40510519,11011409,40510209,41911519,41010209,30200709,0,20010509,41001919,11410309,31110209,40112009,31211319,41701209,41410209,21710809,20301309,21301109,31610709,11301819,0,30701119,31910809,11201409,40700409
28,223,612.16737725772,1,0,600825.094677948,600826.14170419,9,1,1,6,0,0,0,0,0,0,0,0,0,0,-30301501,0,0,0,0,0,0,0,0,0,0,0,0,0,0,0,0,0,0,0,0,0,0,0,0,0,0,0,0,0,0
28,224,468.677631113678,1,0,600827.929905938,600828.97692987,9,0,1,25,19,113523647,139346083,94971358,166644784,0,41811519,0,40001019,0,0,0,31711109,0,31211209,11900019,21610109,0,11101819,40111109,11811409,0,11600409,40810419,0,0,0,40210209,11900709,-2050021,0,0,21310309,21001119,11410119,0,40610909,0,41110809,31201519,0
28,225,522.815284435637,0,0,600830.482793233,600831.529813701,9,1,0,9,9,24391068,21401719,52913947,94611737,0,10710919,0,0,0,11510019,0,0,-2170130,0,0,0,0,0,21401719,0,0,0,0,21201609,0,0,0,0,0,20111419,11600919,21900309,31410319,0,0,0,0,0,0,41301109
28,226,560.880755772814,1,0,600833.176878593,600834.223857485,9,1,1,3,9,2000141,62834357,103734266,82411628,0,0,-2000141,0,0,0,0,0,0,0,0,0,0,20511219,0,11111719,0,31211419,20011519,0,42001519,0,0,0,30011209,0,11710019,0,41100609,0,0,0,0,41311019,0,0
28,227,669.691930175759,1,0,600835.976769726,600837.023815986,9,0,1,2,3,4190161,0,23313518,41300319,0,-4190161,0,0,0,0,0,0,0,0,0,0,0,0,0,0,0,0,0,0,0,0,11501709,0,11811809,0,0,0,0,0,0,0,0,0,0,41300319
28,228,508.675613906235,0,0,600838.870864633,600839.917838135,9,1,0,27,3,40501619,30601909,3151170,20010909,0,0,0,40501619,0,0,0,0,0,0,0,0,30601909,0,0,0,0,0,0,0,0,0,0,0,0,0,-3151170,0,0,0,20010909,0,0,0,0,0
28,229,590.823519625701,1,0,600841.517814422,600842.564844898,9,1,1,22,19,93004346,134035165,137245755,154112675,30601819,0,0,0,10601009,31500809,0,20300709,0,21110609,0,0,20511619,40500719,0,30511809,0,21400409,30610819,21610319,20600019,-3121180,0,0,0,40301809,21001609,0,0,40901519,20400509,0,21600219,40400119,0,30810309
28,230,509.84705472365,0,0,600844.317742126,600845.364768368,9,1,0,36,9,11501609,112034537,50722618,82556728,0,0,0,0,0,11501609,0,0,0,40712009,40611309,0,0,0,0,30711219,0,0,0,0,0,40711409,0,10011209,0,0,0,10812019,30201819,0,0,0,0,0,40501709,-1041181
28,231,529.328464064747,0,0,600846.941203431,600847.988231598,9,1,0,12,19,84113746,48194747,116944994,197637074,20700809,21501019,0,21800409,0,20111509,0,0,0,0,0,-3191010,0,0,22000709,11801419,11201609,0,21010019,0,20711109,11111609,41501419,0,11710119,10900719,0,41910409,0,21011009,30212019,41401809,0,0,21201519,41900309
28,232,646.338183665648,1,0,600849.682307719,600850.729335886,9,1,1,30,31,160226013,233557621,240658831,167888885,0,41900219,21901519,12000609,0,11001509,11500619,30711519,31210019,31310819,21900709,22010009,41400719,41911809,11900419,30600009,21711209,10811919,30910319,11001519,21110019,12010209,41801809,31400419,40911909,40501419,11011209,41411919,10711909,-2151101,40311009,0,11800419,31301419,30201109,0
28,233,572.790338890627,0,0,600852.505782036,600853.552791339,9,1,0,19,3,20110719,0,11892809,41210619,0,0,0,0,0,0,0,0,20110719,0,0,0,0,0,0,0,0,0,-1081200,0,0,10811609,0,0,0,0,0,0,0,0,0,41210619,0,0,0,0
28,234,551.633957889862,1,0,600855.152757232,600856.199784629,9,0,1,4,31,161356304,171556251,178130432,156437003,0,21302019,40211909,-3100101,10711219,11900019,20710109,31710019,21710909,21710819,21600219,21400919,21611719,11910509,10500019,21110119,11610519,30101409,11701419,10801509,30811809,0,40601919,20300419,10611719,31501519,21800119,32011509,0,10101919,0,41410309,10100119,30000219,11601519,21211409
28,235,613.492032978684,1,0,600885.316721975,600886.363753222,10,1,1,19,3,20110719,0,11892809,41210619,0,0,0,0,0,0,0,0,20110719,0,0,0,0,0,0,0,0,0,-1081200,0,0,10811609,0,0,0,0,0,0,0,0,0,41210619,0,0,0,0
28,236,410.128308227286,0,0,600888.081366717,600889.128386029,10,1,0,3,9,2000141,62834357,103734266,82411628,0,0,-2000141,0,0,0,0,0,0,0,0,0,0,20511219,0,11111719,0,31211419,20011519,0,42001519,0,0,0,30011209,0,11710019,0,41100609,0,0,0,0,41311019,0,0
28,237,451.081767794676,0,0,600890.693066264,600891.740090966,10,1,0,9,9,24391068,21401719,52913947,94611737,0,10710919,0,0,0,11510019,0,0,-2170130,0,0,0,0,0,21401719,0,0,0,0,21201609,0,0,0,0,0,20111419,11600919,21900309,31410319,0,0,0,0,0,0,41301109
28,238,522.456499515101,0,0,600893.257703768,600894.3047277,10,0,0,32,31,206226093,116941392,280482321,212068494,41210309,20701019,40200009,31501909,0,10100619,41000619,21511609,0,10202019,21511309,10512019,0,11202009,21511809,21201309,10800209,10000709,30701819,21110819,41311419,40800419,11511409,21511709,41111409,31811609,40611709,30810109,40201109,0,31811919,-4010101,10200519,31411209,41811719,21811809
28,239,522.543116007,0,0,600895.998809981,600897.045838918,10,0,0,25,9,20501909,83411847,25991429,112922927,0,0,0,20501909,0,0,0,0,0,0,30600219,0,0,12010709,0,0,0,40800919,12000219,0,0,0,0,10800019,-3191191,0,0,30800809,0,0,40111709,0,0,42010409,0,0
28,240,451.847458025441,0,0,600898.610516458,600899.65753731,10,1,0,27,3,40501619,30601909,3151170,20010909,0,0,0,40501619,0,0,0,0,0,0,0,0,30601909,0,0,0,0,0,0,0,0,0,0,0,0,0,-3151170,0,0,0,20010909,0,0,0,0,0
28,241,460.127230267972,0,0,600901.128099617,600902.175120085,10,0,0,2,19,141077305,83112638,133145585,196714584,31211319,-4040111,0,21810919,0,10901719,40800609,20901019,11411609,0,0,41911919,0,0,0,0,41200719,0,0,41810419,0,0,0,20510719,10411809,30211719,30200919,20410719,40301319,11800009,41100219,0,41701809,41400509,0,0
28,242,486.233843374066,1,0,600903.775091752,600904.822122998,10,1,1,16,19,104735585,147005626,144936175,75939355,21901319,0,0,0,42010119,20511019,0,10101719,10211409,30811019,0,0,41101309,31900309,0,-3081070,40111919,0,41010719,22001619,20001709,0,40510919,21411209,0,0,0,0,11412009,10102009,20911919,11601409,0,0,0,21912009
28,243,494.494367390871,1,0,600906.492677914,600907.539697227,10,0,1,4,3,4121111,0,83822247,0,0,0,0,-4121111,0,0,0,0,0,0,0,0,0,0,0,0,0,0,0,0,0,0,30110319,11811219,41900709,0,0,0,0,0,0,0,0,0,0,0
28,244,442.306163953617,1,0,600909.174960326,600910.221989262,10,0,1,23,19,124844665,216457474,117926146,94711036,0,0,0,10311319,11611619,21400109,40010709,41510909,0,11411019,42011209,0,41011209,0,41902009,40011709,0,40110319,0,30610619,41801219,10112019,-4201180,0,0,0,31201109,0,11910109,40400709,21700009,0,20700209,0,0,0
28,245,500.500166439451,0,0,600911.692550029,600912.739575117,10,1,0,6,0,0,0,0,0,0,0,0,0,0,-30301501,0,0,0,0,0,0,0,0,0,0,0,0,0,0,0,0,0,0,0,0,0,0,0,0,0,0,0,0,0,0
28,246,705.960011924617,0,0,600914.304294233,600915.351269275,10,0,0,31,31,167341832,169256892,197308103,162556453,11811419,40801719,41311819,11101519,20301519,21401809,10311819,0,10300209,12011609,10011009,21910019,41701109,11000809,40710509,11110319,20801509,0,21601619,20700009,21600609,40801709,30901019,20901219,40801919,0,0,21401219,30501909,20910719,-4020151,20100219,12010009,20300409,21910109,11401709
28,247,463.140331325121,0,0,600917.068912412,600918.115907857,10,0,0,34,3,62832537,0,0,1200090,0,0,32010009,0,10510909,0,20311619,0,0,0,0,0,0,0,0,0,0,0,0,0,0,0,0,0,0,0,0,0,0,0,0,0,0,-1200090,0,0
28,248,598.805715795606,1,0,600919.739411893,600920.786437365,10,1,1,14,31,218657631,190910533,187045692,158157583,30801219,31710209,11410419,30800019,10601509,10011619,20101019,31810409,41411209,31911509,11611919,40701809,41301119,-1060140,32011109,11701519,20611409,0,31000709,30901009,10811819,40310519,11510009,30901109,11200409,20410109,0,21500919,30701319,10011009,20811209,0,21311709,11811209,0,42010209
28,249,489.79359108489,0,0,600922.445226673,600923.49225484,10,1,0,22,19,93004346,134035165,137245755,154112675,30601819,0,0,0,10601009,31500809,0,20300709,0,21110609,0,0,20511619,40500719,0,30511809,0,21400409,30610819,21610319,20600019,-3121180,0,0,0,40301809,21001609,0,0,40901519,20400509,0,21600219,40400119,0,30810309
28,250,494.586373446509,0,0,600925.021632094,600926.068679124,10,1,0,5,3,1041171,0,20501619,32122018,0,0,0,0,-1041171,0,0,0,0,0,0,0,0,0,0,0,0,0,0,0,0,0,0,0,0,0,20501619,0,0,0,0,0,20111109,0,12010909,0
28,251,1437.66813643742,1,0,600927.633327407,600928.680352494,10,0,1,1,9,63241509,30901719,103134766,30412118,-2031081,0,0,20400009,40810419,0,0,0,0,0,30901719,0,0,0,0,0,0,0,0,0,0,31101819,0,21311119,20211409,30510419,0,0,0,0,20001409,0,0,0,10410709,0
28,252,633.742212434299,1,0,600931.18618968,600932.233211688,10,0,1,7,3,4030191,43010728,0,22011009,0,0,0,0,0,0,-4030191,0,0,0,0,31010209,0,0,0,12000519,0,0,0,0,0,0,0,0,0,0,0,0,22011009,0,0,0,0,0,0,0
28,253,778.386845835485,1,0,600933.915532595,600934.962552678,10,1,1,30,31,160226013,233557621,240658831,167888885,0,41900219,21901519,12000609,0,11001509,11500619,30711519,31210019,31310819,21900709,22010009,41400719,41911809,11900419,30600009,21711209,10811919,30910319,11001519,21110019,12010209,41801809,31400419,40911909,40501419,11011209,41411919,10711909,-2151101,40311009,0,11800419,31301419,30201109,0
28,254,674.361139652319,1,0,600936.762613964,600937.809543196,10,1,1,36,9,11501609,112034537,50722618,82556728,0,0,0,0,0,11501609,0,0,0,40712009,40611309,0,0,0,0,30711219,0,0,0,0,0,40711409,0,10011209,0,0,0,10812019,30201819,0,0,0,0,0,40501709,-1041181
28,255,532.054383074865,0,0,600939.527153611,600940.574183317,10,0,0,5,0,0,0,0,0,0,0,0,0,-30501101,0,0,0,0,0,0,0,0,0,0,0,0,0,0,0,0,0,0,0,0,0,0,0,0,0,0,0,0,0,0,0
28,256,601.306431926787,1,0,600942.24472245,600943.29176178,10,0,1,8,9,72993439,62312318,20211809,65133856,0,0,0,30700809,40201519,0,0,-2091111,0,0,0,20900509,41411809,0,0,0,0,0,0,0,0,0,0,0,0,0,20211809,0,30210619,0,0,0,0,11400209,11511209,12011819
28,257,488.634854089469,1,0,600944.915253113,600945.962287439,10,1,1,10,31,209135112,189002303,206628693,220160351,41700909,11700019,30110409,31211419,0,21700509,30700109,20501519,21510219,-3130110,40311309,10212019,0,40501809,31612019,11511609,41111809,10611619,0,30811819,41601609,10101209,0,32001819,31211409,40900109,20000719,10710719,30400509,32001019,31011919,21801219,10910319,30011619,21501019,31812009
28,258,534.640560857952,0,0,600947.515210536,600948.562216375,10,0,0,13,31,216938822,180145744,147027693,270458931,10700519,40312009,40101309,31300519,10800809,11212019,0,31810419,40701219,41700009,30701419,10800009,-2100151,20710519,41810009,21611619,10712009,0,10501409,0,31011719,20500509,30601219,22001619,20500209,0,11911009,31101919,41210609,40611619,30411509,11701709,30710719,40900219,21810109,22000519
28,259,694.682152126916,1,0,600950.115241102,600951.1621507,10,1,1,12,19,84113746,48194747,116944994,197637074,20700809,21501019,0,21800409,0,20111509,0,0,0,0,0,-3191010,0,0,22000709,11801419,11201609,0,21010019,0,20711109,11111609,41501419,0,11710119,10900719,0,41910409,0,21011009,30212019,41401809,0,0,21201519,41900309
28,260,458.496529376134,1,0,600953.044471916,600954.091490844,10,0,1,11,19,134335574,130566174,43114447,122014666,31010819,0,0,20510109,0,11800509,20102009,10310209,40601919,11812009,-4000190,10311009,20910919,11310119,40211209,0,0,32010719,0,0,21011419,0,11301109,10801919,0,0,0,0,40201719,0,30001509,10001019,0,0,0,41810419
28,261,456.613678019494,0,0,600985.326019973,600986.37305276,11,1,0,27,3,40501619,30601909,3151170,20010909,0,0,0,40501619,0,0,0,0,0,0,0,0,30601909,0,0,0,0,0,0,0,0,0,0,0,0,0,-3151170,0,0,0,20010909,0,0,0,0,0
28,262,382.549213827588,0,0,600987.96125343,600989.008284291,11,0,0,8,3,14091250,0,30101409,20400019,0,0,0,0,0,11900209,0,-2191041,0,0,0,0,0,0,0,0,0,0,0,0,0,30101409,0,0,0,0,0,0,20400019,0,0,0,0,0,0,0
28,263,518.428637413308,0,0,600990.455311919,600991.502333542,11,1,0,10,31,209135112,189002303,206628693,220160351,41700909,11700019,30110409,31211419,0,21700509,30700109,20501519,21510219,-3130110,40311309,10212019,0,40501809,31612019,11511609,41111809,10611619,0,30811819,41601609,10101209,0,32001819,31211409,40900109,20000719,10710719,30400509,32001019,31011919,21801219,10910319,30011619,21501019,31812009
28,264,533.667375799268,0,0,600993.125842197,600994.17291887,11,0,0,23,9,41810219,113112447,92933518,83021238,0,0,0,0,0,0,41810219,0,0,40200409,0,0,0,0,31200019,0,0,41712019,0,20100209,0,0,-1020181,30211909,0,0,41601219,0,0,0,0,0,0,0,41610519,41410719
28,265,455.588523182087,0,0,600995.914003909,600996.961025147,11,1,0,6,0,0,0,0,0,0,0,0,0,0,-30301501,0,0,0,0,0,0,0,0,0,0,0,0,0,0,0,0,0,0,0,0,0,0,0,0,0,0,0,0,0,0
28,266,482.338793459348,0,1,600998.53746483,600999.584491457,11,1,1,19,3,20110719,0,11892809,41210619,0,0,0,0,0,0,0,0,20110719,0,0,0,0,0,0,0,0,0,-1081200,0,0,10811609,0,0,0,0,0,0,0,0,0,41210619,0,0,0,0
28,267,632.644299534149,1,0,601001.160953082,601002.207960076,11,0,1,31,31,165536493,269742421,189031322,249549803,10011309,41511519,10700919,0,0,30201819,11710709,20600109,40800109,20501809,31500509,40700809,41101219,22012019,10201619,31511309,41111619,31101509,11000209,30102019,31411819,0,31800919,41501819,10000809,11412009,21801719,41411219,0,40611219,-3110090,40611909,40601519,41901509,11001419,30300919
28,268,515.743524418212,1,0,601004.019683799,601005.066736989,11,0,1,7,31,208356572,249569121,156558202,144557784,21410019,40200019,20111909,10010019,20110309,41810819,-1180160,42011509,11511809,31911019,41011209,21910209,20110709,31001719,30510609,30111719,31901909,11100019,11611919,10710809,41310709,20501019,20011009,20201209,21701119,0,10510409,20901619,20910109,0,40210909,0,30411519,20311809,0,11811819
28,269,723.516993923113,1,0,601006.643150879,601007.690170577,11,1,1,3,9,2000141,62834357,103734266,82411628,0,0,-2000141,0,0,0,0,0,0,0,0,0,0,20511219,0,11111719,0,31211419,20011519,0,42001519,0,0,0,30011209,0,11710019,0,41100609,0,0,0,0,41311019,0,0
28,270,617.587648448534,0,0,601009.454847655,601010.501870432,11,1,0,12,19,84113746,48194747,116944994,197637074,20700809,21501019,0,21800409,0,20111509,0,0,0,0,0,-3191010,0,0,22000709,11801419,11201609,0,21010019,0,20711109,11111609,41501419,0,11710119,10900719,0,41910409,0,21011009,30212019,41401809,0,0,21201519,41900309
28,271,681.819787016138,1,0,601012.160694772,601013.207674049,11,1,1,30,31,160226013,233557621,240658831,167888885,0,41900219,21901519,12000609,0,11001509,11500619,30711519,31210019,31310819,21900709,22010009,41400719,41911809,11900419,30600009,21711209,10811919,30910319,11001519,21110019,12010209,41801809,31400419,40911909,40501419,11011209,41411919,10711909,-2151101,40311009,0,11800419,31301419,30201109,0
28,272,593.952494324185,0,0,601014.913536565,601015.960557033,11,0,0,11,19,133426585,105379016,137438084,112225227,0,12000019,0,0,40501809,20111519,0,30811619,30001619,30111819,-2051131,20001519,0,11101119,31611609,0,0,10501819,0,21901809,0,11110619,10400119,41602019,31312009,21111509,0,0,0,0,31411609,40501709,0,0,40311909,0
28,273,608.325837063603,1,0,601017.58404875,601018.631079227,11,0,1,25,9,92234056,21010519,73511399,51311938,20111019,30810219,0,0,0,20900809,0,0,20412009,0,0,0,0,0,21010519,0,0,0,30910109,0,0,0,0,0,-2001181,0,40600109,0,0,0,0,0,10111819,0,0,41200119
28,274,609.485728899017,0,0,601020.325161507,601021.372191214,11,0,0,34,3,0,20410909,81411838,2161110,0,0,0,0,0,0,0,0,0,0,0,0,0,0,0,0,20410909,0,41410319,0,0,0,0,0,0,0,40001519,0,0,0,0,0,0,-2161110,0,0
28,275,558.62064124085,1,0,601023.030973208,601024.078009459,11,1,1,5,3,1041171,0,20501619,32122018,0,0,0,0,-1041171,0,0,0,0,0,0,0,0,0,0,0,0,0,0,0,0,0,0,0,0,0,20501619,0,0,0,0,0,20111109,0,12010909,0
28,276,566.671745851636,0,0,601025.736796073,601026.78382116,11,0,0,4,3,66423469,11012019,0,0,31510609,0,0,-3111151,0,0,0,0,31801709,0,0,0,0,0,0,11012019,0,0,0,0,0,0,0,0,0,0,0,0,0,0,0,0,0,0,0,0
28,277,452.517677680589,0,0,601028.47790883,601029.524931992,11,1,0,22,19,93004346,134035165,137245755,154112675,30601819,0,0,0,10601009,31500809,0,20300709,0,21110609,0,0,20511619,40500719,0,30511809,0,21400409,30610819,21610319,20600019,-3121180,0,0,0,40301809,21001609,0,0,40901519,20400509,0,21600219,40400119,0,30810309
28,278,590.468584210612,1,0,601031.12489288,601032.171920277,11,1,1,14,31,218657631,190910533,187045692,158157583,30801219,31710209,11410419,30800019,10601509,10011619,20101019,31810409,41411209,31911509,11611919,40701809,41301119,-1060140,32011109,11701519,20611409,0,31000709,30901009,10811819,40310519,11510009,30901109,11200409,20410109,0,21500919,30701319,10011009,20811209,0,21311709,11811209,0,42010209
28,279,708.890730864368,1,0,601033.795413919,601034.842437851,11,0,1,2,31,137213694,260161331,225435793,240641511,10811909,-3080030,30100109,10710109,0,31500409,0,20010209,31000919,22001719,11810819,20810419,41511519,10701009,40301909,40311009,31011919,41701009,21600209,40311019,41500619,0,31101209,0,40010409,30800519,20111809,41501919,30501009,21701119,21410109,10611819,41710009,20702009,20701809,31801709
28,280,617.209230316803,1,0,601036.607116084,601037.654140787,11,0,1,32,19,106037475,155924285,145645484,76024687,0,0,20111909,20700119,11311419,41912019,12002009,0,0,31801519,0,42010819,20910719,40200109,0,21001119,0,0,0,30910319,0,21400209,21900219,30111309,11012009,0,30311419,21611009,0,31800919,0,-1011050,21601709,0,0,0
28,281,581.999025540426,0,0,601039.383522583,601040.43055075,11,1,0,16,19,104735585,147005626,144936175,75939355,21901319,0,0,0,42010119,20511019,0,10101719,10211409,30811019,0,0,41101309,31900309,0,-3081070,40111919,0,41010719,22001619,20001709,0,40510919,21411209,0,0,0,0,11412009,10102009,20911919,11601409,0,0,0,21912009
28,282,642.236023792066,1,0,601042.054037463,601043.10106563,11,0,1,1,9,11741139,72723237,71402228,91023157,-1041130,0,0,0,0,0,0,10700009,0,0,0,40612009,0,11910019,0,0,20201209,0,31000609,0,0,0,0,0,0,40401619,0,0,0,40100519,0,0,0,20910719,30011919,0
28,283,455.531163606793,1,0,601044.806911207,601045.853944379,11,0,1,25,0,0,0,0,0,0,0,0,0,0,0,0,0,0,0,0,0,0,0,0,0,0,0,0,0,0,0,0,0,-11911101,0,0,0,0,0,0,0,0,0,0,0
28,284,570.642248494551,0,0,601047.371559875,601048.418579958,11,0,0,13,19,114535076,196694735,102523837,178827783,21411419,0,40711319,41011219,0,0,0,0,11401119,0,41311309,0,-1050070,40610319,0,41210809,41400209,31112019,0,41201419,0,30010509,31311909,0,0,0,0,30610709,21301619,31101719,41311409,21901609,0,10700609,0,21900109
28,285,522.871104069054,1,0,601050.030309148,601051.07733616,11,1,1,9,9,24391068,21401719,52913947,94611737,0,10710919,0,0,0,11510019,0,0,-2170130,0,0,0,0,0,21401719,0,0,0,0,21201609,0,0,0,0,0,20111419,11600919,21900309,31410319,0,0,0,0,0,0,41301109
28,286,593.990990542807,0,0,601052.724364096,601053.771437303,11,1,0,36,9,11501609,112034537,50722618,82556728,0,0,0,0,0,11501609,0,0,0,40712009,40611309,0,0,0,0,30711219,0,0,0,0,0,40711409,0,10011209,0,0,0,10812019,30201819,0,0,0,0,0,40501709,-1041181
28,287,573.705009766854,0,0,601084.229466773,601085.276492245,12,1,0,6,0,0,0,0,0,0,0,0,0,0,-30301501,0,0,0,0,0,0,0,0,0,0,0,0,0,0,0,0,0,0,0,0,0,0,0,0,0,0,0,0,0,0
28,288,501.858699019067,0,0,601087.041228607,601088.088190176,12,0,0,11,31,177644613,170629083,199472911,195779182,21701309,32010409,30310119,30310619,10011719,11300319,42000119,0,0,20700919,-3091080,10111109,41900919,0,40211009,21510819,21101319,12001909,30910009,21601909,11011519,30411909,12011709,21412009,30011719,30300109,11802019,31011709,20011109,31611309,11201509,41510009,40210309,10212009,0,10011219
28,289,393.500625505112,0,0,601089.61756974,601090.664594827,12,1,0,3,9,2000141,62834357,103734266,82411628,0,0,-2000141,0,0,0,0,0,0,0,0,0,0,20511219,0,11111719,0,31211419,20011519,0,42001519,0,0,0,30011209,0,11710019,0,41100609,0,0,0,0,41311019,0,0
28,290,543.717590277083,0,0,601092.076339877,601093.123358805,12,0,0,4,19,109214697,176167493,31222728,166256874,11901419,0,0,-4110141,41101409,0,0,12000819,40100909,0,0,41010009,20410419,41011419,11400209,41411719,10611909,10311809,0,0,20012019,11210709,0,0,0,0,0,31510119,0,11510609,40401819,20911809,0,41110909,20811609,0
28,291,517.446983139962,0,0,601094.864499279,601095.911527061,12,1,0,27,3,40501619,30601909,3151170,20010909,0,0,0,40501619,0,0,0,0,0,0,0,0,30601909,0,0,0,0,0,0,0,0,0,0,0,0,0,-3151170,0,0,0,20010909,0,0,0,0,0
28,292,641.668974189088,1,0,601097.511496803,601098.558518811,12,1,1,14,31,218657631,190910533,187045692,158157583,30801219,31710209,11410419,30800019,10601509,10011619,20101019,31810409,41411209,31911509,11611919,40701809,41301119,-1060140,32011109,11701519,20611409,0,31000709,30901009,10811819,40310519,11510009,30901109,11200409,20410109,0,21500919,30701319,10011009,20811209,0,21311709,11811209,0,42010209
28,293,481.92457377445,1,0,601100.323196659,601101.370274486,12,1,1,16,19,104735585,147005626,144936175,75939355,21901319,0,0,0,42010119,20511019,0,10101719,10211409,30811019,0,0,41101309,31900309,0,-3081070,40111919,0,41010719,22001619,20001709,0,40510919,21411209,0,0,0,0,11412009,10102009,20911919,11601409,0,0,0,21912009
28,294,611.787804402411,1,0,601103.064297482,601104.111324879,12,1,1,10,31,209135112,189002303,206628693,220160351,41700909,11700019,30110409,31211419,0,21700509,30700109,20501519,21510219,-3130110,40311309,10212019,0,40501809,31612019,11511609,41111809,10611619,0,30811819,41601609,10101209,0,32001819,31211409,40900109,20000719,10710719,30400509,32001019,31011919,21801219,10910319,30011619,21501019,31812009
28,295,561.342325760052,1,0,601105.793646557,601106.840669334,12,0,1,7,3,25511620,0,10611209,11111509,0,0,21411419,0,0,0,-4100201,0,0,0,0,0,0,0,0,0,0,0,0,0,0,0,0,0,0,10611209,0,0,0,0,11111509,0,0,0,0,0
28,296,645.714544458315,0,0,601108.605342177,601109.65236457,12,0,0,25,9,40200409,94213047,74532839,72933837,40200409,0,0,0,0,0,0,0,0,0,0,42000209,0,0,0,11501919,40710919,0,0,31110919,0,0,0,0,-2011111,0,41410809,0,10511419,0,0,20511009,0,0,41911409,0
28,297,591.945300111547,1,0,601111.475861215,601112.522883607,12,0,1,2,9,115965378,43112638,52912328,70512118,40311109,-4041031,0,40901419,0,0,0,30711819,0,0,0,0,11711919,0,31400719,0,0,0,41201119,0,0,0,11711209,0,0,0,0,0,40211009,0,0,0,0,0,30301109,0
28,298,673.075365135446,1,0,601114.134615107,601115.181777625,12,1,1,36,9,11501609,112034537,50722618,82556728,0,0,0,0,0,11501609,0,0,0,40712009,40611309,0,0,0,0,30711219,0,0,0,0,0,40711409,0,10011209,0,0,0,10812019,30201819,0,0,0,0,0,40501709,-1041181
28,299,462.048577959649,1,0,601117.06395448,601118.111046551,12,1,1,9,9,24391068,21401719,52913947,94611737,0,10710919,0,0,0,11510019,0,0,-2170130,0,0,0,0,0,21401719,0,0,0,0,21201609,0,0,0,0,0,20111419,11600919,21900309,31410319,0,0,0,0,0,0,41301109
28,300,575.306453392841,0,0,601119.781531403,601120.828562265,12,1,0,19,3,20110719,0,11892809,41210619,0,0,0,0,0,0,0,0,20110719,0,0,0,0,0,0,0,0,0,-1081200,0,0,10811609,0,0,0,0,0,0,0,0,0,41210619,0,0,0,0
28,301,512.499830801971,0,0,601122.428528157,601123.47555209,12,1,0,22,19,93004346,134035165,137245755,154112675,30601819,0,0,0,10601009,31500809,0,20300709,0,21110609,0,0,20511619,40500719,0,30511809,0,21400409,30610819,21610319,20600019,-3121180,0,0,0,40301809,21001609,0,0,40901519,20400509,0,21600219,40400119,0,30810309
28,302,596.292680944316,1,0,601125.028460943,601126.075485645,12,0,1,34,19,167126104,65423356,135415065,108614917,0,41310119,11601719,21800619,0,0,10510519,41801219,40101909,11011919,11810209,0,0,0,20800919,0,21800309,0,20900819,0,41600109,0,0,31702019,10610309,30601809,0,0,0,21111809,31311219,31810009,0,-4171171,20210709,0
28,303,524.151489022188,0,0,601127.863685853,601128.91071556,12,0,0,8,31,127346785,218339422,221549331,225439092,31701309,0,10901209,10210919,0,30011319,11811709,-1010011,31700309,41501919,40811009,30902019,0,41301619,11001409,30410009,11400419,11011019,21600519,41400819,11311509,12011419,10401219,41111309,31300909,30401509,22010119,20901409,10410419,0,11211319,40301209,21212009,40201009,40401009,40800709
28,304,566.149351769127,1,0,601130.616556903,601131.66358584,12,1,1,12,19,84113746,48194747,116944994,197637074,20700809,21501019,0,21800409,0,20111509,0,0,0,0,0,-3191010,0,0,22000709,11801419,11201609,0,21010019,0,20711109,11111609,41501419,0,11710119,10900719,0,41910409,0,21011009,30212019,41401809,0,0,21201519,41900309
28,305,629.924539942294,0,0,601133.298846244,601134.345876336,12,0,0,31,19,166535494,103514146,62712227,137328965,40800509,0,0,20811919,0,20801619,21000619,21410819,41710009,0,11800309,0,40201809,10710819,0,0,40801209,0,0,0,0,21400609,21201009,0,0,20110609,0,0,30000819,20811909,-2101171,31602019,10401509,30911219,11500319,0
28,306,511.468901415356,0,0,601136.063488291,601137.110511453,12,0,0,32,31,217738022,188848401,265127531,177565466,31800109,30711819,41001919,21000619,0,40810309,10411619,20100209,21901419,40211509,41200309,20801109,10401609,11401009,21510109,11800119,21310609,10212019,20701319,40110709,41101119,40100719,30300809,31501709,40500419,10400609,10410119,41501419,0,31800719,20900909,-1051201,40310909,42000309,0,0
28,307,467.940428061411,1,0,601138.698714048,601139.745736826,12,1,1,5,3,1041171,0,20501619,32122018,0,0,0,0,-1041171,0,0,0,0,0,0,0,0,0,0,0,0,0,0,0,0,0,0,0,0,0,20501619,0,0,0,0,0,20111109,0,12010909,0
28,308,498.247751267627,1,0,601141.357474869,601142.404498802,12,0,1,13,9,0,31461530,101511437,104443075,0,0,0,0,0,0,0,0,0,0,0,0,-1050021,30411509,0,0,0,0,0,0,0,0,0,0,30400609,40900819,30210009,10710919,0,0,21410109,0,0,21100219,10510919,40710909
28,309,518.355109612457,0,0,601144.063283876,601145.110313967,12,0,0,23,3,30410209,0,33012140,30901019,0,0,0,30410209,0,0,0,0,0,0,0,0,0,0,0,0,0,0,30902009,0,0,0,-2110131,0,0,0,0,0,0,0,0,0,30901019,0,0,0
28,310,585.300078499131,1,0,601146.745567827,601147.792598304,12,1,1,30,31,160226013,233557621,240658831,167888885,0,41900219,21901519,12000609,0,11001509,11500619,30711519,31210019,31310819,21900709,22010009,41400719,41911809,11900419,30600009,21711209,10811919,30910319,11001519,21110019,12010209,41801809,31400419,40911909,40501419,11011209,41411919,10711909,-2151101,40311009,0,11800419,31301419,30201109,0
28,311,466.95607912261,1,0,601149.533738778,601150.580760786,12,0,1,33,0,0,0,0,0,0,0,0,0,0,0,0,0,0,0,0,0,0,0,0,0,0,0,0,0,0,0,0,0,0,0,0,0,0,0,0,0,-10611101,0,0,0
28,312,479.077391559258,0,0,601152.239553944,601153.286575181,12,0,0,1,3,2011131,10500709,52712838,0,-2011131,0,0,0,0,0,0,0,0,0,0,10500709,0,0,0,0,0,0,32001419,0,0,0,0,0,0,0,20711419,0,0,0,0,0,0,0,0,0
28,313,516.283241682686,0,0,601175.227216667,601176.274245604,13,0,0,13,3,20810909,15501909,21100609,0,0,0,0,0,0,0,20810909,0,0,0,0,0,-4090200,0,0,0,0,11411709,0,0,0,0,21100609,0,0,0,0,0,0,0,0,0,0,0,0,0
28,314,458.896120428108,1,0,601178.0036863,601179.050687135,13,1,1,27,3,40501619,30601909,3151170,20010909,0,0,0,40501619,0,0,0,0,0,0,0,0,30601909,0,0,0,0,0,0,0,0,0,0,0,0,0,-3151170,0,0,0,20010909,0,0,0,0,0
28,315,584.295326494612,0,0,601180.52120979,601181.568235648,13,0,0,11,19,145246194,126486087,185045994,62913147,31010409,0,21810119,30611209,30201719,10111319,0,0,21501419,41611019,-4151031,40110609,0,0,0,10511719,30101709,0,31111119,0,40201009,20810619,0,20201719,31210309,0,41511219,0,0,0,10001309,0,0,0,41300719,11611119
28,316,524.553774856031,0,0,601183.332909261,601184.379943587,13,0,0,31,31,189359392,205937522,204248411,156958184,30301509,22010519,20701409,21510209,21001309,0,20912009,41410409,11512019,30301109,40311219,20511219,10400619,20701519,41800009,0,20900709,21011119,10700609,10610309,40400819,10210109,40301219,30301609,30711109,20101919,10910709,41301419,20900409,41112009,-2031010,20600809,10702009,0,20310519,0
28,317,511.224450194277,1,0,601185.956374416,601187.003399503,13,1,1,36,9,11501609,112034537,50722618,82556728,0,0,0,0,0,11501609,0,0,0,40712009,40611309,0,0,0,0,30711219,0,0,0,0,0,40711409,0,10011209,0,0,0,10812019,30201819,0,0,0,0,0,40501709,-1041181
28,318,492.608051514253,1,0,601188.579837646,601189.626861578,13,1,1,14,31,218657631,190910533,187045692,158157583,30801219,31710209,11410419,30800019,10601509,10011619,20101019,31810409,41411209,31911509,11611919,40701809,41301119,-1060140,32011109,11701519,20611409,0,31000709,30901009,10811819,40310519,11510009,30901109,11200409,20410109,0,21500919,30701319,10011009,20811209,0,21311709,11811209,0,42010209
28,319,406.393787590787,1,0,601191.320943858,601192.367968561,13,1,1,9,9,24391068,21401719,52913947,94611737,0,10710919,0,0,0,11510019,0,0,-2170130,0,0,0,0,0,21401719,0,0,0,0,21201609,0,0,0,0,0,20111419,11600919,21900309,31410319,0,0,0,0,0,0,41301109
28,320,623.158055008389,0,0,601193.803231351,601194.850265678,13,0,0,1,31,269908022,216237402,166109583,159848822,-2161200,21310719,40200419,31210919,10700419,40301609,41611219,41600209,40811309,20111019,41900219,40010809,31401109,0,11701419,20011709,30500009,20601109,0,0,20301609,20401909,20100309,41501819,42001019,10501609,11301309,11210509,21302019,0,10401419,22001019,11010909,31900109,11012019,41010819
28,321,464.777576620691,0,0,601196.673752698,601197.720778171,13,1,0,5,3,1041171,0,20501619,32122018,0,0,0,0,-1041171,0,0,0,0,0,0,0,0,0,0,0,0,0,0,0,0,0,0,0,0,0,20501619,0,0,0,0,0,20111109,0,12010909,0
28,322,507.042603334412,1,0,601199.344274892,601200.391303444,13,1,1,3,9,2000141,62834357,103734266,82411628,0,0,-2000141,0,0,0,0,0,0,0,0,0,0,20511219,0,11111719,0,31211419,20011519,0,42001519,0,0,0,30011209,0,11710019,0,41100609,0,0,0,0,41311019,0,0
28,323,633.74413724523,0,0,601201.932443226,601202.979532986,13,0,0,34,0,0,0,0,0,0,0,0,0,0,0,0,0,0,0,0,0,0,0,0,0,0,0,0,0,0,0,0,0,0,0,0,0,0,0,0,0,0,-10000701,0,0
28,324,507.423716131598,1,0,601204.755900989,601205.80293493,13,1,1,6,0,0,0,0,0,0,0,0,0,0,-30301501,0,0,0,0,0,0,0,0,0,0,0,0,0,0,0,0,0,0,0,0,0,0,0,0,0,0,0,0,0,0
28,325,384.629550855607,0,0,601207.414666815,601208.461693057,13,0,0,8,9,14460320,31601219,84413566,61424047,0,0,0,0,0,0,11300219,-3160101,0,0,0,31601219,0,0,0,0,0,0,11702019,0,0,0,10800819,0,21410109,40500619,0,10510509,0,0,20511719,0,0,0,30401819,0
28,326,435.757567756809,0,0,601209.920499381,601210.967515229,13,1,0,16,19,104735585,147005626,144936175,75939355,21901319,0,0,0,42010119,20511019,0,10101719,10211409,30811019,0,0,41101309,31900309,0,-3081070,40111919,0,41010719,22001619,20001709,0,40510919,21411209,0,0,0,0,11412009,10102009,20911919,11601409,0,0,0,21912009
28,327,512.680763262324,1,0,601212.614603989,601213.661607518,13,1,1,30,31,160226013,233557621,240658831,167888885,0,41900219,21901519,12000609,0,11001509,11500619,30711519,31210019,31310819,21900709,22010009,41400719,41911809,11900419,30600009,21711209,10811919,30910319,11001519,21110019,12010209,41801809,31400419,40911909,40501419,11011209,41411919,10711909,-2151101,40311009,0,11800419,31301419,30201109,0
28,328,588.754346477799,1,0,601215.202703799,601216.249731581,13,0,1,23,9,64811847,31521128,74541088,61710328,0,21110019,0,0,11801019,0,0,0,31900809,0,0,0,0,21110019,0,10411109,0,0,0,0,31200209,0,-2140060,0,0,0,41200819,0,0,31600219,0,0,0,30110109,0,0
28,329,552.901639253832,0,0,601217.967347,601219.014434451,13,1,0,22,19,93004346,134035165,137245755,154112675,30601819,0,0,0,10601009,31500809,0,20300709,0,21110609,0,0,20511619,40500719,0,30511809,0,21400409,30610819,21610319,20600019,-3121180,0,0,0,40301809,21001609,0,0,40901519,20400509,0,21600219,40400119,0,30810309
28,330,564.022049307823,1,0,601220.767282404,601221.814304026,13,0,1,32,3,0,0,11811709,85251368,0,0,0,0,0,0,0,0,0,0,0,0,0,0,0,0,0,0,0,0,0,0,0,0,0,0,11811709,41210119,0,0,0,-4031140,40010109,0,0,0
28,331,513.866832479835,0,0,601223.55544989,601224.602473052,13,0,0,7,3,11241600,11711119,20001219,0,0,0,0,10210419,0,0,-1031181,0,0,0,0,0,0,0,0,0,11711119,0,0,0,0,0,0,20001219,0,0,0,0,0,0,0,0,0,0,0,0
28,332,466.983026475646,1,0,601226.308321325,601227.355390683,13,1,1,19,3,20110719,0,11892809,41210619,0,0,0,0,0,0,0,0,20110719,0,0,0,0,0,0,0,0,0,-1081200,0,0,10811609,0,0,0,0,0,0,0,0,0,41210619,0,0,0,0
28,333,507.755938684568,1,0,601228.896481959,601229.943514745,13,0,1,34,19,93925666,124155184,105832865,134503626,11511919,0,0,31011509,21100719,30301519,0,0,0,20210419,0,10211819,20110309,0,0,40710809,11711509,21200319,0,10800819,21811419,31010309,0,0,11100009,31110309,0,0,30710109,31000119,0,30511109,0,-1081180,41201109,0
28,334,491.125946165994,0,0,601231.567014547,601232.614040019,13,0,0,4,19,96963905,21322318,206728903,134205465,20810219,20001019,0,-2041130,31000409,11600919,0,11510209,0,0,0,0,0,0,0,10910309,0,10412009,30501909,10301019,31911519,0,41801309,20200619,40610719,0,31401809,0,40502009,41101709,10300619,20300409,0,0,22000719,0
28,335,595.627080881968,1,0,601234.190485091,601235.237494395,13,0,1,25,31,179827322,156815493,201988562,197748202,31900019,21301109,10410709,10601409,40201419,11800919,41800719,11811019,0,0,0,11800309,30301819,21000309,30701109,10600309,30611619,21800019,30300519,20911809,21601209,21910219,31111809,30811209,-3140070,31100209,11101509,30101419,11000019,40811509,11710419,30311809,10300709,0,21510709,42001609
28,336,433.541723992676,1,0,601236.872758648,601237.919787585,13,0,1,2,9,76891788,105134475,20501319,10710609,0,-4081150,0,0,41010219,31800419,0,0,0,20011509,0,11000209,21411219,41001419,11710119,0,0,0,0,0,0,20501319,0,0,0,0,0,0,0,0,0,0,0,0,10710609,0
28,337,578.158640186302,0,0,601239.449167919,601240.496189541,13,1,0,10,31,209135112,189002303,206628693,220160351,41700909,11700019,30110409,31211419,0,21700509,30700109,20501519,21510219,-3130110,40311309,10212019,0,40501809,31612019,11511609,41111809,10611619,0,30811819,41601609,10101209,0,32001819,31211409,40900109,20000719,10710719,30400509,32001019,31011919,21801219,10910319,30011619,21501019,31812009
28,338,606.762119568884,0,0,601242.190306468,601243.237307688,13,1,0,12,19,84113746,48194747,116944994,197637074,20700809,21501019,0,21800409,0,20111509,0,0,0,0,0,-3191010,0,0,22000709,11801419,11201609,0,21010019,0,20711109,11111609,41501419,0,11710119,10900719,0,41910409,0,21011009,30212019,41401809,0,0,21201519,41900309
28,339,550.764327752404,1,0,601277.954100443,601279.001191358,14,1,1,16,19,104735585,147005626,144936175,75939355,21901319,0,0,0,42010119,20511019,0,10101719,10211409,30811019,0,0,41101309,31900309,0,-3081070,40111919,0,41010719,22001619,20001709,0,40510919,21411209,0,0,0,0,11412009,10102009,20911919,11601409,0,0,0,21912009
28,340,455.727879540063,0,0,601280.648159625,601281.695174703,14,1,0,10,31,209135112,189002303,206628693,220160351,41700909,11700019,30110409,31211419,0,21700509,30700109,20501519,21510219,-3130110,40311309,10212019,0,40501809,31612019,11511609,41111809,10611619,0,30811819,41601609,10101209,0,32001819,31211409,40900109,20000719,10710719,30400509,32001019,31011919,21801219,10910319,30011619,21501019,31812009
28,341,397.377197281457,0,0,601283.330442422,601284.377463659,14,1,0,5,3,1041171,0,20501619,32122018,0,0,0,0,-1041171,0,0,0,0,0,0,0,0,0,0,0,0,0,0,0,0,0,0,0,0,0,20501619,0,0,0,0,0,20111109,0,12010909,0
28,342,559.266993310303,0,0,601285.824493212,601286.871522149,14,0,0,23,3,31611819,31400109,3150060,21201709,31611819,0,0,0,0,0,0,0,0,0,0,0,0,0,0,0,31400109,0,0,0,0,0,-3150060,0,0,0,0,0,0,0,0,0,0,21201709,0,0
28,343,580.801022355445,0,0,601288.495026185,601289.542051657,14,0,0,31,19,113956565,115755375,153126955,114694336,0,31010219,20611109,20011709,30411519,0,0,11912009,0,10811919,0,0,20110919,11810519,31911309,0,41110709,0,31510409,0,10501409,0,40611509,40402009,0,0,30101619,0,40300609,20911819,-2070190,0,31311609,20100109,0,0
28,344,660.690738353878,1,0,601291.236142792,601292.28315248,14,1,1,30,31,160226013,233557621,240658831,167888885,0,41900219,21901519,12000609,0,11001509,11500619,30711519,31210019,31310819,21900709,22010009,41400719,41911809,11900419,30600009,21711209,10811919,30910319,11001519,21110019,12010209,41801809,31400419,40911909,40501419,11011209,41411919,10711909,-2151101,40311009,0,11800419,31301419,30201109,0
28,345,460.718532558531,0,0,601294.024296804,601295.071314577,14,0,0,2,31,122173575,274536511,209638192,209147492,42000309,-3060181,11500319,0,0,20710519,12001209,21700419,11200619,30300809,30110609,40000609,41500319,10710409,30101809,40400909,31200119,20210919,11511909,31600019,0,31400709,10111209,31611309,41901109,10300809,41201119,0,21700109,31111909,20000609,21301719,20410509,21001209,31910809,41710619
28,346,409.702539793216,0,0,601296.683051851,601297.730074244,14,0,0,32,9,51733337,31001409,83321928,84734057,10110209,0,11211719,0,0,30411409,0,0,0,0,0,0,0,0,0,0,0,31001409,42011719,0,0,0,41310209,0,0,0,0,0,0,20010019,0,-2111100,0,32001419,0,30611519
28,347,606.451070052572,1,0,601299.165337419,601300.212368281,14,1,1,3,9,2000141,62834357,103734266,82411628,0,0,-2000141,0,0,0,0,0,0,0,0,0,0,20511219,0,11111719,0,31211419,20011519,0,42001519,0,0,0,30011209,0,11710019,0,41100609,0,0,0,0,41311019,0,0
28,348,632.063776254654,0,0,601301.84762984,601302.894653772,14,0,0,34,3,31812228,0,0,35002770,0,0,20511809,11300419,0,0,0,0,0,0,0,0,0,0,0,0,0,0,0,0,0,0,0,0,0,0,0,0,0,0,0,0,30901709,-4101061,0,0
