sub_id,Trial,RT,Resp,Error,Fix_onset,Disp_onset,block,repeat,tid,tloc,d_setsize,quad1,quad2,quad3,quad4,loc1,loc2,loc3,loc4,loc5,loc6,loc7,loc8,loc9,loc10,loc11,loc12,loc13,loc14,loc15,loc16,loc17,loc18,loc19,loc20,loc21,loc22,loc23,loc24,loc25,loc26,loc27,loc28,loc29,loc30,loc31,loc32,loc33,loc34,loc35,loc36
25,1,863.696817308664,0,1,594902.460823442,594903.507865083,1,1,1,33,19,63321328,112827875,189727583,123995056,31710809,31610519,0,0,0,0,0,0,0,20001219,0,0,11412009,0,0,30511419,30801409,20101819,0,11900509,10701509,0,31600819,30800109,31212009,41810719,31701909,10201809,40001609,0,0,0,-2060001,30810219,20210509,20710909
25,2,1100.93069274444,0,0,594905.425529316,594906.47252938,1,1,0,4,9,13751060,122604766,10110309,74503737,0,0,0,-3041051,10710009,0,0,0,0,0,0,41302009,0,30200719,0,40500119,0,10601919,0,0,0,0,0,10110309,0,0,0,10702019,0,0,0,31801709,32000009,0,0,0
25,3,547.161448514089,0,0,594908.731282656,594909.778305434,1,0,0,27,0,0,0,0,0,0,0,0,0,0,0,0,0,0,0,0,0,0,0,0,0,0,0,0,0,0,0,0,0,0,0,-10401701,0,0,0,0,0,0,0,0,0
25,4,526.896255556494,1,0,594911.519456687,594912.566494093,1,0,1,23,19,63433946,134232055,104764607,225346894,0,21002009,0,0,20810719,0,10210209,0,11411009,20510519,0,0,40410309,0,0,31810109,31200209,10300909,41811819,0,30900019,10101719,-1140131,0,20810919,0,0,0,41811719,30011909,40800519,40111719,0,0,41200009,31411019
25,5,670.424883021042,0,0,594914.095861723,594915.142895664,1,1,0,31,9,40600519,143822756,102403957,23332029,40600519,0,0,0,0,0,0,0,0,0,0,20610719,0,42001619,0,40300109,40910309,0,0,41201219,30401919,0,0,0,0,30800819,0,0,0,0,-3130020,20202009,0,0,0,0
25,6,588.871359359473,0,0,594916.966459678,594918.013460512,1,0,0,29,9,42212828,0,135825266,54943078,0,0,11611709,0,0,0,0,0,30601119,0,0,0,0,0,0,0,0,0,41601019,0,0,0,0,31800519,0,21212009,41211719,0,-1011041,21010319,12010109,0,0,20911609,0,0
25,7,642.476994544268,0,0,594919.648682805,594920.695709432,1,1,0,2,31,221000823,208246002,197244512,187859203,30001909,-4061031,20700219,21101809,32000809,21311309,20601619,40110609,31111509,11210619,11901309,41810709,40001009,0,21400609,40310819,20600009,21010919,10510709,21600009,41400019,0,10810219,10500019,31400009,30611809,40411719,41310419,0,0,31611109,31502019,10610709,11911719,40101309,20811919
25,8,473.100063856691,0,0,594922.425094693,594923.47212671,1,1,0,13,19,175316675,149036845,74503956,115331166,0,41611519,20101809,0,40401319,31700109,0,41501919,0,31201719,0,21211509,-1000161,31512019,0,32000009,21710119,10401309,12000209,40501009,0,0,10901519,0,0,0,11101219,0,0,0,21010419,12010119,0,41110309,41200319,0
25,9,498.534532613121,0,1,594925.083651682,594926.130885606,1,0,1,19,31,215346412,219635902,130186774,198638221,10300209,0,40001319,11210709,10810009,41311919,41200119,40501719,20010409,40911909,41400119,22010919,41900609,11101209,0,10300109,20100719,31910309,-3041090,32011709,10311319,21801909,21810419,0,20800019,0,20410309,40700119,11211009,41301019,30210709,21701309,20801409,11300019,10311209,11101419
25,10,465.443545952439,0,0,594927.789674145,594928.836705006,1,1,0,27,3,30510019,0,4181190,41903628,30510019,0,0,0,0,0,0,0,0,0,0,0,0,0,0,0,0,0,0,0,0,0,0,0,0,0,-4181190,0,31901709,0,0,10001919,0,0,0,0
25,11,705.270913429558,1,0,594930.319035615,594931.366068787,1,1,1,9,3,22342619,0,61512018,0,0,0,0,0,0,21211509,0,0,-1131110,0,0,0,0,0,0,0,0,0,0,0,30100109,0,0,0,0,0,31411909,0,0,0,0,0,0,0,0,0
25,12,403.99314602837,1,0,594933.201321029,594934.248356126,1,0,1,10,9,20801709,23871139,94014256,72822247,20801709,0,0,0,0,0,0,0,0,-2060120,0,21811019,0,0,0,0,0,0,21001309,0,30701019,20810009,0,0,21501919,0,0,40711919,21510309,0,10600019,0,0,0,0,0
25,13,442.193354247138,0,0,594935.718913813,594936.76593967,1,0,0,26,3,62413038,0,3020141,42011119,0,0,0,21601519,0,0,0,0,40811519,0,0,0,0,0,0,0,0,0,0,0,0,0,0,0,0,-3020141,0,0,0,0,42011119,0,0,0,0,0
25,14,541.046320227906,1,0,594938.307084071,594939.354116088,1,0,1,32,3,0,30510309,11301819,22561600,0,0,0,0,0,0,0,0,0,30510309,0,0,0,0,0,0,0,0,11301819,0,0,0,0,0,0,0,0,0,0,0,0,-1060081,0,21501519,0,0
25,15,515.564116183668,1,0,594941.036454704,594942.083473632,1,0,1,24,9,63903037,10501909,45431789,85213037,11500109,0,0,0,0,20601919,31801009,0,0,10501909,0,0,0,0,0,0,0,0,0,0,0,0,0,-4010161,31110209,0,10311419,0,31800709,31601819,21810509,0,0,0,0,0
25,16,441.51043088641,0,0,594943.730495408,594944.777525115,1,1,0,14,9,20211619,25441599,73812037,113824666,0,0,0,0,0,0,0,0,20211619,0,0,0,21301419,-4140180,0,0,0,0,0,0,0,21601009,11710009,0,0,40501019,0,0,30211319,11001219,30601609,42010519,0,0,0,0
25,17,544.684215215966,1,0,594946.330436663,594947.377469834,1,0,1,7,19,230977193,185835975,147342765,63913328,40310019,40801219,11501519,0,41811609,41000409,-3030190,10911709,41610519,40701909,0,40900219,0,31011819,0,31810109,41411919,0,30200919,21810519,0,42011109,42010009,0,11310209,0,0,0,0,0,31902019,0,0,32011309,0,0
25,18,477.910169633105,1,0,594949.094874767,594950.142113036,1,0,1,3,31,151808233,219058531,268538531,156826084,21801609,11300809,-2191050,0,31901209,30700019,11111919,21900609,20901009,10610109,31911319,40611109,31001909,41600119,12000019,30012019,10210919,11101009,10710609,21811119,31100719,41801509,40201219,30600119,20300619,40401509,31611109,40300019,10710909,21602019,0,31000809,31711919,0,21500409,0
25,19,660.992533084936,1,0,594951.636250828,594952.683259362,1,1,1,1,31,159947765,190130912,257948012,259532931,-2031091,31811319,0,0,21101209,30501319,41601109,22000409,10901309,30601109,21701819,11201119,11911109,41510809,41601519,0,11401519,20201909,40011119,40811709,0,21000519,21911209,31310219,40301219,31401009,31201009,10401719,40011109,40111619,21700809,22001709,31501119,21801819,40901919,31101109
25,20,600.95109581016,0,0,594954.389072987,594955.436109624,1,1,0,36,19,95513147,95935166,166146474,170695825,31700919,0,21810609,0,0,42001619,0,0,0,0,10800719,0,11911919,0,0,41511309,31711219,0,10411219,41310609,31600609,0,0,11300309,0,30111709,41412019,30710819,30212019,0,21700509,11200109,41011409,31810909,0,-4050051
25,21,454.155677231029,1,0,594957.141960206,594958.188978364,1,1,1,12,31,158870202,108725474,201057822,287836521,40301809,0,10510209,21711519,21601209,10611119,11812019,11711909,30610409,30511319,10110419,-2171070,21710619,0,21200819,11810319,0,11210909,21801709,10010319,11700419,21910309,11911019,40711819,41201209,41811019,0,31300809,30111319,40210509,41000219,30600709,21301309,40600919,31000709,21710019
25,22,446.900674956851,1,0,594959.777208291,594960.824230299,1,0,1,28,3,31501219,40300219,21210319,2041070,0,0,0,0,0,0,31501219,0,0,0,0,0,0,0,0,0,40300219,0,0,0,0,0,21210319,0,0,0,0,-2041070,0,0,0,0,0,0,0,0
25,23,365.806411602534,1,0,594962.365369695,594963.412399402,1,1,1,16,3,111424547,2190010,0,0,30410709,0,40102019,0,0,40911819,0,0,0,0,0,0,0,0,0,-2190010,0,0,0,0,0,0,0,0,0,0,0,0,0,0,0,0,0,0,0,0
25,24,411.329760332592,0,0,594964.894723466,594965.941757792,1,0,0,17,31,196255122,177729583,158647402,155946912,10810609,0,20211219,10601019,30800419,41210009,30711319,31200509,20710019,20010919,10611419,40712009,21801519,21711619,30601609,30200419,-2080070,0,10511509,0,10600319,21911809,40500109,20611119,21410819,11200309,21901409,31001019,0,10400409,11701409,41010509,10110109,10200919,10511619,31010919
25,25,550.425545079634,0,0,594967.506431483,594968.55345965,1,0,0,30,19,32111318,238928603,155125685,118255276,21111109,0,0,0,11000209,0,0,0,0,0,21100619,41900419,41711819,41100409,21911909,30301409,0,40902019,0,20710519,0,32000909,0,40601819,30601919,0,31210519,30401709,20311219,-3030011,41901219,0,10811009,0,0,11800109
25,26,353.723980253562,0,0,594970.118478652,594971.165167667,1,1,0,18,0,0,0,0,0,0,0,0,0,0,0,0,0,0,0,0,0,0,0,0,0,0,-11110891,0,0,0,0,0,0,0,0,0,0,0,0,0,0,0,0,0,0
25,27,513.031448237598,0,0,594984.458987557,594985.506057684,2,0,0,24,9,21801619,134211646,21710569,81102037,0,0,21801619,0,0,0,0,0,0,42000209,0,40900309,0,0,0,21011019,30300109,0,20700409,0,0,0,0,-1010160,0,0,0,40201309,0,0,0,0,10400519,30500209,0,0
25,28,417.765947408043,1,0,594987.106041285,594988.153024796,2,0,1,17,31,248139422,191689832,197836873,226157222,21311819,41801219,30501619,30400919,0,20200909,31210709,41110519,31601709,40511109,40300619,10302019,21800319,11301109,31911419,21501409,-3051010,11010819,11811419,20502009,40701009,11801809,30410309,41700309,0,0,40910009,30000609,31611019,20611309,11210019,10710209,40011219,0,41301519,40701319
25,29,422.052119160071,0,0,594989.764776699,594990.811791007,2,0,0,28,31,255748302,198658722,207476193,199656802,40011809,40701119,41611109,30011009,0,41401919,31900009,20010009,10101319,11700019,40111719,41300809,11400019,21811609,21611619,30311509,20411419,0,21411909,30310919,30710309,30610109,0,0,41410509,21411319,31611119,-3200010,30910419,21710609,21401119,30910209,40511409,10100209,10801909,30110909
25,30,407.037044176832,0,0,594992.25881748,594993.305840258,2,0,0,19,3,30600019,41411819,4051151,10111719,30600019,0,0,0,0,0,0,0,0,0,0,0,41411819,0,0,0,0,0,-4051151,0,0,0,0,0,0,0,0,0,0,0,0,0,0,0,0,10111719
25,31,560.731374658644,0,0,594994.847001212,594995.894029379,2,1,0,4,9,13751060,122604766,10110309,74503737,0,0,0,-3041051,10710009,0,0,0,0,0,0,41302009,0,30200719,0,40500119,0,10601919,0,0,0,0,0,10110309,0,0,0,10702019,0,0,0,31801709,32000009,0,0,0
25,32,440.802099998109,0,0,594997.54110505,594998.588075088,2,0,0,7,9,107976816,81812128,10501609,41811728,30700709,11302009,31011609,0,0,0,-3151170,31811319,0,0,40311309,41500819,0,0,0,0,0,0,0,0,0,0,0,0,0,0,10501609,10111109,0,0,31700619,0,0,0,0,0
25,33,349.533664179035,1,0,595000.235109183,595001.28213504,2,1,1,18,0,0,0,0,0,0,0,0,0,0,0,0,0,0,0,0,0,0,0,0,0,0,-11110891,0,0,0,0,0,0,0,0,0,0,0,0,0,0,0,0,0,0
25,34,590.405819588341,1,0,595002.776230486,595003.823254419,2,1,1,1,31,159947765,190130912,257948012,259532931,-2031091,31811319,0,0,21101209,30501319,41601109,22000409,10901309,30601109,21701819,11201119,11911109,41510809,41601519,0,11401519,20201909,40011119,40811709,0,21000519,21911209,31310219,40301219,31401009,31201009,10401719,40011109,40111619,21700809,22001709,31501119,21801819,40901919,31101109
25,35,391.37099753134,0,0,595005.517335929,595006.56437141,2,1,0,16,3,111424547,2190010,0,0,30410709,0,40102019,0,0,40911819,0,0,0,0,0,0,0,0,0,-2190010,0,0,0,0,0,0,0,0,0,0,0,0,0,0,0,0,0,0,0,0
25,36,351.205556071363,0,0,595008.105521586,595009.152549368,2,0,0,3,3,1111100,11511009,31300709,41711919,0,0,-1111100,0,0,0,0,0,0,0,0,0,0,0,0,0,11511009,0,0,0,0,0,0,0,31300709,0,0,0,41711919,0,0,0,0,0,0,0
25,37,364.089479087852,0,0,595010.59958046,595011.646599773,2,1,0,27,3,30510019,0,4181190,41903628,30510019,0,0,0,0,0,0,0,0,0,0,0,0,0,0,0,0,0,0,0,0,0,0,0,0,0,-4181190,0,31901709,0,0,10001919,0,0,0,0
25,38,380.054256413132,0,1,595013.046582681,595014.093609693,2,1,1,14,9,20211619,25441599,73812037,113824666,0,0,0,0,0,0,0,0,20211619,0,0,0,21301419,-4140180,0,0,0,0,0,0,0,21601009,11710009,0,0,40501019,0,0,30211319,11001219,30601609,42010519,0,0,0,0
25,39,471.698030713014,0,0,595015.622999266,595016.670018578,2,0,0,10,31,221158822,214266514,229043142,200038902,41401519,11501809,0,40411019,31611519,31610019,11411209,31210419,22001309,-4040121,11000509,21611209,40401419,22011519,31401009,41900709,41900019,0,0,41310819,42000219,11310019,11410109,30800119,31400119,30601619,30210119,10510509,41401919,0,41301009,20400619,31811709,11802009,31110119,11701009
25,40,708.558107609861,1,0,595018.269989475,595019.317023417,2,0,1,26,19,158347993,84232756,85455077,74733256,0,21301519,11811709,11110319,41600519,10911909,41411409,20200609,0,0,0,0,21210309,40710719,0,0,11100719,11211009,22010809,0,0,0,40511709,11310509,10612019,-1010031,0,0,0,30810319,0,10111409,0,21911419,11900109,0
25,41,635.619273525663,1,0,595021.222859293,595022.269948669,2,1,1,33,19,63321328,112827875,189727583,123995056,31710809,31610519,0,0,0,0,0,0,0,20001219,0,0,11412009,0,0,30511419,30801409,20101819,0,11900509,10701509,0,31600819,30800109,31212009,41810719,31701909,10201809,40001609,0,0,0,-2060001,30810219,20210509,20710909
25,42,627.419573604129,0,0,595023.952219917,595024.999244619,2,0,0,32,9,52012728,42711928,63322147,53733758,0,0,0,0,0,30801609,0,21211119,0,11410309,0,0,31301619,0,0,0,0,0,11901619,0,40610509,0,0,0,0,10810019,0,0,0,41511519,0,-2021030,0,10201209,0,0
25,43,658.198090852238,0,0,595026.787444057,595027.834474534,2,1,0,36,19,95513147,95935166,166146474,170695825,31700919,0,21810609,0,0,42001619,0,0,0,0,10800719,0,11911919,0,0,41511309,31711219,0,10411219,41310609,31600609,0,0,11300309,0,30111709,41412019,30710819,30212019,0,21700509,11200109,41011409,31810909,0,-4050051
25,44,510.293210390955,0,0,595029.634444969,595030.681469671,2,1,0,2,31,221000823,208246002,197244512,187859203,30001909,-4061031,20700219,21101809,32000809,21311309,20601619,40110609,31111509,11210619,11901309,41810709,40001009,0,21400609,40310819,20600009,21010919,10510709,21600009,41400019,0,10810219,10500019,31400009,30611809,40411719,41310419,0,0,31611109,31502019,10610709,11911719,40101309,20811919
25,45,632.737059728242,1,0,595032.257909354,595033.304940215,2,1,1,31,9,40600519,143822756,102403957,23332029,40600519,0,0,0,0,0,0,0,0,0,0,20610719,0,42001619,0,40300109,40910309,0,0,41201219,30401919,0,0,0,0,30800819,0,0,0,0,-3130020,20202009,0,0,0,0
25,46,630.651333252899,0,0,595035.046081845,595036.093121176,2,0,0,23,19,111545565,104824147,95341847,210365992,40411619,20711109,0,10110209,10111409,0,0,0,30201219,32002019,0,0,0,0,0,31211419,41610709,0,41501119,0,0,0,-2120010,0,10610509,41110209,0,41411909,41310009,41611009,12000219,31010209,10101219,21210509,11710909,0
25,47,569.533540867269,1,0,595037.740138332,595038.787171119,2,1,1,12,31,158870202,108725474,201057822,287836521,40301809,0,10510209,21711519,21601209,10611119,11812019,11711909,30610409,30511319,10110419,-2171070,21710619,0,21200819,11810319,0,11210909,21801709,10010319,11700419,21910309,11911019,40711819,41201209,41811019,0,31300809,30111319,40210509,41000219,30600709,21301309,40600919,31000709,21710019
25,48,752.236331463791,1,0,595040.481256864,595041.528281566,2,0,1,13,0,0,0,0,0,0,0,0,0,0,0,0,0,0,0,0,0,-40811201,0,0,0,0,0,0,0,0,0,0,0,0,0,0,0,0,0,0,0,0,0,0,0
25,49,623.127627302893,1,0,595043.363539584,595044.410565441,2,0,1,30,3,0,73513828,40311309,4050111,0,0,0,0,0,0,0,0,0,41912019,31601809,0,0,0,0,0,0,0,0,0,0,0,0,0,0,0,40311309,0,0,-4050111,0,0,0,0,0,0
25,50,491.590580088086,1,0,595046.151713999,595047.19880299,2,1,1,9,3,22342619,0,61512018,0,0,0,0,0,0,21211509,0,0,-1131110,0,0,0,0,0,0,0,0,0,0,0,30100109,0,0,0,0,0,31411909,0,0,0,0,0,0,0,0,0
25,51,522.352159023285,1,0,595048.881060379,595049.92809432,2,0,1,29,19,104032476,179035813,83334365,94425917,31100219,0,0,0,20510219,0,0,30611919,21810119,21100119,20310419,0,40900719,11411419,42000909,0,11810809,31501419,11000509,11511209,0,0,10310819,0,0,30411309,20100519,0,-2201070,0,0,30011719,21801119,0,40412009,0
25,52,542.12459991686,1,0,595051.516297685,595052.563327007,2,1,1,13,19,175316675,149036845,74503956,115331166,0,41611519,20101809,0,40401319,31700109,0,41501919,0,31201719,0,21211509,-1000161,31512019,0,32000009,21710119,10401309,12000209,40501009,0,0,10901519,0,0,0,11101219,0,0,0,21010419,12010119,0,41110309,41200319,0
25,53,635.38213679567,1,0,595067.210054672,595068.257088614,3,1,1,31,9,40600519,143822756,102403957,23332029,40600519,0,0,0,0,0,0,0,0,0,0,20610719,0,42001619,0,40300109,40910309,0,0,41201219,30401919,0,0,0,0,30800819,0,0,0,0,-3130020,20202009,0,0,0,0
25,54,487.560793175362,0,0,595069.974701723,595071.021734125,3,0,0,26,9,10800709,80823047,105805886,11701019,0,0,0,0,0,0,0,0,10800709,0,0,0,30510909,0,0,0,10201619,40110519,0,0,12001009,0,40812019,10711309,41110519,-1171030,0,0,0,11701019,0,0,0,0,0,0
25,55,536.402903147973,0,0,595072.656993759,595073.704023851,3,1,0,1,31,159947765,190130912,257948012,259532931,-2031091,31811319,0,0,21101209,30501319,41601109,22000409,10901309,30601109,21701819,11201119,11911109,41510809,41601519,0,11401519,20201909,40011119,40811709,0,21000519,21911209,31310219,40301219,31401009,31201009,10401719,40011109,40111619,21700809,22001709,31501119,21801819,40901919,31101109
25,56,413.100972422399,1,0,595075.292227216,595076.339257307,3,0,1,24,3,0,61811928,13701879,0,0,0,0,0,0,0,0,0,0,0,31600019,30211909,0,0,0,0,0,0,0,0,0,0,0,-2100070,11601809,0,0,0,0,0,0,0,0,0,0,0
25,57,484.280528267846,1,0,595077.798055162,595078.845093723,3,0,1,3,19,155976346,85542575,113445575,124423676,0,21310519,-2021161,0,41811919,20510319,30111819,0,40210609,11900419,0,0,0,20210409,20810519,0,10910209,21711019,30811609,0,30400619,0,0,10910209,20411919,0,20911219,41901819,0,21110519,0,0,20810319,0,40601019,0
25,58,594.874463626184,0,1,595080.480351047,595081.52737344,3,1,1,2,31,221000823,208246002,197244512,187859203,30001909,-4061031,20700219,21101809,32000809,21311309,20601619,40110609,31111509,11210619,11901309,41810709,40001009,0,21400609,40310819,20600009,21010919,10510709,21600009,41400019,0,10810219,10500019,31400009,30611809,40411719,41310419,0,0,31611109,31502019,10610709,11911719,40101309,20811919
25,59,957.902131718583,0,0,595083.32733887,595084.374370117,3,0,0,19,31,218730411,261247331,98414816,199450102,10701119,11901319,41402009,30100309,30500009,30812009,40601419,11001309,11710909,21910319,31100609,30310409,42000609,30211019,41900319,10800919,21402009,31611119,-2161041,0,40610719,11711209,21810219,0,0,10311419,11810209,40001009,41511019,22000309,21901909,21201719,0,10511509,12011809,30310819
25,60,1075.15630230773,1,0,595086.480207071,595087.527254486,3,1,1,27,3,30510019,0,4181190,41903628,30510019,0,0,0,0,0,0,0,0,0,0,0,0,0,0,0,0,0,0,0,0,0,0,0,0,0,-4181190,0,31901709,0,0,10001919,0,0,0,0
25,61,798.980396008119,1,0,595089.77424562,595090.821274172,3,1,1,36,19,95513147,95935166,166146474,170695825,31700919,0,21810609,0,0,42001619,0,0,0,0,10800719,0,11911919,0,0,41511309,31711219,0,10411219,41310609,31600609,0,0,11300309,0,30111709,41412019,30710819,30212019,0,21700509,11200109,41011409,31810909,0,-4050051
25,62,645.002348232083,1,0,595092.774200579,595093.821214503,3,1,1,14,9,20211619,25441599,73812037,113824666,0,0,0,0,0,0,0,0,20211619,0,0,0,21301419,-4140180,0,0,0,0,0,0,0,21601009,11710009,0,0,40501019,0,0,30211319,11001219,30601609,42010519,0,0,0,0
25,63,517.794203595258,0,0,595095.503544265,595096.550560498,3,1,0,16,3,111424547,2190010,0,0,30410709,0,40102019,0,0,40911819,0,0,0,0,0,0,0,0,0,-2190010,0,0,0,0,0,0,0,0,0,0,0,0,0,0,0,0,0,0,0,0
25,64,541.479787789285,0,0,595098.091716832,595099.138751544,3,0,0,32,3,11810409,40901709,41511719,4101180,0,0,11810409,0,0,0,0,0,0,40901709,0,0,0,0,0,0,0,0,0,0,0,0,0,41511719,0,0,0,0,0,0,0,-4101180,0,0,0,0
25,65,537.758355843835,0,0,595100.797539313,595101.844564785,3,0,0,23,3,0,31300109,3161181,70502428,0,0,0,0,0,0,0,0,0,0,0,0,31300109,0,0,0,0,0,0,0,0,0,-3161181,0,0,0,0,40001519,0,30500909,0,0,0,0,0,0
25,66,544.116780627519,0,0,595103.526885692,595104.573913474,3,0,0,10,9,51320218,12211419,94014656,52013138,0,0,41110209,0,0,0,10210009,0,0,-2201010,0,0,0,0,0,0,10010409,0,0,0,0,30610419,0,0,21900219,31102009,10402009,0,0,0,12011619,0,0,0,40001519,0
25,67,638.108055805787,1,0,595106.22094449,595107.267966113,3,0,1,17,9,30610909,129665065,32912128,10501719,0,0,0,0,0,30610909,0,0,0,0,0,11310219,11501209,40801709,40100519,0,-4150190,21801219,0,0,21010909,0,0,11901219,0,0,0,0,0,10501719,0,0,0,0,0,0
25,68,547.386266523972,0,0,595109.079692146,595110.126727242,3,0,0,7,31,179637293,220270411,157528274,214960911,30911919,20100909,21510519,32010309,21601819,41910509,-1090090,10501219,0,20101909,21200509,41400309,11911909,30211019,20511109,12011409,41012019,21910219,40001109,21702009,21310219,31201309,31511619,0,11802009,0,0,20011019,11011619,41600109,41002019,10110409,10010909,40201909,20701009,20311909
25,69,965.225272229873,0,0,595111.761998425,595112.809018892,3,1,0,18,0,0,0,0,0,0,0,0,0,0,0,0,0,0,0,0,0,0,0,0,0,0,-11110891,0,0,0,0,0,0,0,0,0,0,0,0,0,0,0,0,0,0
25,70,534.717922564596,0,0,595114.797224798,595115.844277603,3,1,0,13,19,175316675,149036845,74503956,115331166,0,41611519,20101809,0,40401319,31700109,0,41501919,0,31201719,0,21211509,-1000161,31512019,0,32000009,21710119,10401309,12000209,40501009,0,0,10901519,0,0,0,11101219,0,0,0,21010419,12010119,0,41110309,41200319,0
25,71,570.127922925167,1,0,595117.550089689,595118.597120165,3,1,1,33,19,63321328,112827875,189727583,123995056,31710809,31610519,0,0,0,0,0,0,0,20001219,0,0,11412009,0,0,30511419,30801409,20101819,0,11900509,10701509,0,31600819,30800109,31212009,41810719,31701909,10201809,40001609,0,0,0,-2060001,30810219,20210509,20710909
25,72,547.102934215218,0,0,595120.20884743,595121.255879832,3,0,0,29,19,155231656,135815684,145112275,86294306,41710009,0,0,0,0,31410209,41900919,40210519,0,10302009,0,41200519,10912009,21000309,30500619,21900219,0,0,0,0,41010609,0,11000209,41300419,10100519,0,41700519,10010709,-2060160,41411209,0,0,11800809,0,21011419,0
25,73,519.094991730526,1,0,595122.99702839,595124.044048088,3,1,1,12,31,158870202,108725474,201057822,287836521,40301809,0,10510209,21711519,21601209,10611119,11812019,11711909,30610409,30511319,10110419,-2171070,21710619,0,21200819,11810319,0,11210909,21801709,10010319,11700419,21910309,11911019,40711819,41201209,41811019,0,31300809,30111319,40210509,41000219,30600709,21301309,40600919,31000709,21710019
25,74,414.267023676075,1,0,595125.761669282,595126.808700144,3,0,1,7,0,0,0,0,0,0,0,0,0,0,0,-41100201,0,0,0,0,0,0,0,0,0,0,0,0,0,0,0,0,0,0,0,0,0,0,0,0,0,0,0,0,0
25,75,545.083036413416,0,0,595128.349847624,595129.396873866,3,1,0,4,9,13751060,122604766,10110309,74503737,0,0,0,-3041051,10710009,0,0,0,0,0,0,41302009,0,30200719,0,40500119,0,10601919,0,0,0,0,0,10110309,0,0,0,10702019,0,0,0,31801709,32000009,0,0,0
25,76,332.363954163156,1,0,595131.149779563,595132.19680157,3,1,1,9,3,22342619,0,61512018,0,0,0,0,0,0,21211509,0,0,-1131110,0,0,0,0,0,0,0,0,0,0,0,30100109,0,0,0,0,0,31411909,0,0,0,0,0,0,0,0,0
25,77,614.831944229081,0,0,595133.667157152,595134.71420123,3,0,0,30,19,98715904,114336065,112226656,103206797,31710819,11301319,0,0,21901709,11400919,0,11200819,11200319,11412009,30511619,0,11401009,40811409,20200019,0,0,0,31001719,0,0,0,0,40111909,10111909,0,31001119,20111209,0,-1061041,40611919,0,11211619,0,0,30211009
25,78,663.352353032678,1,0,595136.502589558,595137.549623884,3,0,1,28,31,197148632,208467312,196651602,197586934,20810909,30610809,10901519,40401919,41910919,0,21601219,20210519,10700819,11911719,0,40301609,31810509,10000009,31311819,41010419,11910619,30210609,30712019,0,20801019,31002009,31102009,10300909,21111109,11111919,40510609,-1130041,40811509,30310019,30501019,21410809,21310419,10911709,0,41201409
25,79,523.352676304057,0,0,595144.996515235,595146.043548792,4,0,0,17,0,0,0,0,0,0,0,0,0,0,0,0,0,0,0,0,0,0,0,0,0,-20299991,0,0,0,0,0,0,0,0,0,0,0,0,0,0,0,0,0,0,0
25,80,561.202953569591,0,0,595147.690577883,595148.73760528,4,1,0,12,31,158870202,108725474,201057822,287836521,40301809,0,10510209,21711519,21601209,10611119,11812019,11711909,30610409,30511319,10110419,-2171070,21710619,0,21200819,11810319,0,11210909,21801709,10010319,11700419,21910309,11911019,40711819,41201209,41811019,0,31300809,30111319,40210509,41000219,30600709,21301309,40600919,31000709,21710019
25,81,675.108336028643,0,0,595150.431699109,595151.478726121,4,1,0,14,9,20211619,25441599,73812037,113824666,0,0,0,0,0,0,0,0,20211619,0,0,0,21301419,-4140180,0,0,0,0,0,0,0,21601009,11710009,0,0,40501019,0,0,30211319,11001219,30601609,42010519,0,0,0,0
25,82,457.431322545744,0,0,595153.243397425,595154.290419432,4,1,0,2,31,221000823,208246002,197244512,187859203,30001909,-4061031,20700219,21101809,32000809,21311309,20601619,40110609,31111509,11210619,11901309,41810709,40001009,0,21400609,40310819,20600009,21010919,10510709,21600009,41400019,0,10810219,10500019,31400009,30611809,40411719,41310419,0,0,31611109,31502019,10610709,11911719,40101309,20811919
25,83,494.410429964773,0,0,595155.784516803,595156.831549974,4,1,0,1,31,159947765,190130912,257948012,259532931,-2031091,31811319,0,0,21101209,30501319,41601109,22000409,10901309,30601109,21701819,11201119,11911109,41510809,41601519,0,11401519,20201909,40011119,40811709,0,21000519,21911209,31310219,40301219,31401009,31201009,10401719,40011109,40111619,21700809,22001709,31501119,21801819,40901919,31101109
25,84,507.906828192063,0,0,595158.455049776,595159.502079868,4,0,0,28,9,51513918,81413437,74422357,25171950,31402009,0,0,0,20111909,0,0,0,0,41111609,0,0,0,30300619,0,0,10001209,0,41910619,0,22011619,0,0,0,0,10500119,0,-3160031,0,0,0,0,0,0,22011919,0
25,85,722.712791757658,1,0,595161.054995265,595162.102021122,4,0,1,10,9,0,87583168,62514018,85722476,0,0,0,0,0,0,0,0,0,-3160141,21611409,0,31111409,31700209,0,0,0,0,0,20912009,0,0,0,0,0,0,41602009,0,0,0,11711119,0,11900819,41300019,0,20810519
25,86,672.843986889347,1,0,595164.007860079,595165.054887861,4,1,1,27,3,30510019,0,4181190,41903628,30510019,0,0,0,0,0,0,0,0,0,0,0,0,0,0,0,0,0,0,0,0,0,0,0,0,0,-4181190,0,31901709,0,0,10001919,0,0,0,0
25,87,445.501336478628,0,0,595166.937199837,595167.984237628,4,1,0,4,9,13751060,122604766,10110309,74503737,0,0,0,-3041051,10710009,0,0,0,0,0,0,41302009,0,30200719,0,40500119,0,10601919,0,0,0,0,0,10110309,0,0,0,10702019,0,0,0,31801709,32000009,0,0,0
25,88,637.081745895557,1,0,595169.607729345,595170.654749428,4,1,1,13,19,175316675,149036845,74503956,115331166,0,41611519,20101809,0,40401319,31700109,0,41501919,0,31201719,0,21211509,-1000161,31512019,0,32000009,21710119,10401309,12000209,40501009,0,0,10901519,0,0,0,11101219,0,0,0,21010419,12010119,0,41110309,41200319,0
25,89,519.167749560438,1,0,595172.46648162,595173.513511712,4,1,1,9,3,22342619,0,61512018,0,0,0,0,0,0,21211509,0,0,-1131110,0,0,0,0,0,0,0,0,0,0,0,30100109,0,0,0,0,0,31411909,0,0,0,0,0,0,0,0,0
25,90,550.305436830968,1,0,595175.066430574,595176.113457587,4,0,1,26,19,135105665,136126075,125202847,127527504,0,0,0,30400609,20801919,31701219,42000509,10201409,0,41201519,31011409,0,10911709,31300819,21700619,0,0,0,0,40100419,41100809,0,0,0,0,-2090110,41911509,21302009,0,0,0,31601519,11611419,31710319,20700519,10601719
25,91,552.242567762733,1,0,595177.713429253,595178.76045819,4,0,1,24,9,71905137,20110309,41951220,113332556,41502019,0,10101209,0,0,0,20301909,0,0,0,0,20110309,0,0,0,0,0,0,0,0,0,40800219,0,-1151001,0,0,0,0,40310819,0,0,21410319,0,0,20700009,30911409
25,92,680.005828267895,0,0,595180.501591735,595181.548622597,4,0,0,32,31,197346583,246937512,218692621,208655563,20611009,31600509,0,10801919,21111409,41010919,0,30700809,41510009,32000019,30001409,0,20901719,41401809,30010519,40410519,30810009,21401509,40411619,20211419,20711809,11411509,40711519,11411809,11500909,31010819,31311209,31301219,30610009,10710609,21111009,-2090080,30811019,0,41411209,40610409
25,93,545.06147839129,1,0,595183.348592647,595184.395616194,4,0,1,17,19,135134575,77415126,82714947,197757293,0,30210719,41800819,40910819,11610809,10601409,0,0,0,0,0,21601209,10601109,20210819,0,20900819,-4101170,0,0,20101409,0,0,0,0,21511619,0,41101919,40201809,11100809,20410019,0,41610709,30910709,0,22011519,31511719
25,94,401.826192392036,1,0,595185.983844197,595187.03085889,4,0,1,7,3,23420939,30711419,21000209,0,0,0,0,0,0,0,-3120030,0,20300909,0,0,0,0,0,0,0,0,30711419,0,21000209,0,0,0,0,0,0,0,0,0,0,0,0,0,0,0,0
25,95,450.786485918798,0,0,595188.536709549,595189.583803545,4,0,0,19,31,228541531,237964803,190028363,237767422,11000609,40011719,10301609,10800109,41701519,21211419,40101909,41900819,11511819,30310809,31010419,41610519,41710819,0,41410309,41411009,10500919,0,-2061080,31610009,21011609,40500319,31410819,10011109,31811909,0,21611509,10101819,40911919,20510009,0,32010919,41311409,21010819,41700509,30210019
25,96,499.311001738533,0,0,595191.101354752,595192.148401397,4,1,0,18,0,0,0,0,0,0,0,0,0,0,0,0,0,0,0,0,0,0,0,0,0,0,-11110891,0,0,0,0,0,0,0,0,0,0,0,0,0,0,0,0,0,0
25,97,601.77068086341,1,0,595193.818937835,595194.865971776,4,1,1,31,9,40600519,143822756,102403957,23332029,40600519,0,0,0,0,0,0,0,0,0,0,20610719,0,42001619,0,40300109,40910309,0,0,41201219,30401919,0,0,0,0,30800819,0,0,0,0,-3130020,20202009,0,0,0,0
25,98,404.654896468855,0,0,595196.618909425,595197.665907179,4,1,0,16,3,111424547,2190010,0,0,30410709,0,40102019,0,0,40911819,0,0,0,0,0,0,0,0,0,-2190010,0,0,0,0,0,0,0,0,0,0,0,0,0,0,0,0,0,0,0,0
25,99,999.140463536605,0,0,595199.136461017,595200.183495344,4,1,0,36,19,95513147,95935166,166146474,170695825,31700919,0,21810609,0,0,42001619,0,0,0,0,10800719,0,11911919,0,0,41511309,31711219,0,10411219,41310609,31600609,0,0,11300309,0,30111709,41412019,30710819,30212019,0,21700509,11200109,41011409,31810909,0,-4050051
25,100,1286.88487608451,0,0,595202.218755594,595203.26578453,4,0,0,30,31,167736512,287989721,196456293,221896454,10300819,20500609,11200719,21210509,11410109,42001719,10510909,0,40601119,10011019,30411619,41611009,40411819,11210409,41010209,31400509,40511319,41411809,21511619,42000909,0,0,20112009,21300519,40110209,30010219,21410809,30501919,20910019,-3160041,21600419,41810619,40111209,42000609,0,21801619
25,101,598.631697124802,1,0,595205.60691361,595206.653932153,4,0,1,29,3,0,0,21712019,24093178,0,0,0,0,0,0,0,0,0,0,0,0,0,0,0,0,0,0,0,0,21712019,0,0,0,0,0,0,0,-2091150,0,11001119,0,0,0,11000909,0
25,102,408.727029222064,1,0,595208.300963938,595209.347996725,4,0,1,23,3,40110419,31001909,4060071,20001119,0,40110419,0,0,0,0,0,0,0,31001909,0,0,0,0,0,0,0,0,0,0,0,0,-4060071,0,0,0,0,0,0,0,0,0,0,20001119,0,0
25,103,420.203914516605,1,0,595210.9361947,595211.983227487,4,0,1,3,19,77476047,114714165,90834227,187509123,20111809,11810809,-2040091,0,0,0,21611519,21901819,0,0,20200819,11501009,0,30600719,0,11710009,40701609,0,30210909,0,0,0,0,0,40511309,0,20112009,11101919,41501209,0,30101519,21200719,41102019,0,10901719,31600019
25,104,593.846614006907,1,0,595213.606728828,595214.653752375,4,1,1,33,19,63321328,112827875,189727583,123995056,31710809,31610519,0,0,0,0,0,0,0,20001219,0,0,11412009,0,0,30511419,30801409,20101819,0,11900509,10701509,0,31600819,30800109,31212009,41810719,31701909,10201809,40001609,0,0,0,-2060001,30810219,20210509,20710909
25,105,469.780917861499,0,0,595221.006554286,595222.053583223,5,0,0,29,3,50522618,0,20911719,2171131,0,0,0,0,20411709,30110909,0,0,0,0,0,0,0,0,0,0,0,0,0,20911719,0,0,0,0,0,0,0,0,-2171131,0,0,0,0,0,0,0
25,106,775.111569673754,0,1,595223.571203724,595224.618233816,5,1,1,2,31,221000823,208246002,197244512,187859203,30001909,-4061031,20700219,21101809,32000809,21311309,20601619,40110609,31111509,11210619,11901309,41810709,40001009,0,21400609,40310819,20600009,21010919,10510709,21600009,41400019,0,10810219,10500019,31400009,30611809,40411719,41310419,0,0,31611109,31502019,10610709,11911719,40101309,20811919
25,107,530.461392831057,1,0,595226.582898113,595227.62992166,5,0,1,3,9,95015447,30000909,72324137,41301218,0,0,-2201200,0,40011619,41801209,0,11001419,0,0,0,0,0,30000909,0,0,0,0,0,21500409,0,0,0,20111819,30711909,0,0,0,0,0,0,20400709,0,20900509,0,0
25,108,698.750419542193,0,0,595229.347612147,595230.394584495,5,0,0,10,19,155735374,85233328,174630113,93711837,21310209,40810219,0,0,0,31801309,10301809,21001309,30510519,-2020101,21400909,31411709,0,30400609,0,0,0,0,30701619,40211719,0,11001419,20101809,10811709,21201719,40600119,0,0,0,0,0,0,40601009,31200609,21910219,0
25,109,1254.02833160479,1,0,595232.147459394,595233.194544151,5,1,1,33,19,63321328,112827875,189727583,123995056,31710809,31610519,0,0,0,0,0,0,0,20001219,0,0,11412009,0,0,30511419,30801409,20101819,0,11900509,10701509,0,31600819,30800109,31212009,41810719,31701909,10201809,40001609,0,0,0,-2060001,30810219,20210509,20710909
25,110,827.155412407592,0,0,595235.500134162,595236.547358765,5,1,0,4,9,13751060,122604766,10110309,74503737,0,0,0,-3041051,10710009,0,0,0,0,0,0,41302009,0,30200719,0,40500119,0,10601919,0,0,0,0,0,10110309,0,0,0,10702019,0,0,0,31801709,32000009,0,0,0
25,111,561.990586807951,1,0,595238.441484854,595239.488516871,5,0,1,30,9,51310928,75224046,52921518,35111870,0,0,20700219,0,0,0,0,30610709,0,0,21101909,21900409,20310419,0,0,0,0,11911309,0,11511209,41410309,0,0,0,0,0,0,0,0,-3200161,31911709,0,0,0,0,0
25,112,467.275582253933,0,0,595241.100231432,595242.147253439,5,1,0,14,9,20211619,25441599,73812037,113824666,0,0,0,0,0,0,0,0,20211619,0,0,0,21301419,-4140180,0,0,0,0,0,0,0,21601009,11710009,0,0,40501019,0,0,30211319,11001219,30601609,42010519,0,0,0,0
25,113,617.417864268646,0,1,595243.817785642,595244.864826128,5,0,1,23,31,187836402,177759073,261847973,258368632,30100209,10910109,21200819,0,31310719,11910009,41302009,10700809,30401719,20501209,31810909,41712009,11610419,10910809,40711909,0,20501809,0,30111909,41500809,41911119,31800809,-4200071,40400209,11511809,20401019,40010219,41610919,30812019,10611009,40510419,0,21300809,40711119,41601219,31211119
25,114,1089.50154285412,0,0,595246.511908344,595247.558883771,5,1,0,36,19,95513147,95935166,166146474,170695825,31700919,0,21810609,0,0,42001619,0,0,0,0,10800719,0,11911919,0,0,41511309,31711219,0,10411219,41310609,31600609,0,0,11300309,0,30111709,41412019,30710819,30212019,0,21700509,11200109,41011409,31810909,0,-4050051
25,115,596.366578130983,0,1,595249.74708652,595250.794098518,5,0,1,28,3,21110219,10301419,0,24330880,0,0,0,21110219,0,0,0,0,0,10301419,0,0,0,0,0,0,0,0,0,0,0,0,0,0,0,0,0,-4030071,0,0,0,0,0,0,0,20300809
25,116,901.239509694278,1,0,595252.441127609,595253.488156161,5,1,1,1,31,159947765,190130912,257948012,259532931,-2031091,31811319,0,0,21101209,30501319,41601109,22000409,10901309,30601109,21701819,11201119,11911109,41510809,41601519,0,11401519,20201909,40011119,40811709,0,21000519,21911209,31310219,40301219,31401009,31201009,10401719,40011109,40111619,21700809,22001709,31501119,21801819,40901919,31101109
25,117,767.255256185308,1,0,595255.535180863,595256.58220826,5,0,1,17,19,156434494,107854187,115422746,134414595,0,11311019,41800109,11401119,30210609,40101319,0,21610319,0,0,30810919,41900609,20600509,0,11401109,0,-3141041,0,0,41200809,0,0,31000509,11911419,0,0,31310009,10301119,20600319,41201219,0,40801719,0,0,21510219,0
25,118,980.569875217043,0,0,595258.499813979,595259.5468433,5,0,0,19,0,0,0,0,0,0,0,0,0,0,0,0,0,0,0,0,0,0,0,0,0,0,0,-10611391,0,0,0,0,0,0,0,0,0,0,0,0,0,0,0,0,0
25,119,1019.97424592264,0,0,595261.676196841,595262.723229627,5,0,0,19,31,258949161,217827413,200994013,179638692,31500419,41310809,20801819,21311419,20400019,31010219,30312019,30901519,31400919,41300419,0,0,41300409,21010519,40801619,11511119,41802009,20101319,-3050120,0,40610309,21711419,21900609,20800119,41801109,20510119,30610209,30501409,31210109,11611319,11100409,10500809,42001409,0,21902019,20811209
25,120,750.480132759549,0,0,595264.746713106,595265.793764756,5,0,0,7,19,145137556,154125655,84925376,124024975,0,0,21311709,21011509,0,20801209,-1201001,40511709,40300419,0,40001709,11301309,40711509,0,21200919,0,40910209,0,0,21501019,0,40511919,0,11510719,11401719,0,0,10201019,0,0,11210219,31901209,40501919,0,0,30210609
25,121,490.763295791112,0,0,595267.652552062,595268.69957407,5,1,0,16,3,111424547,2190010,0,0,30410709,0,40102019,0,0,40911819,0,0,0,0,0,0,0,0,0,-2190010,0,0,0,0,0,0,0,0,0,0,0,0,0,0,0,0,0,0,0,0
25,122,728.04798616562,1,0,595270.216990983,595271.264212729,5,1,1,12,31,158870202,108725474,201057822,287836521,40301809,0,10510209,21711519,21601209,10611119,11812019,11711909,30610409,30511319,10110419,-2171070,21710619,0,21200819,11810319,0,11210909,21801709,10010319,11700419,21910309,11911019,40711819,41201209,41811019,0,31300809,30111319,40210509,41000219,30600709,21301309,40600919,31000709,21710019
25,123,530.770902638324,1,0,595273.205479779,595274.252383988,5,1,1,18,0,0,0,0,0,0,0,0,0,0,0,0,0,0,0,0,0,0,0,0,0,0,-11110891,0,0,0,0,0,0,0,0,0,0,0,0,0,0,0,0,0,0
25,124,754.26046398934,0,0,595275.969992478,595277.017037968,5,0,0,32,3,0,0,73733247,4180140,0,0,0,0,0,0,0,0,0,0,0,0,0,0,0,0,0,0,0,21210519,0,10911809,0,41610919,0,0,0,0,0,0,0,-4180140,0,0,0,0
25,125,683.125948882662,1,0,595278.86408623,595279.91108206,5,0,1,24,31,224254512,239438292,209745443,206656583,20501309,31210209,40000719,0,10510119,20510109,40810209,20511019,40200819,31600009,21301409,20600619,41901409,21810309,0,40201819,40511209,21511509,30211419,11410109,30110009,40400619,22000919,-2201121,20800119,31400609,21210519,11001309,30911509,0,31210119,30311009,21300009,0,41012019,40910609
25,126,908.428298309445,0,0,595281.663975438,595282.722771907,5,1,0,31,9,40600519,143822756,102403957,23332029,40600519,0,0,0,0,0,0,0,0,0,0,20610719,0,42001619,0,40300109,40910309,0,0,41201219,30401919,0,0,0,0,30800819,0,0,0,0,-3130020,20202009,0,0,0,0
25,127,753.408927004784,1,0,595284.781550667,595285.828589998,5,0,1,26,9,31100709,71911438,47993558,92424827,31100709,0,0,0,0,0,0,0,0,0,0,0,0,0,0,30810919,0,41100519,10301319,0,0,0,0,11810809,0,-4071111,21810319,0,0,0,21711309,0,0,0,40712009,30001509
25,128,523.155960487202,1,0,595287.616795596,595288.663826842,5,1,1,9,3,22342619,0,61512018,0,0,0,0,0,0,21211509,0,0,-1131110,0,0,0,0,0,0,0,0,0,0,0,30100109,0,0,0,0,0,31411909,0,0,0,0,0,0,0,0,0
25,129,761.123959440738,0,0,595290.263791195,595291.310821287,5,1,0,27,3,30510019,0,4181190,41903628,30510019,0,0,0,0,0,0,0,0,0,0,0,0,0,0,0,0,0,0,0,0,0,0,0,0,0,-4181190,0,31901709,0,0,10001919,0,0,0,0
25,130,480.49018799793,0,0,595293.122551939,595294.169581646,5,1,0,13,19,175316675,149036845,74503956,115331166,0,41611519,20101809,0,40401319,31700109,0,41501919,0,31201719,0,21211509,-1000161,31512019,0,32000009,21710119,10401309,12000209,40501009,0,0,10901519,0,0,0,11101219,0,0,0,21010419,12010119,0,41110309,41200319,0
25,131,521.336243138649,0,0,595302.663498854,595303.710534721,6,1,0,1,31,159947765,190130912,257948012,259532931,-2031091,31811319,0,0,21101209,30501319,41601109,22000409,10901309,30601109,21701819,11201119,11911109,41510809,41601519,0,11401519,20201909,40011119,40811709,0,21000519,21911209,31310219,40301219,31401009,31201009,10401719,40011109,40111619,21700809,22001709,31501119,21801819,40901919,31101109
25,132,410.973669961095,0,0,595305.334037602,595306.381113889,6,0,0,14,0,0,0,0,0,0,0,0,0,0,0,0,0,0,0,0,0,0,-40799991,0,0,0,0,0,0,0,0,0,0,0,0,0,0,0,0,0,0,0,0,0,0
25,133,648.95437262021,1,0,595307.98103705,595309.028057903,6,0,1,30,9,0,75232747,41612728,107795356,0,0,0,0,0,0,0,0,0,0,21811219,0,0,11810719,41610809,0,0,0,30610819,0,0,0,0,11001909,0,0,0,21801409,31511409,-2070120,41210809,0,0,0,0,11201609
25,134,435.073473840021,0,0,595310.780964755,595311.827990227,6,1,0,2,31,221000823,208246002,197244512,187859203,30001909,-4061031,20700219,21101809,32000809,21311309,20601619,40110609,31111509,11210619,11901309,41810709,40001009,0,21400609,40310819,20600009,21010919,10510709,21600009,41400019,0,10810219,10500019,31400009,30611809,40411719,41310419,0,0,31611109,31502019,10610709,11911719,40101309,20811919
25,135,432.886502123438,0,0,595313.427962663,595314.47499699,6,1,0,18,0,0,0,0,0,0,0,0,0,0,0,0,0,0,0,0,0,0,0,0,0,0,-11110891,0,0,0,0,0,0,0,0,0,0,0,0,0,0,0,0,0,0
25,136,627.837642794475,0,0,595316.016152555,595317.063172637,6,1,0,12,31,158870202,108725474,201057822,287836521,40301809,0,10510209,21711519,21601209,10611119,11812019,11711909,30610409,30511319,10110419,-2171070,21710619,0,21200819,11810319,0,11210909,21801709,10010319,11700419,21910309,11911019,40711819,41201209,41811019,0,31300809,30111319,40210509,41000219,30600709,21301309,40600919,31000709,21710019
25,137,713.239250937477,1,0,595318.780787672,595319.827809679,6,1,1,13,19,175316675,149036845,74503956,115331166,0,41611519,20101809,0,40401319,31700109,0,41501919,0,31201719,0,21211509,-1000161,31512019,0,32000009,21710119,10401309,12000209,40501009,0,0,10901519,0,0,0,11101219,0,0,0,21010419,12010119,0,41110309,41200319,0
25,138,636.160530732013,0,0,595321.733660569,595322.780682577,6,1,0,36,19,95513147,95935166,166146474,170695825,31700919,0,21810609,0,0,42001619,0,0,0,0,10800719,0,11911919,0,0,41511309,31711219,0,10411219,41310609,31600609,0,0,11300309,0,30111709,41412019,30710819,30212019,0,21700509,11200109,41011409,31810909,0,-4050051
25,139,432.969654095359,0,1,595324.474770632,595325.521794949,6,0,1,7,19,116982787,155734165,136326884,124924566,31210219,30900219,0,0,41811309,0,-1151021,11910019,0,42001419,0,30800019,32010709,40211709,0,0,10710309,0,21301119,40600109,11001009,0,0,10911009,0,32001819,20511819,41210419,31601319,0,10510919,0,0,0,41601909,0
25,140,808.234508265741,1,0,595327.133537997,595328.180562315,6,1,1,27,3,30510019,0,4181190,41903628,30510019,0,0,0,0,0,0,0,0,0,0,0,0,0,0,0,0,0,0,0,0,0,0,0,0,0,-4181190,0,31901709,0,0,10001919,0,0,0,0
25,141,613.931259489618,1,0,595330.015819947,595331.062844264,6,1,1,14,9,20211619,25441599,73812037,113824666,0,0,0,0,0,0,0,0,20211619,0,0,0,21301419,-4140180,0,0,0,0,0,0,0,21601009,11710009,0,0,40501019,0,0,30211319,11001219,30601609,42010519,0,0,0,0
25,142,802.144017536193,0,0,595332.874580691,595333.921609243,6,0,0,19,31,236749482,188636491,177167553,187426783,0,40611509,11801409,30711909,31601009,41300119,20000409,40012009,20711109,10000809,11801709,31510009,20201209,40300409,12000109,21510309,31110809,10201119,-2001070,21511309,10610609,40711119,20011709,0,31610519,40401009,10310209,11711809,40910209,0,21900109,21700319,30201009,40002009,0,21001319
25,143,559.845576179214,0,0,595335.898037993,595336.9450677,6,0,0,32,31,227740112,125968293,163751991,196947444,0,20400519,41310909,31201809,30001419,42001419,22011519,20201509,20611009,10600009,10512019,10711519,10810609,31111919,41811209,0,10411009,0,10410609,10201709,12001609,20301109,30211909,20101109,10011719,30300309,20211909,21300319,21201419,30301319,22010719,-1111131,0,40610109,40110609,20301819
25,144,621.653221081942,1,0,595338.592090246,595339.639125342,6,0,1,24,3,11601309,0,34661370,10300819,0,0,0,0,0,0,0,11601309,0,0,0,0,0,0,0,0,0,0,30500319,0,0,0,0,-4161051,0,0,0,0,10300819,0,0,0,0,0,0,0
25,145,690.534936031327,1,0,595341.286150199,595342.33317875,6,0,1,28,3,0,0,62812618,24021899,0,0,0,0,0,0,0,0,0,0,0,0,0,0,0,0,0,0,31600609,0,0,0,0,0,0,0,31212009,-2011180,0,0,0,0,0,22010719,0,0
25,146,472.628099960275,1,0,595344.227251715,595345.274282576,6,0,1,29,9,65802936,11201709,72001428,83462698,21301209,0,11600309,0,0,0,0,11100609,21800809,0,11201709,0,0,0,0,0,0,0,0,0,0,30100109,41901319,0,0,0,0,0,-2161060,40000719,0,0,0,0,0,41300919
25,147,629.447940737009,1,0,595346.874259633,595347.921286645,6,1,1,9,3,22342619,0,61512018,0,0,0,0,0,0,21211509,0,0,-1131110,0,0,0,0,0,0,0,0,0,0,0,30100109,0,0,0,0,0,31411909,0,0,0,0,0,0,0,0,0
25,148,533.194626215845,1,0,595349.662424039,595350.709456826,6,1,1,16,3,111424547,2190010,0,0,30410709,0,40102019,0,0,40911819,0,0,0,0,0,0,0,0,0,-2190010,0,0,0,0,0,0,0,0,0,0,0,0,0,0,0,0,0,0,0,0
25,149,564.015489188023,0,0,595352.403535257,595353.450567658,6,1,0,4,9,13751060,122604766,10110309,74503737,0,0,0,-3041051,10710009,0,0,0,0,0,0,41302009,0,30200719,0,40500119,0,10601919,0,0,0,0,0,10110309,0,0,0,10702019,0,0,0,31801709,32000009,0,0,0
25,150,979.412678163499,0,1,595355.168178843,595356.215216249,6,0,1,26,31,305829231,217950132,139497515,247539502,40300009,41201719,20111219,21511109,40701019,40301319,40301919,30000309,31400609,11911609,31401919,41000919,30311119,40611009,10602019,11811519,0,40300019,0,10410919,11401019,31701109,31100719,0,11011019,-3161021,40711709,41311609,30201609,40901919,41810509,11101019,40910819,21101709,20200309,0
25,151,850.310903275386,0,0,595358.356330777,595359.403371647,6,0,0,3,3,3111080,0,31721428,30300819,0,0,-3111080,0,0,0,0,0,0,0,0,0,0,0,0,0,0,0,11210919,0,20510509,0,0,0,0,0,0,0,0,0,0,0,0,0,30300819,0
25,152,464.18317896314,1,0,595361.450387111,595362.497420667,6,0,1,10,19,164447784,107732988,83526376,148714884,30111319,21011209,41401309,0,0,0,30010909,21212019,20701019,-4010141,0,41610919,40500819,0,21611109,0,0,0,10911719,0,30301019,30401919,0,11911719,0,0,0,0,31001219,12001609,0,41800609,21500719,10610009,0,31800719
25,153,551.536161801778,0,0,595364.109151782,595365.156177639,6,0,0,17,19,93333766,127135535,84335146,126034694,0,20001019,41111519,0,21310909,10910319,0,0,0,30901219,0,11110709,0,30110919,0,41610119,-3091060,10311509,0,0,21501709,0,0,40710319,11012009,11111109,0,0,0,11111019,10111319,0,11110619,21601009,40600319,31500409
25,154,835.51525673829,1,0,595366.862026296,595367.909056388,6,1,1,33,19,63321328,112827875,189727583,123995056,31710809,31610519,0,0,0,0,0,0,0,20001219,0,0,11412009,0,0,30511419,30801409,20101819,0,11900509,10701509,0,31600819,30800109,31212009,41810719,31701909,10201809,40001609,0,0,0,-2060001,30810219,20210509,20710909
25,155,906.307155266404,0,0,595369.944308939,595370.991337875,6,0,0,23,9,31600509,72523337,64183278,93212347,31600509,0,0,0,0,0,0,0,0,0,41811109,0,0,10711709,20000519,0,0,0,40211919,0,0,20910309,-3061050,0,0,0,0,0,30300319,0,41401509,0,0,0,0,21510519
25,156,674.927403684706,0,0,595373.02659851,595374.073619748,6,1,0,31,9,40600519,143822756,102403957,23332029,40600519,0,0,0,0,0,0,0,0,0,0,20610719,0,42001619,0,40300109,40910309,0,0,41201219,30401919,0,0,0,0,30800819,0,0,0,0,-3130020,20202009,0,0,0,0
25,157,704.519851598889,0,0,595387.249790111,595388.296828287,7,0,0,28,9,103731537,62723637,41412009,81922858,0,0,40211109,0,0,21910219,0,41610209,0,0,0,0,20211819,0,0,21801809,20710009,0,41412009,0,0,0,0,0,0,0,0,-1110130,40411519,0,0,0,40401209,0,0,0
25,158,797.933298163116,0,0,595390.214478276,595391.261456783,7,0,0,19,9,71822728,63502328,56311568,113213547,41711419,0,0,0,0,0,30111309,0,0,42000709,0,0,0,21501619,0,0,0,0,-3200040,0,0,31201509,0,0,0,0,21910019,0,41401619,0,0,0,31211509,0,40600419,0
25,159,647.543485159986,0,0,595393.190854286,595394.237864359,7,0,0,10,19,114422756,158739974,113733565,95522736,0,0,40400419,22001309,0,40610109,0,0,11410919,-1001080,0,10310619,41702019,0,11611409,31701119,41211719,21202009,0,12011819,0,30100209,30110219,10300909,31210409,0,0,31000909,0,0,0,32010909,0,0,11410309,21100609
25,160,696.267026709393,1,0,595395.920183342,595396.967212279,7,0,1,23,0,0,0,0,0,0,0,0,0,0,0,0,0,0,0,0,0,0,0,0,0,0,0,0,0,0,0,-10401701,0,0,0,0,0,0,0,0,0,0,0,0,0
25,161,653.80836406257,0,0,595398.802472221,595399.849495769,7,0,0,7,3,4201200,0,43312028,20600819,0,0,0,0,0,0,-4201200,0,0,0,0,0,0,0,0,0,0,0,0,0,31600019,0,0,0,0,11712009,0,0,0,0,0,20600819,0,0,0,0
25,162,1070.06517401896,1,0,595401.555351355,595402.602375673,7,1,1,31,9,40600519,143822756,102403957,23332029,40600519,0,0,0,0,0,0,0,0,0,0,20610719,0,42001619,0,40300109,40910309,0,0,41201219,30401919,0,0,0,0,30800819,0,0,0,0,-3130020,20202009,0,0,0,0
25,163,1362.12771036662,0,0,595404.80232786,595405.849361032,7,0,0,32,31,207667512,258531821,249229611,187232925,12001519,30111609,30610309,40301119,0,21010919,31210509,11410719,31010809,42001609,30402009,31501919,20200919,20200819,20800809,30911619,21211809,41300309,20501809,31000219,40910109,30701419,11301519,31401709,10310909,32000609,41101309,31810209,41610209,0,40610519,-2091160,40110019,31000809,0,0
25,164,631.713059730828,0,0,595408.237624528,595409.284620358,7,1,0,4,9,13751060,122604766,10110309,74503737,0,0,0,-3041051,10710009,0,0,0,0,0,0,41302009,0,30200719,0,40500119,0,10601919,0,0,0,0,0,10110309,0,0,0,10702019,0,0,0,31801709,32000009,0,0,0
25,165,804.654742474668,0,1,595411.084544597,595412.131607796,7,0,1,3,19,187771674,10301519,114533165,137033804,11201109,40411809,-2111191,20900709,31512019,30411719,40311109,0,10912009,10301519,0,0,0,0,0,0,0,0,21101009,10610119,0,0,40611809,30300119,0,0,11910109,10600419,41710309,40500419,21910719,10811619,0,0,0,11500319
25,166,723.035775241442,0,0,595414.096235907,595415.143259069,7,0,0,26,31,239159132,245348392,211762414,208647602,31500419,41711719,20301309,0,11911819,41210119,41702019,30510619,20311109,40111919,20010719,40310909,40711209,31600009,30500509,10201809,31901309,0,41801919,30211809,41601809,41112009,11800909,31811109,11301709,-2121141,0,0,40311409,10910019,31510619,21501709,20100509,30711209,31601619,22000509
25,167,790.722181787714,1,0,595416.91969675,595417.966726842,7,1,1,18,0,0,0,0,0,0,0,0,0,0,0,0,0,0,0,0,0,0,0,0,0,0,-11110891,0,0,0,0,0,0,0,0,0,0,0,0,0,0,0,0,0,0
25,168,1131.59025670029,1,0,595419.872573112,595420.919601664,7,1,1,27,3,30510019,0,4181190,41903628,30510019,0,0,0,0,0,0,0,0,0,0,0,0,0,0,0,0,0,0,0,0,0,0,0,0,0,-4181190,0,31901709,0,0,10001919,0,0,0,0
25,169,836.354089900851,1,0,595423.213706041,595424.260814665,7,1,1,36,19,95513147,95935166,166146474,170695825,31700919,0,21810609,0,0,42001619,0,0,0,0,10800719,0,11911919,0,0,41511309,31711219,0,10411219,41310609,31600609,0,0,11300309,0,30111709,41412019,30710819,30212019,0,21700509,11200109,41011409,31810909,0,-4050051
25,170,588.056008797139,1,0,595426.131244391,595427.178267169,7,1,1,1,31,159947765,190130912,257948012,259532931,-2031091,31811319,0,0,21101209,30501319,41601109,22000409,10901309,30601109,21701819,11201119,11911109,41510809,41601519,0,11401519,20201909,40011119,40811709,0,21000519,21911209,31310219,40301219,31401009,31201009,10401719,40011109,40111619,21700809,22001709,31501119,21801819,40901919,31101109
25,171,667.610037489794,0,0,595428.954704849,595430.00174495,7,1,0,33,19,63321328,112827875,189727583,123995056,31710809,31610519,0,0,0,0,0,0,0,20001219,0,0,11412009,0,0,30511419,30801409,20101819,0,11900509,10701509,0,31600819,30800109,31212009,41810719,31701909,10201809,40001609,0,0,0,-2060001,30810219,20210509,20710909
25,172,475.253543932922,0,0,595431.742885425,595432.789912437,7,0,0,24,3,10101909,0,3110121,52111918,10101909,0,0,0,0,0,0,0,0,0,0,0,0,0,0,0,0,0,0,0,0,0,0,-3110121,0,0,0,0,0,0,31011009,21100909,0,0,0,0
25,173,557.668613502756,1,0,595434.413468057,595435.460468892,7,0,1,23,3,0,31601609,76152819,0,0,0,0,0,0,0,0,0,0,0,0,0,0,0,0,0,0,31601609,0,0,41210809,0,-3130101,0,0,0,31811909,0,0,0,0,0,0,0,0,0
25,174,505.848819040693,0,0,595437.166329868,595438.213330703,7,1,0,9,3,22342619,0,61512018,0,0,0,0,0,0,21211509,0,0,-1131110,0,0,0,0,0,0,0,0,0,0,0,30100109,0,0,0,0,0,31411909,0,0,0,0,0,0,0,0,0
25,175,466.753188171424,0,0,595439.766230702,595440.813304294,7,1,0,16,3,111424547,2190010,0,0,30410709,0,40102019,0,0,40911819,0,0,0,0,0,0,0,0,0,-2190010,0,0,0,0,0,0,0,0,0,0,0,0,0,0,0,0,0,0,0,0
25,176,755.390713689849,1,0,595442.330877445,595443.377897143,7,1,1,14,9,20211619,25441599,73812037,113824666,0,0,0,0,0,0,0,0,20211619,0,0,0,21301419,-4140180,0,0,0,0,0,0,0,21601009,11710009,0,0,40501019,0,0,30211319,11001219,30601609,42010519,0,0,0,0
25,177,548.310946323909,0,0,595445.283746493,595446.330773505,7,0,0,29,9,61401438,94531447,92822627,43052239,20601319,0,0,0,0,0,0,40800119,0,31710619,0,0,41010709,0,0,21810119,0,0,0,31900109,0,20911809,0,0,0,40010709,0,0,-1041020,0,0,0,0,42011219,0,0
25,178,954.577981028706,1,0,595447.989564738,595449.036590211,7,1,1,2,31,221000823,208246002,197244512,187859203,30001909,-4061031,20700219,21101809,32000809,21311309,20601619,40110609,31111509,11210619,11901309,41810709,40001009,0,21400609,40310819,20600009,21010919,10510709,21600009,41400019,0,10810219,10500019,31400009,30611809,40411719,41310419,0,0,31611109,31502019,10610709,11911719,40101309,20811919
25,179,486.744672758505,1,0,595451.189492289,595452.236520455,7,0,1,17,19,51322028,128485926,188925504,166044684,0,0,20010419,0,0,0,0,31311609,0,31311219,31010819,0,20310919,21210709,0,21611209,-3031051,0,0,0,31310319,31800519,11301019,41301419,41611509,31600719,0,30100209,40510109,41810719,21111119,0,21501109,0,11011419,0
25,180,636.223664623685,0,0,595453.824717661,595454.871748523,7,1,0,12,31,158870202,108725474,201057822,287836521,40301809,0,10510209,21711519,21601209,10611119,11812019,11711909,30610409,30511319,10110419,-2171070,21710619,0,21200819,11810319,0,11210909,21801709,10010319,11700419,21910309,11911019,40711819,41201209,41811019,0,31300809,30111319,40210509,41000219,30600709,21301309,40600919,31000709,21710019
25,181,583.350227912888,1,0,595456.530544376,595457.577572157,7,1,1,13,19,175316675,149036845,74503956,115331166,0,41611519,20101809,0,40401319,31700109,0,41501919,0,31201719,0,21211509,-1000161,31512019,0,32000009,21710119,10401309,12000209,40501009,0,0,10901519,0,0,0,11101219,0,0,0,21010419,12010119,0,41110309,41200319,0
25,182,677.820396493189,1,0,595459.236407661,595460.283393098,7,0,1,30,31,146215773,178660922,257725431,187415784,0,10800309,20400209,30201009,41000409,21410309,0,11101809,11301719,10511409,31211519,21210819,42001809,11601019,40110919,10211819,0,11801609,30100909,41300519,40500019,31011319,41501619,31200309,10800409,20010219,11300109,32010119,21710509,-1060081,40010619,0,40501519,10910909,10801309,30410719
25,183,416.395096108317,1,0,595467.859686879,595468.906720821,8,1,1,9,3,22342619,0,61512018,0,0,0,0,0,0,21211509,0,0,-1131110,0,0,0,0,0,0,0,0,0,0,0,30100109,0,0,0,0,0,31411909,0,0,0,0,0,0,0,0,0
25,184,387.665348942392,1,0,595470.330255346,595471.377251946,8,1,1,14,9,20211619,25441599,73812037,113824666,0,0,0,0,0,0,0,0,20211619,0,0,0,21301419,-4140180,0,0,0,0,0,0,0,21601009,11710009,0,0,40501019,0,0,30211319,11001219,30601609,42010519,0,0,0,0
25,185,742.805521469563,0,0,595472.977247095,595474.02424716,8,0,0,26,9,51913028,41113328,64492198,82412357,0,0,0,20901109,0,31011919,0,0,0,0,0,0,20902019,0,0,0,20211309,0,0,0,20910709,0,0,0,41511419,-2070070,0,0,0,0,40310019,0,0,0,31900519,10201819
25,186,760.062617948279,0,0,595475.84773957,595476.894766582,8,0,0,3,31,151653503,247058521,158166193,268049172,20610119,0,-2030200,41800319,11601009,30600519,11411009,21700009,11900319,20801309,20211709,41701319,11411109,40110119,21610619,40500009,20701619,30010709,0,21910919,31711019,41210719,21201709,20111309,10810109,0,11210409,20702009,41111309,0,30110609,40210809,41302009,11301009,42000409,41311009
25,187,553.97412891034,1,0,595478.682976414,595479.729998422,8,0,1,29,3,0,72404847,0,4171121,0,0,0,0,0,0,0,0,0,0,0,0,0,0,11701419,40501419,0,20202009,0,0,0,0,0,0,0,0,0,0,-4171121,0,0,0,0,0,0,0
25,188,791.929039056413,1,0,595481.435840535,595482.482874476,8,1,1,18,0,0,0,0,0,0,0,0,0,0,0,0,0,0,0,0,0,0,0,0,0,0,-11110891,0,0,0,0,0,0,0,0,0,0,0,0,0,0,0,0,0,0
25,189,1033.70547119994,1,0,595484.365189148,595485.412221934,8,1,1,33,19,63321328,112827875,189727583,123995056,31710809,31610519,0,0,0,0,0,0,0,20001219,0,0,11412009,0,0,30511419,30801409,20101819,0,11900509,10701509,0,31600819,30800109,31212009,41810719,31701909,10201809,40001609,0,0,0,-2060001,30810219,20210509,20710909
25,190,572.252145735547,0,0,595487.482759372,595488.529791774,8,0,0,24,3,10801019,0,43301349,11401909,0,0,0,10801019,0,0,0,0,0,0,0,0,0,0,0,0,0,0,0,0,0,0,41211209,-2090140,0,0,0,0,0,0,0,0,0,0,11401909,0
25,191,575.075075263157,1,0,595490.176828179,595491.223845952,8,1,1,12,31,158870202,108725474,201057822,287836521,40301809,0,10510209,21711519,21601209,10611119,11812019,11711909,30610409,30511319,10110419,-2171070,21710619,0,21200819,11810319,0,11210909,21801709,10010319,11700419,21910309,11911019,40711819,41201209,41811019,0,31300809,30111319,40210509,41000219,30600709,21301309,40600919,31000709,21710019
25,192,900.182017823681,0,0,595492.835586691,595493.882606773,8,0,0,7,31,178938984,240878522,189626993,209545311,0,10610019,11600009,32011709,20411509,40501509,-1201091,31701519,30901619,21701719,30910419,40911009,0,11811509,42010419,40611019,11310809,41611619,21800319,21300109,30911809,0,21600619,41410519,0,41801909,10801709,22000409,21911309,21010109,30710519,40900009,20301409,11000509,21611019,20100019
25,193,958.252062555403,1,0,595495.976684665,595497.023713602,8,0,1,30,9,92812047,11301719,72822237,42441139,0,0,0,0,21901319,40600119,30310609,0,0,0,11301719,0,0,0,0,0,0,0,11610409,0,0,21210419,0,0,40001409,0,0,0,10200619,-1030011,0,0,0,0,31210509,0
25,194,540.989730623551,1,0,595499.117788799,595500.164809267,8,1,1,27,3,30510019,0,4181190,41903628,30510019,0,0,0,0,0,0,0,0,0,0,0,0,0,0,0,0,0,0,0,0,0,0,0,0,0,-4181190,0,31901709,0,0,10001919,0,0,0,0
25,195,510.823303717189,1,0,595501.811847982,595502.858871144,8,1,1,36,19,95513147,95935166,166146474,170695825,31700919,0,21810609,0,0,42001619,0,0,0,0,10800719,0,11911919,0,0,41511309,31711219,0,10411219,41310609,31600609,0,0,11300309,0,30111709,41412019,30710819,30212019,0,21700509,11200109,41011409,31810909,0,-4050051
25,196,717.354114633054,1,0,595504.435314291,595505.482342843,8,0,1,23,3,0,82713318,3110120,21411409,0,0,0,0,0,0,0,0,0,0,0,0,0,0,40811509,41901809,0,0,0,0,0,0,-3110120,0,0,0,0,0,0,0,0,0,0,0,21411409,0
25,197,619.546321686357,0,0,595507.294057712,595508.341093578,8,1,0,4,9,13751060,122604766,10110309,74503737,0,0,0,-3041051,10710009,0,0,0,0,0,0,41302009,0,30200719,0,40500119,0,10601919,0,0,0,0,0,10110309,0,0,0,10702019,0,0,0,31801709,32000009,0,0,0
25,198,878.089408273809,1,0,595510.164587143,595511.211618775,8,1,1,1,31,159947765,190130912,257948012,259532931,-2031091,31811319,0,0,21101209,30501319,41601109,22000409,10901309,30601109,21701819,11201119,11911109,41510809,41601519,0,11401519,20201909,40011119,40811709,0,21000519,21911209,31310219,40301219,31401009,31201009,10401719,40011109,40111619,21700809,22001709,31501119,21801819,40901919,31101109
25,199,564.665690762922,0,0,595513.1880456,595514.235074922,8,0,0,32,9,41911518,51012638,82932247,67341918,0,31310009,0,0,0,10601509,0,0,0,0,0,0,10611319,0,40401319,0,0,0,31210309,0,0,0,0,21110719,30611219,0,0,0,0,0,0,-4031100,0,0,31800409,31510409
25,200,717.592021333985,0,0,595515.882100548,595516.929135644,8,1,0,16,3,111424547,2190010,0,0,30410709,0,40102019,0,0,40911819,0,0,0,0,0,0,0,0,0,-2190010,0,0,0,0,0,0,0,0,0,0,0,0,0,0,0,0,0,0,0,0
25,201,681.402471964248,0,0,595518.776151184,595519.823181276,8,0,0,28,31,196656002,226356902,195637493,217564632,20011509,0,31000609,20300619,41100209,20310119,11410819,21111309,31410809,10200109,30400709,21010919,40501919,41111409,11310409,31711409,0,40110019,0,0,40500509,40710709,10511519,10501709,30000919,31500709,31911419,-1030020,11011019,42000009,31200509,10111309,40400019,31111009,20300619,30400119
25,202,511.889264686033,0,0,595521.599620111,595522.646647508,8,0,0,10,19,193024304,172187884,84224455,72711628,40900119,20210419,40301119,20800719,0,0,30701909,40110019,0,-4161020,21400209,21401909,0,21911109,41210909,21201509,0,40901219,0,11210709,0,0,0,11400609,31000809,10211919,20400409,0,31110919,0,41600709,0,0,0,0,0
25,203,783.950692391954,0,0,595524.246609551,595525.293634253,8,1,0,13,19,175316675,149036845,74503956,115331166,0,41611519,20101809,0,40401319,31700109,0,41501919,0,31201719,0,21211509,-1000161,31512019,0,32000009,21710119,10401309,12000209,40501009,0,0,10901519,0,0,0,11101219,0,0,0,21010419,12010119,0,41110309,41200319,0
25,204,481.452979031019,0,0,595527.164274554,595528.211224573,8,0,0,17,19,63235237,168027613,66422866,115245755,31811919,0,0,10012009,21411309,0,0,0,0,10010519,21501119,0,21211019,41900509,10200509,31311819,-1081010,30811109,20911519,0,0,21700619,0,11900509,11910219,0,0,0,21801519,0,0,30810509,0,41010609,10211409,11411709
25,205,508.363778702915,0,0,595529.811191236,595530.858222482,8,0,0,19,19,137334375,115455165,139002665,64334056,20901919,0,0,31711309,0,0,31600309,11810719,41310119,10910719,0,30810819,21211309,20610509,0,31911809,0,0,-3170180,0,31000109,31800919,21010219,11110119,0,0,40911119,20500319,0,11411709,20610119,0,0,0,11811909,0
25,206,670.548455906101,1,0,595532.411132875,595533.458155268,8,1,1,2,31,221000823,208246002,197244512,187859203,30001909,-4061031,20700219,21101809,32000809,21311309,20601619,40110609,31111509,11210619,11901309,41810709,40001009,0,21400609,40310819,20600009,21010919,10510709,21600009,41400019,0,10810219,10500019,31400009,30611809,40411719,41310419,0,0,31611109,31502019,10610709,11911719,40101309,20811919
25,207,1223.77297841012,0,0,595535.281716971,595536.328759767,8,0,0,36,0,0,0,0,0,0,0,0,0,0,0,0,0,0,0,0,0,0,0,0,0,0,0,0,0,0,0,0,0,0,0,0,0,0,0,0,0,0,0,0,-31501691
25,208,683.574430178851,1,0,595538.563927934,595539.610951481,8,1,1,31,9,40600519,143822756,102403957,23332029,40600519,0,0,0,0,0,0,0,0,0,0,20610719,0,42001619,0,40300109,40910309,0,0,41201219,30401919,0,0,0,0,30800819,0,0,0,0,-3130020,20202009,0,0,0,0
25,209,466.088358080015,0,0,595544.775547178,595545.82257111,9,1,0,31,9,40600519,143822756,102403957,23332029,40600519,0,0,0,0,0,0,0,0,0,0,20610719,0,42001619,0,40300109,40910309,0,0,41201219,30401919,0,0,0,0,30800819,0,0,0,0,-3130020,20202009,0,0,0,0
25,210,703.11127405148,0,0,595547.481365808,595548.528392435,9,0,0,24,19,156546094,113245365,179647345,71303418,11311419,0,0,31010709,0,30501119,22010019,30312009,31400819,11210819,0,20301209,0,0,30511509,20011619,31210209,0,30400119,0,41712019,30700109,11901719,-2011161,31711509,0,31210709,0,0,0,30101509,41201909,0,0,0,0
25,211,475.616948329844,0,0,595550.257774232,595551.304804709,9,0,0,17,9,134714546,4000061,74222037,72222118,0,0,0,30711309,31801609,30800809,41400819,0,0,0,0,0,0,0,0,0,-4000061,0,31511509,0,21110309,0,21600219,0,0,0,0,40210709,0,0,32011409,0,0,0,0,0
25,212,702.274365816265,1,0,595552.881245931,595553.928275253,9,0,1,19,31,165350492,247059611,170328212,126118264,0,20501509,30201209,20401809,20111719,10810009,11511909,41700719,10111609,30201219,41501409,20010619,30212009,21001809,30510109,21711209,20200419,31710809,-2080100,40311509,11810819,21701609,11011109,21810319,20400709,10901419,30300619,41802009,10900509,0,0,10001519,10001309,41512009,0,11900909
25,213,489.909834112041,1,0,595555.810614562,595556.857609622,9,0,1,10,9,53222218,66353789,62213638,104832337,0,0,0,41911209,11311009,0,0,0,0,-4041161,0,21311909,41000719,0,0,0,0,0,0,0,0,0,0,31012019,31201619,0,0,32010819,32010809,0,0,0,0,0,40810709,0
25,214,445.895922952332,0,0,595558.457593992,595559.504607916,9,0,0,26,3,0,62310218,3120020,20901119,0,0,0,0,0,0,0,0,0,0,0,30400009,0,0,0,31910209,0,0,0,0,0,0,0,0,0,-3120020,0,0,0,0,0,0,0,0,0,20901119
25,215,683.656812063418,0,0,595561.139877174,595562.186903416,9,1,0,12,31,158870202,108725474,201057822,287836521,40301809,0,10510209,21711519,21601209,10611119,11812019,11711909,30610409,30511319,10110419,-2171070,21710619,0,21200819,11810319,0,11210909,21801709,10010319,11700419,21910309,11911019,40711819,41201209,41811019,0,31300809,30111319,40210509,41000219,30600709,21301309,40600919,31000709,21710019
25,216,554.962327471003,0,0,595564.057452095,595565.104543781,9,1,0,2,31,221000823,208246002,197244512,187859203,30001909,-4061031,20700219,21101809,32000809,21311309,20601619,40110609,31111509,11210619,11901309,41810709,40001009,0,21400609,40310819,20600009,21010919,10510709,21600009,41400019,0,10810219,10500019,31400009,30611809,40411719,41310419,0,0,31611109,31502019,10610709,11911719,40101309,20811919
25,217,698.333120206371,1,0,595566.822096067,595567.869123464,9,1,1,33,19,63321328,112827875,189727583,123995056,31710809,31610519,0,0,0,0,0,0,0,20001219,0,0,11412009,0,0,30511419,30801409,20101819,0,11900509,10701509,0,31600819,30800109,31212009,41810719,31701909,10201809,40001609,0,0,0,-2060001,30810219,20210509,20710909
25,218,601.643643225543,0,0,595569.586738113,595570.6337632,9,1,0,36,19,95513147,95935166,166146474,170695825,31700919,0,21810609,0,0,42001619,0,0,0,0,10800719,0,11911919,0,0,41511309,31711219,0,10411219,41310609,31600609,0,0,11300309,0,30111709,41412019,30710819,30212019,0,21700509,11200109,41011409,31810909,0,-4050051
25,219,693.518779939041,1,0,595572.280790366,595573.32785549,9,1,1,14,9,20211619,25441599,73812037,113824666,0,0,0,0,0,0,0,0,20211619,0,0,0,21301419,-4140180,0,0,0,0,0,0,0,21601009,11710009,0,0,40501019,0,0,30211319,11001219,30601609,42010519,0,0,0,0
25,220,888.230473850854,1,0,595575.163074626,595576.210107027,9,0,1,23,3,0,0,14011940,62211818,0,0,0,0,0,0,0,0,0,0,0,0,0,0,0,0,0,0,0,11900819,0,0,-2111121,0,0,0,0,0,41110909,0,0,0,21100909,0,0,0
25,221,539.05798913911,0,0,595578.245361888,595579.29239044,9,0,0,28,31,149548912,229229722,196856312,148994403,31310319,11610609,11200819,11202019,11811919,21201409,40911609,0,10300209,22011119,40701719,21001509,41001409,12000819,40411419,10800609,41301119,0,10701119,20410319,21510019,40601309,31112009,20310019,0,10601009,41610509,-1171090,10500409,21300009,0,21810219,10200719,41210719,30901119,11900119
25,222,458.089608349837,0,0,595580.857062205,595581.904093837,9,0,0,32,3,40110109,0,61801738,4070151,40110109,0,0,0,0,0,0,0,0,0,0,0,0,0,0,0,0,0,0,31500419,30301319,0,0,0,0,0,0,0,0,0,0,-4070151,0,0,0,0
25,223,613.077027839608,0,0,595583.504083597,595584.551086741,9,0,0,20,0,0,0,0,0,0,0,0,0,0,0,0,0,0,0,0,0,0,0,0,0,0,0,0,-30811291,0,0,0,0,0,0,0,0,0,0,0,0,0,0,0,0
25,224,629.887567716651,1,0,595586.233437291,595587.280430812,9,1,1,16,3,111424547,2190010,0,0,30410709,0,40102019,0,0,40911819,0,0,0,0,0,0,0,0,0,-2190010,0,0,0,0,0,0,0,0,0,0,0,0,0,0,0,0,0,0,0,0
25,225,531.053849961609,1,0,595589.092161079,595590.139186936,9,0,1,7,19,137822936,113437185,155442174,104934136,21711209,31701009,0,0,41400219,0,-1200190,0,41810309,10901419,11110019,20402019,0,0,0,40911909,30111819,0,20410409,21110219,40310009,31300309,0,20610309,0,0,21700919,0,0,11911109,31611009,0,20301809,41110209,0,0
25,226,445.596037316136,1,0,595591.868571813,595592.915595745,9,1,1,13,19,175316675,149036845,74503956,115331166,0,41611519,20101809,0,40401319,31700109,0,41501919,0,31201719,0,21211509,-1000161,31512019,0,32000009,21710119,10401309,12000209,40501009,0,0,10901519,0,0,0,11101219,0,0,0,21010419,12010119,0,41110309,41200319,0
25,227,752.461534459144,0,0,595594.562621371,595595.609646843,9,0,0,30,9,123954485,41812718,51801928,2120200,21410119,0,0,21610319,0,30011319,20912009,0,30010719,0,0,0,11001809,30810909,0,0,0,0,0,0,0,0,11300509,0,40501419,0,0,0,0,-2120200,0,0,0,0,0,0
25,228,504.638497019187,1,0,595597.468445314,595598.515464242,9,0,1,29,31,125746903,297231231,189428912,199968993,20710409,11511309,21600419,20511019,0,0,10001519,21101809,20310419,21301519,30111419,40001519,40202019,41401109,30201009,31901109,30810109,31301419,20910619,0,21600819,10801519,31600609,21601409,40100809,10901609,31911519,0,-3120000,32011719,21301609,40510609,40300509,10902009,30511319,21311219
25,229,554.188937880099,1,0,595600.091907004,595601.138934016,9,1,1,1,31,159947765,190130912,257948012,259532931,-2031091,31811319,0,0,21101209,30501319,41601109,22000409,10901309,30601109,21701819,11201119,11911109,41510809,41601519,0,11401519,20201909,40011119,40811709,0,21000519,21911209,31310219,40301219,31401009,31201009,10401719,40011109,40111619,21700809,22001709,31501119,21801819,40901919,31101109
25,230,654.751137131825,1,0,595602.868321202,595603.915335125,9,1,1,18,0,0,0,0,0,0,0,0,0,0,0,0,0,0,0,0,0,0,0,0,0,0,-11110891,0,0,0,0,0,0,0,0,0,0,0,0,0,0,0,0,0,0
25,231,582.043280475773,1,0,595605.621183013,595606.668217339,9,1,1,27,3,30510019,0,4181190,41903628,30510019,0,0,0,0,0,0,0,0,0,0,0,0,0,0,0,0,0,0,0,0,0,0,0,0,0,-4181190,0,31901709,0,0,10001919,0,0,0,0
25,232,507.202731911093,0,0,595608.432885948,595609.479921429,9,0,0,3,19,120364756,195848603,72904257,62923666,31110509,41900419,-4030191,10610719,0,0,21301009,11411909,0,0,40311819,41101309,41311119,20310619,11710109,10901819,30201809,0,21201419,0,10601819,0,0,0,41101019,0,0,0,0,30501419,11210819,0,0,0,10500519,10710909
25,233,643.54642026592,0,0,595611.197528764,595612.244585419,9,1,0,9,3,22342619,0,61512018,0,0,0,0,0,0,21211509,0,0,-1131110,0,0,0,0,0,0,0,0,0,0,0,30100109,0,0,0,0,0,31411909,0,0,0,0,0,0,0,0,0
25,234,866.757653770037,1,0,595614.009263652,595615.056252167,9,1,1,4,9,13751060,122604766,10110309,74503737,0,0,0,-3041051,10710009,0,0,0,0,0,0,41302009,0,30200719,0,40500119,0,10601919,0,0,0,0,0,10110309,0,0,0,10702019,0,0,0,31801709,32000009,0,0,0
25,235,552.315710694529,1,0,595620.326718311,595621.373751097,10,1,1,36,19,95513147,95935166,166146474,170695825,31700919,0,21810609,0,0,42001619,0,0,0,0,10800719,0,11911919,0,0,41511309,31711219,0,10411219,41310609,31600609,0,0,11300309,0,30111709,41412019,30710819,30212019,0,21700509,11200109,41011409,31810909,0,-4050051
25,236,511.854618089274,1,0,595622.950206948,595623.997223566,10,0,1,32,9,21401319,60802038,30601509,95067265,0,0,0,0,21401319,0,0,0,0,0,0,0,30501719,30300319,0,0,0,0,0,0,0,0,0,0,0,30601509,0,10501419,0,0,30001809,-1060100,10801919,0,21301909,21400109
25,237,739.614952821285,1,0,595625.632482815,595626.679509057,10,1,1,9,3,22342619,0,61512018,0,0,0,0,0,0,21211509,0,0,-1131110,0,0,0,0,0,0,0,0,0,0,0,30100109,0,0,0,0,0,31411909,0,0,0,0,0,0,0,0,0
25,238,824.54228727147,0,0,595628.585348784,595629.63238542,10,1,0,12,31,158870202,108725474,201057822,287836521,40301809,0,10510209,21711519,21601209,10611119,11812019,11711909,30610409,30511319,10110419,-2171070,21710619,0,21200819,11810319,0,11210909,21801709,10010319,11700419,21910309,11911019,40711819,41201209,41811019,0,31300809,30111319,40210509,41000219,30600709,21301309,40600919,31000709,21710019
25,239,682.839921675622,1,0,595631.585283725,595632.632309197,10,0,1,29,3,21610509,21401409,40610619,4190000,0,21610509,0,0,0,0,0,0,0,0,0,0,21401409,0,0,0,0,0,40610619,0,0,0,0,0,0,0,0,0,-4190000,0,0,0,0,0,0,0
25,240,575.427700881846,0,0,595634.361680985,595635.408719546,10,1,0,1,31,159947765,190130912,257948012,259532931,-2031091,31811319,0,0,21101209,30501319,41601109,22000409,10901309,30601109,21701819,11201119,11911109,41510809,41601519,0,11401519,20201909,40011119,40811709,0,21000519,21911209,31310219,40301219,31401009,31201009,10401719,40011109,40111619,21700809,22001709,31501119,21801819,40901919,31101109
25,241,434.639621176757,1,0,595637.173387385,595638.220416322,10,0,1,10,19,73915146,88581677,124736574,197634284,0,0,12000309,10601919,31211309,0,0,20101609,0,-4060040,0,0,42010219,0,10600809,31910609,0,0,10901109,0,31111109,30401919,21810709,20110919,0,10400809,0,31610709,20310019,0,0,41400819,41700019,0,30910709,31702009
25,242,509.327724575996,0,0,595639.761572271,595640.808597359,10,0,0,7,19,137016565,114904566,85524636,145846704,21710109,30710819,21711009,0,0,0,-1161100,20012009,41711519,21200619,0,41300309,21501819,0,0,0,30901819,0,0,21610809,31701109,0,0,21711609,0,10501109,0,0,21310309,41210619,21001819,10610519,31001519,0,20711919,0
25,243,386.167460121214,0,0,595642.349722127,595643.396763382,10,1,0,13,19,175316675,149036845,74503956,115331166,0,41611519,20101809,0,40401319,31700109,0,41501919,0,31201719,0,21211509,-1000161,31512019,0,32000009,21710119,10401309,12000209,40501009,0,0,10901519,0,0,0,11101219,0,0,0,21010419,12010119,0,41110309,41200319,0
25,244,437.645792961121,1,0,595644.82027096,595645.867296432,10,0,1,24,31,188690631,188637513,229395203,230036283,31110209,20611809,20011519,21700419,11111719,21211119,10910309,10611819,41411709,0,11601619,10311209,41700919,21911419,40701709,0,40700119,21710519,30511109,30210019,21500019,11501619,30510509,-2050191,41701309,40900419,20510009,31811009,30701419,41511109,0,0,31811319,41800609,30900309,21500509
25,245,326.934058917686,0,0,595647.384913853,595648.431940865,10,1,0,27,3,30510019,0,4181190,41903628,30510019,0,0,0,0,0,0,0,0,0,0,0,0,0,0,0,0,0,0,0,0,0,0,0,0,0,-4181190,0,31901709,0,0,10001919,0,0,0,0
25,246,370.115681085736,1,0,595649.796628491,595650.843650114,10,0,1,23,3,21800509,20800719,43831620,0,0,0,0,0,0,0,0,0,21800509,0,20800719,0,0,0,0,0,0,0,0,0,0,0,-3120011,0,40711609,0,0,0,0,0,0,0,0,0,0,0
25,247,482.799577643164,0,0,595652.325972254,595653.373023518,10,1,0,18,0,0,0,0,0,0,0,0,0,0,0,0,0,0,0,0,0,0,0,0,0,0,-11110891,0,0,0,0,0,0,0,0,0,0,0,0,0,0,0,0,0,0
25,248,449.394846567884,1,0,595655.055324408,595656.102354115,10,0,1,30,9,133424466,40102019,42020738,85963248,30801919,0,41811219,0,40300419,0,20510909,0,0,0,0,0,0,40102019,0,0,0,0,0,0,21310219,20710519,0,0,0,0,0,0,0,-3161120,0,41400519,0,0,0,41401609
25,249,424.617893877439,0,0,595657.66702588,595658.714108712,10,0,0,28,19,136134075,83613037,175826984,145863845,32001319,31001319,30710609,0,0,0,11810819,0,30610009,41400009,21311609,20901419,0,0,0,0,0,0,0,0,30201809,22011119,40810209,0,40101619,21000309,21701919,-1030160,0,0,0,40412019,22010019,41710419,10201219,30500009
25,250,341.348977643065,1,0,595660.243440155,595661.290461393,10,1,1,16,3,111424547,2190010,0,0,30410709,0,40102019,0,0,40911819,0,0,0,0,0,0,0,0,0,-2190010,0,0,0,0,0,0,0,0,0,0,0,0,0,0,0,0,0,0,0,0
25,251,381.957510835491,0,1,595662.725730728,595663.772754275,10,0,1,19,9,32611018,45314347,75862838,31702818,0,0,0,0,0,0,11010709,21600309,0,0,0,11902009,0,0,22011119,0,0,11401219,-3150200,0,0,0,0,0,31301319,41411319,0,0,0,21001709,0,10701109,0,0,0,0
25,252,563.431501272134,0,0,595665.290374006,595666.337396014,10,0,0,3,31,179690703,157754893,159170721,167037213,10011719,31910609,-2141061,10211119,31901219,40011919,10901919,22000219,20600919,42010519,10310709,30010609,32010819,0,21501319,11410209,0,10500709,10311609,31700709,11611309,11311819,20311019,21301009,10311819,31200709,11110719,0,31110509,0,10811319,31401209,31302019,21510119,20301619,20600419
25,253,639.605559757911,0,0,595667.949140602,595668.99616415,10,0,0,26,31,249259112,207438302,270584112,157018903,20111109,41611719,20100319,41411709,31100219,42001019,11811509,41111509,0,40601119,30110409,30811719,0,11310509,20501509,32001519,20400809,21700709,31700309,40200819,40100109,32010119,10600809,41910009,30400509,-3060020,40601409,31400819,11311619,20300519,21401109,30701109,0,30501809,11401919,0
25,254,548.737484845333,1,0,595670.796133045,595671.843158517,10,0,1,35,0,0,0,0,0,0,0,0,0,0,0,0,0,0,0,0,0,0,0,0,0,0,0,0,0,0,0,0,0,0,0,0,0,0,0,0,0,0,0,-41410591,0
25,255,510.808675200678,0,0,595673.596067293,595674.643090455,10,1,0,4,9,13751060,122604766,10110309,74503737,0,0,0,-3041051,10710009,0,0,0,0,0,0,41302009,0,30200719,0,40500119,0,10601919,0,0,0,0,0,10110309,0,0,0,10702019,0,0,0,31801709,32000009,0,0,0
25,256,559.346664696932,0,0,595676.184231007,595677.231268028,10,1,0,2,31,221000823,208246002,197244512,187859203,30001909,-4061031,20700219,21101809,32000809,21311309,20601619,40110609,31111509,11210619,11901309,41810709,40001009,0,21400609,40310819,20600009,21010919,10510709,21600009,41400019,0,10810219,10500019,31400009,30611809,40411719,41310419,0,0,31611109,31502019,10610709,11911719,40101309,20811919
25,257,774.467527517118,0,0,595678.925352618,595679.972377705,10,1,0,33,19,63321328,112827875,189727583,123995056,31710809,31610519,0,0,0,0,0,0,0,20001219,0,0,11412009,0,0,30511419,30801409,20101819,0,11900509,10701509,0,31600819,30800109,31212009,41810719,31701909,10201809,40001609,0,0,0,-2060001,30810219,20210509,20710909
25,258,546.108961221762,0,0,595681.866460294,595682.913486536,10,1,0,14,9,20211619,25441599,73812037,113824666,0,0,0,0,0,0,0,0,20211619,0,0,0,21301419,-4140180,0,0,0,0,0,0,0,21601009,11710009,0,0,40501019,0,0,30211319,11001219,30601609,42010519,0,0,0,0
25,259,764.865024480969,1,0,595684.48996356,595685.53695554,10,1,1,31,9,40600519,143822756,102403957,23332029,40600519,0,0,0,0,0,0,0,0,0,0,20610719,0,42001619,0,40300109,40910309,0,0,41201219,30401919,0,0,0,0,30800819,0,0,0,0,-3130020,20202009,0,0,0,0
25,260,416.286536608823,1,0,595687.513388139,595688.560415921,10,0,1,17,3,40800119,4141100,40700219,31501119,0,0,0,0,0,0,0,40800119,0,0,0,0,0,0,0,0,-4141100,0,0,0,0,0,40700219,0,0,0,0,0,0,0,0,0,0,0,0,31501119
25,261,728.176563628949,0,0,595703.948285986,595704.995326086,11,0,0,10,9,20511209,76284378,85113127,73033357,0,20511209,0,0,0,0,0,0,0,-4081150,0,0,0,0,0,0,41501519,30701709,41810809,0,0,0,0,0,21901809,21400509,0,0,0,40810019,0,0,0,11911419,0,20311919
25,262,507.789414725266,0,0,595706.818841979,595707.865846663,11,1,0,16,3,111424547,2190010,0,0,30410709,0,40102019,0,0,40911819,0,0,0,0,0,0,0,0,0,-2190010,0,0,0,0,0,0,0,0,0,0,0,0,0,0,0,0,0,0,0,0
25,263,729.652894777246,1,0,595709.46581756,595710.512846882,11,1,1,13,19,175316675,149036845,74503956,115331166,0,41611519,20101809,0,40401319,31700109,0,41501919,0,31201719,0,21211509,-1000161,31512019,0,32000009,21710119,10401309,12000209,40501009,0,0,10901519,0,0,0,11101219,0,0,0,21010419,12010119,0,41110309,41200319,0
25,264,593.182938639075,1,0,595712.430446056,595713.477478073,11,1,1,2,31,221000823,208246002,197244512,187859203,30001909,-4061031,20700219,21101809,32000809,21311309,20601619,40110609,31111509,11210619,11901309,41810709,40001009,0,21400609,40310819,20600009,21010919,10510709,21600009,41400019,0,10810219,10500019,31400009,30611809,40411719,41310419,0,0,31611109,31502019,10610709,11911719,40101309,20811919
25,265,714.404532220215,1,0,595715.089209187,595716.136235044,11,0,1,19,19,144623346,177225263,113984936,75324946,41401009,0,0,0,0,40900809,31911509,30410019,0,31600009,31800709,11200909,0,0,31510909,40201609,20510209,10400909,-1071070,21000719,40000509,11211219,40701419,0,0,0,0,20211309,21801509,12010109,0,21302019,0,0,0,0
25,266,443.0880069267,0,0,595718.030322637,595719.077343105,11,0,0,23,19,95616365,63011137,116905665,145145514,0,0,11800919,30800709,0,31312009,0,11701019,10001709,0,31410109,0,0,0,0,10601019,0,21000009,21600919,0,10000619,21811309,-2180190,0,21311819,0,40000809,0,0,40001219,20210019,10810619,11810819,21910819,40402019,0
25,267,1114.93370169774,1,0,595720.524381512,595721.57139813,11,1,1,36,19,95513147,95935166,166146474,170695825,31700919,0,21810609,0,0,42001619,0,0,0,0,10800719,0,11911919,0,0,41511309,31711219,0,10411219,41310609,31600609,0,0,11300309,0,30111709,41412019,30710819,30212019,0,21700509,11200109,41011409,31810909,0,-4050051
25,268,1054.81373192742,1,0,595723.759601649,595724.806625966,11,1,1,31,9,40600519,143822756,102403957,23332029,40600519,0,0,0,0,0,0,0,0,0,0,20610719,0,42001619,0,40300109,40910309,0,0,41201219,30401919,0,0,0,0,30800819,0,0,0,0,-3130020,20202009,0,0,0,0
25,269,427.348817465827,0,0,595726.888735156,595727.935965263,11,1,0,9,3,22342619,0,61512018,0,0,0,0,0,0,21211509,0,0,-1131110,0,0,0,0,0,0,0,0,0,0,0,30100109,0,0,0,0,0,31411909,0,0,0,0,0,0,0,0,0
25,270,463.596111163497,0,0,595729.535935005,595730.582956242,11,0,0,26,3,41701409,0,1201181,32611418,0,0,0,0,41701409,0,0,0,0,0,0,0,0,0,0,0,0,0,0,0,0,0,0,0,0,-1201181,0,0,0,10700909,0,0,0,21910509,0,0
25,271,542.39099402912,1,0,595732.13586548,595733.182893647,11,0,1,30,3,0,82713218,0,33151160,0,0,0,0,0,0,0,0,0,0,0,42011209,0,0,0,0,40702009,0,0,0,0,0,0,0,0,0,0,0,0,-3041041,0,30110119,0,0,0,0
25,272,619.558255537413,1,0,595734.888747694,595735.935775476,11,0,1,3,31,183229254,146838892,230436592,218059912,31401109,21610409,-2191071,31311919,11611809,31901009,21700219,31501709,0,31101819,10210109,10400409,30910419,11500809,21302009,20311409,11101909,0,20501309,22000909,21700809,11010709,41600019,41011309,41110609,0,31500919,20110219,0,31311809,21811619,20500009,31311809,20800819,31412019,40801609
25,273,1434.02830080595,1,0,595737.712212772,595738.759237089,11,1,1,14,9,20211619,25441599,73812037,113824666,0,0,0,0,0,0,0,0,20211619,0,0,0,21301419,-4140180,0,0,0,0,0,0,0,21601009,11710009,0,0,40501019,0,0,30211319,11001219,30601609,42010519,0,0,0,0
25,274,681.827470543794,0,0,595741.288596635,595742.335626727,11,0,0,28,31,248269941,188447211,234950422,126254076,41210819,11910409,20611219,10610819,10701709,31011209,40200719,41601019,40412019,11400519,10401809,10701109,10410909,31100619,11900709,30610609,41810419,30110509,0,40011619,30310819,31401809,30701619,10201909,41310809,30301719,20710119,-1111121,40511409,0,20200809,21810309,0,21010019,21610409,0
25,275,1235.89352087583,1,0,595744.041478464,595745.088505476,11,0,1,7,31,232218104,207547413,308078531,216458602,20701219,41710919,31700319,0,40610109,30910309,-3071201,42002009,21512019,40911419,31110419,41000109,31000119,21801819,20411609,0,0,21311919,41312009,40911119,40000509,31710209,40200119,20610309,41311819,40410719,11611719,0,20900509,21510519,31011509,21011509,30311609,40700819,20410719,30601409
25,276,572.369174216874,0,0,595747.370791506,595748.417829297,11,0,0,24,9,42731557,80213047,62833069,21411519,0,10610219,0,0,21910519,0,10210819,0,0,0,20010119,40101919,0,0,0,0,0,20101009,0,40000619,0,20701419,0,-2131031,0,0,0,0,0,0,21411519,0,0,0,0,0
25,277,606.024515815079,0,0,595749.994272059,595751.041299071,11,1,0,4,9,13751060,122604766,10110309,74503737,0,0,0,-3041051,10710009,0,0,0,0,0,0,41302009,0,30200719,0,40500119,0,10601919,0,0,0,0,0,10110309,0,0,0,10702019,0,0,0,31801709,32000009,0,0,0
25,278,1168.84461219888,0,0,595752.676564095,595753.723590722,11,0,0,32,3,0,51712728,0,42050189,0,0,0,0,0,0,0,0,0,0,0,20701019,0,31011709,0,0,0,0,0,0,0,0,0,0,0,0,0,0,0,0,41010019,-1040170,0,0,0,0
25,279,637.293475330807,0,0,595756.005896,595757.052926862,11,1,0,18,0,0,0,0,0,0,0,0,0,0,0,0,0,0,0,0,0,0,0,0,0,0,-11110891,0,0,0,0,0,0,0,0,0,0,0,0,0,0,0,0,0,0
25,280,466.759732575156,1,0,595758.876423122,595759.923449364,11,0,1,29,9,83315457,31310719,41912028,93133657,21701819,0,0,0,30201919,0,31411719,0,0,0,0,31310719,0,0,0,0,0,0,0,0,0,0,0,0,21710409,20201619,0,0,-1120010,20300819,0,31401409,0,0,0,40311419
25,281,458.560032537207,1,0,595761.464596074,595762.511621547,11,0,1,17,19,94024166,105763117,167128483,92215356,11501719,20100319,0,41611809,0,0,0,20810319,0,0,0,10410909,30401009,0,41510109,0,-2030181,21410909,30901809,31101409,10200419,11501909,0,41010809,31800709,10611419,0,0,0,0,31011019,10302009,10401009,0,40501319,0
25,282,764.508164254949,0,0,595764.052767102,595765.099793345,11,1,0,12,31,158870202,108725474,201057822,287836521,40301809,0,10510209,21711519,21601209,10611119,11812019,11711909,30610409,30511319,10110419,-2171070,21710619,0,21200819,11810319,0,11210909,21801709,10010319,11700419,21910309,11911019,40711819,41201209,41811019,0,31300809,30111319,40210509,41000219,30600709,21301309,40600919,31000709,21710019
25,283,497.536709997803,0,0,595767.052695114,595768.099719432,11,1,0,1,31,159947765,190130912,257948012,259532931,-2031091,31811319,0,0,21101209,30501319,41601109,22000409,10901309,30601109,21701819,11201119,11911109,41510809,41601519,0,11401519,20201909,40011119,40811709,0,21000519,21911209,31310219,40301219,31401009,31201009,10401719,40011109,40111619,21700809,22001709,31501119,21801819,40901919,31101109
25,284,468.915137229487,0,0,595769.62910785,595770.676132552,11,1,0,27,3,30510019,0,4181190,41903628,30510019,0,0,0,0,0,0,0,0,0,0,0,0,0,0,0,0,0,0,0,0,0,0,0,0,0,-4181190,0,31901709,0,0,10001919,0,0,0,0
25,285,696.333625237457,1,0,595772.193753053,595773.24077968,11,1,1,33,19,63321328,112827875,189727583,123995056,31710809,31610519,0,0,0,0,0,0,0,20001219,0,0,11412009,0,0,30511419,30801409,20101819,0,11900509,10701509,0,31600819,30800109,31212009,41810719,31701909,10201809,40001609,0,0,0,-2060001,30810219,20210509,20710909
25,286,510.062617831863,1,0,595775.028979888,595776.076004975,11,0,1,11,0,0,0,0,0,0,0,0,0,0,0,0,0,0,0,-11701201,0,0,0,0,0,0,0,0,0,0,0,0,0,0,0,0,0,0,0,0,0,0,0,0,0
25,287,837.820026907139,1,0,595789.793336677,595790.840370619,12,1,1,9,3,22342619,0,61512018,0,0,0,0,0,0,21211509,0,0,-1131110,0,0,0,0,0,0,0,0,0,0,0,30100109,0,0,0,0,0,31411909,0,0,0,0,0,0,0,0,0
25,288,660.787733155303,0,0,595792.793318584,595793.84031249,12,1,0,16,3,111424547,2190010,0,0,30410709,0,40102019,0,0,40911819,0,0,0,0,0,0,0,0,0,-2190010,0,0,0,0,0,0,0,0,0,0,0,0,0,0,0,0,0,0,0,0
25,289,550.529100000858,0,0,595795.58144026,595796.628464962,12,1,0,31,9,40600519,143822756,102403957,23332029,40600519,0,0,0,0,0,0,0,0,0,0,20610719,0,42001619,0,40300109,40910309,0,0,41201219,30401919,0,0,0,0,30800819,0,0,0,0,-3130020,20202009,0,0,0,0
25,290,538.267661235295,0,0,595798.3578329,595799.404867226,12,0,0,26,9,92713347,53422428,25152719,42002228,30111519,0,0,0,30600809,0,0,32001019,0,0,0,0,31710409,0,0,21712019,0,0,0,0,0,0,0,11401219,0,-3141191,10610309,0,0,0,0,0,20501419,0,0,21500809
25,291,972.791324136779,1,0,595800.981315378,595802.028335461,12,1,1,1,31,159947765,190130912,257948012,259532931,-2031091,31811319,0,0,21101209,30501319,41601109,22000409,10901309,30601109,21701819,11201119,11911109,41510809,41601519,0,11401519,20201909,40011119,40811709,0,21000519,21911209,31310219,40301219,31401009,31201009,10401719,40011109,40111619,21700809,22001709,31501119,21801819,40901919,31101109
25,292,576.212254352868,0,0,595804.15770209,595805.204729102,12,0,0,24,31,221059302,227459831,179179885,237736022,10901609,41611619,11611809,31701119,31701209,40410719,0,41810409,11310809,31200919,40511809,41511709,11611519,20500909,10500419,10211719,31110519,30300309,21901409,10911519,31701409,40911609,30001719,-2151111,41601109,0,0,11801719,30410409,30400619,41600309,30500519,41011119,40810719,11200609,0
25,293,553.832462639548,1,0,595806.83999528,595807.887083887,12,1,1,13,19,175316675,149036845,74503956,115331166,0,41611519,20101809,0,40401319,31700109,0,41501919,0,31201719,0,21211509,-1000161,31512019,0,32000009,21710119,10401309,12000209,40501009,0,0,10901519,0,0,0,11101219,0,0,0,21010419,12010119,0,41110309,41200319,0
25,294,627.369913388975,1,0,595809.463467365,595810.510497071,12,0,1,7,3,14272179,0,40100809,31812019,0,0,0,0,0,0,-4061070,10211109,0,0,0,0,0,0,0,0,0,0,0,0,0,40100809,0,0,0,0,0,0,31812019,0,0,0,0,0,0,0
25,295,577.530750655569,0,0,595812.16928869,595813.216312237,12,0,0,19,19,85845266,100613966,119182076,206835873,30811319,0,11911409,0,11811619,0,0,31310919,0,0,0,0,20111219,20201319,0,20200819,40100609,0,-4050020,11010619,30310009,0,0,31811419,42000009,0,0,30911309,10510319,0,41910209,40100909,30301809,11401309,41700009,0
25,296,764.861559611745,0,0,595814.875168144,595815.922128558,12,1,0,12,31,158870202,108725474,201057822,287836521,40301809,0,10510209,21711519,21601209,10611119,11812019,11711909,30610409,30511319,10110419,-2171070,21710619,0,21200819,11810319,0,11210909,21801709,10010319,11700419,21910309,11911019,40711819,41201209,41811019,0,31300809,30111319,40210509,41000219,30600709,21301309,40600919,31000709,21710019
25,297,624.861498130485,1,0,595817.722098992,595818.769118305,12,0,1,28,31,268766031,198940031,219242002,116423315,41900519,40911509,20401419,11710009,20610509,21000309,40310019,40810919,31110819,31402019,10700119,10701319,31300109,31912019,21711909,10510909,30100519,20601109,0,21911019,41111909,31000709,31001409,11001919,40011809,21501609,21701619,-2100150,0,10210209,0,10001909,0,42000019,21010909,31100119
25,298,582.974889548495,1,0,595820.533796153,595821.580817776,12,0,1,23,9,112111737,113223266,11010140,30602009,0,30800819,0,40500209,40810709,0,0,0,0,30511219,0,0,41200209,0,0,31510019,0,10001819,0,0,10000119,0,-1010021,0,0,0,0,0,0,30602009,0,0,0,0,0,0
25,299,656.472689122893,0,0,595823.204312573,595824.251345359,12,1,0,36,19,95513147,95935166,166146474,170695825,31700919,0,21810609,0,0,42001619,0,0,0,0,10800719,0,11911919,0,0,41511309,31711219,0,10411219,41310609,31600609,0,0,11300309,0,30111709,41412019,30710819,30212019,0,21700509,11200109,41011409,31810909,0,-4050051
25,300,819.497354445048,1,0,595825.945432259,595826.992460041,12,0,1,32,31,166335884,229568341,246648291,221299064,0,41801509,20100619,20611919,0,31810419,0,10010009,42001409,20210019,31500609,11411809,30011719,11300109,41501619,31110619,40510019,12011819,30710809,30810009,30001109,11800619,40511009,40200809,11601909,20110009,30902009,30901309,41911019,41111509,0,-4150171,41601809,20610419,30801209,10211619
25,301,791.618374292739,0,0,595828.910058445,595829.957092771,12,0,0,30,3,41010819,33611138,0,3141041,0,0,41010819,0,0,0,0,0,0,21610019,0,0,0,0,0,12001119,0,0,0,0,0,0,0,0,0,0,0,0,0,-3141041,0,0,0,0,0,0
25,302,957.706955610774,0,0,595831.804114086,595832.851143793,12,0,0,10,9,63532657,42751019,40811509,83411937,11710719,0,31510319,0,0,0,0,20311619,0,-1040191,0,0,10910509,0,0,30800319,0,0,0,0,0,0,40811509,0,0,0,0,0,0,0,0,41600719,30300409,0,0,11510809
25,303,602.335035800934,1,0,595834.827577547,595835.8745984,12,0,1,29,3,0,21801419,80911628,3160101,0,0,0,0,0,0,0,0,0,0,0,0,0,0,0,0,0,21801419,0,40101009,0,0,0,0,0,0,40810619,0,-3160101,0,0,0,0,0,0,0
25,304,475.084930309094,0,0,595837.627505636,595838.674535728,12,1,0,18,0,0,0,0,0,0,0,0,0,0,0,0,0,0,0,0,0,0,0,0,0,0,-11110891,0,0,0,0,0,0,0,0,0,0,0,0,0,0,0,0,0,0
25,305,619.881239021197,0,0,595840.156905988,595841.203890269,12,1,0,2,31,221000823,208246002,197244512,187859203,30001909,-4061031,20700219,21101809,32000809,21311309,20601619,40110609,31111509,11210619,11901309,41810709,40001009,0,21400609,40310819,20600009,21010919,10510709,21600009,41400019,0,10810219,10500019,31400009,30611809,40411719,41310419,0,0,31611109,31502019,10610709,11911719,40101309,20811919
25,306,593.533639446832,0,0,595842.980321405,595844.027352267,12,1,0,27,3,30510019,0,4181190,41903628,30510019,0,0,0,0,0,0,0,0,0,0,0,0,0,0,0,0,0,0,0,0,0,0,0,0,0,-4181190,0,31901709,0,0,10001919,0,0,0,0
25,307,649.685801239684,1,0,595845.803849232,595846.850886638,12,0,1,29,0,0,0,0,0,0,0,0,0,0,0,0,0,0,0,0,0,0,0,0,0,0,0,0,0,0,0,0,0,0,0,0,0,-30411491,0,0,0,0,0,0,0
25,308,593.338463455439,0,0,595848.627248481,595849.674284347,12,1,0,33,19,63321328,112827875,189727583,123995056,31710809,31610519,0,0,0,0,0,0,0,20001219,0,0,11412009,0,0,30511419,30801409,20101819,0,11900509,10701509,0,31600819,30800109,31212009,41810719,31701909,10201809,40001609,0,0,0,-2060001,30810219,20210509,20710909
25,309,488.262579776347,1,0,595851.415414043,595852.462447984,12,0,1,17,19,165336284,117403417,165324475,73025746,20811809,31900919,0,20200509,0,0,40510919,31000209,20911919,41101709,31900419,20711019,21510219,0,0,0,-2180051,0,0,0,30110009,42011919,21000419,41900519,30301609,0,0,0,10311009,11201809,0,0,0,30811419,0,20701509
25,310,765.928675536998,1,0,595854.097711853,595855.14473463,12,1,1,14,9,20211619,25441599,73812037,113824666,0,0,0,0,0,0,0,0,20211619,0,0,0,21301419,-4140180,0,0,0,0,0,0,0,21601009,11710009,0,0,40501019,0,0,30211319,11001219,30601609,42010519,0,0,0,0
25,311,602.040154626593,1,0,595857.09763717,595858.144663797,12,1,1,4,9,13751060,122604766,10110309,74503737,0,0,0,-3041051,10710009,0,0,0,0,0,0,41302009,0,30200719,0,40500119,0,10601919,0,0,0,0,0,10110309,0,0,0,10702019,0,0,0,31801709,32000009,0,0,0
25,312,649.69542529434,1,0,595859.826982395,595860.874016336,12,0,1,3,19,45784207,104416565,151136674,146334675,0,11811919,-3060170,0,0,10900309,0,20011809,0,20011819,20501709,0,31000909,0,0,11401319,0,21500809,20011409,10201009,0,30012009,0,0,40010319,40700519,10201409,0,0,21210409,31900109,21311319,30710919,0,41201919,0
25,313,678.433641674928,1,0,595873.050196708,595874.097226415,13,1,1,2,31,221000823,208246002,197244512,187859203,30001909,-4061031,20700219,21101809,32000809,21311309,20601619,40110609,31111509,11210619,11901309,41810709,40001009,0,21400609,40310819,20600009,21010919,10510709,21600009,41400019,0,10810219,10500019,31400009,30611809,40411719,41310419,0,0,31611109,31502019,10610709,11911719,40101309,20811919
25,314,617.644607205875,1,0,595875.967809356,595877.014805571,13,1,1,31,9,40600519,143822756,102403957,23332029,40600519,0,0,0,0,0,0,0,0,0,0,20610719,0,42001619,0,40300109,40910309,0,0,41201219,30401919,0,0,0,0,30800819,0,0,0,0,-3130020,20202009,0,0,0,0
25,315,557.663223939016,1,0,595878.661832352,595879.708868218,13,0,1,7,19,108194755,102912547,104825484,84535285,11110409,11910319,30301819,31711919,0,0,-2050080,0,21110209,31211819,0,31200019,0,0,0,0,40500709,0,10711509,11310919,0,0,21901309,20700309,20101319,0,20100119,12000919,0,0,0,10210009,20711919,20711919,0,20900519
25,316,566.615525633097,1,0,595881.402950883,595882.44998136,13,1,1,36,19,95513147,95935166,166146474,170695825,31700919,0,21810609,0,0,42001619,0,0,0,0,10800719,0,11911919,0,0,41511309,31711219,0,10411219,41310609,31600609,0,0,11300309,0,30111709,41412019,30710819,30212019,0,21700509,11200109,41011409,31810909,0,-4050051
25,317,630.896939313971,0,0,595884.21464304,595885.261754744,13,0,0,24,3,0,30901319,22142239,30911209,0,0,0,0,0,0,0,0,0,0,0,0,0,0,0,0,0,30901319,0,0,0,21101119,0,-1041120,0,0,0,0,0,0,0,0,30911209,0,0,0
25,318,516.027610981837,0,0,595887.026344435,595888.073367598,13,0,0,23,31,236948902,236081731,131787245,216867712,11611809,20100619,31111909,0,20901109,40411009,41801119,30510209,40501119,31711709,10110309,41411709,20801809,10010219,30511519,40311019,10401519,40811919,11800409,40212019,11300709,10810219,-4161161,11701119,0,0,41801609,31301009,0,41711219,20410419,30510109,11311619,20511309,20001909,41110119
25,319,489.583770860918,1,0,595889.743930213,595890.790950295,13,1,1,9,3,22342619,0,61512018,0,0,0,0,0,0,21211509,0,0,-1131110,0,0,0,0,0,0,0,0,0,0,0,30100109,0,0,0,0,0,31411909,0,0,0,0,0,0,0,0,0
25,320,730.828184983693,0,0,595892.355695974,595893.402661777,13,0,0,17,9,11211219,98403798,51701328,92312327,11211219,0,0,0,0,0,0,0,0,0,0,31801019,40500309,0,0,22001319,-4101151,0,0,41000009,0,0,0,10701319,0,0,0,30211109,0,0,20500209,0,0,41601009,0,0
25,321,527.657326310873,0,0,595895.249678087,595896.296705869,13,0,0,28,3,0,101934057,0,1050140,0,0,0,0,0,0,0,0,0,31211519,0,0,0,40111119,0,0,30611419,0,0,0,0,0,0,0,0,0,0,-1050140,0,0,0,0,0,0,0,0
25,322,442.803519661538,1,0,595898.002562225,595899.049585773,13,1,1,4,9,13751060,122604766,10110309,74503737,0,0,0,-3041051,10710009,0,0,0,0,0,0,41302009,0,30200719,0,40500119,0,10601919,0,0,0,0,0,10110309,0,0,0,10702019,0,0,0,31801709,32000009,0,0,0
25,323,620.469846529886,1,0,595900.531906758,595901.578935694,13,1,1,33,19,63321328,112827875,189727583,123995056,31710809,31610519,0,0,0,0,0,0,0,20001219,0,0,11412009,0,0,30511419,30801409,20101819,0,11900509,10701509,0,31600819,30800109,31212009,41810719,31701909,10201809,40001609,0,0,0,-2060001,30810219,20210509,20710909
25,324,503.323850338347,0,0,595903.378883802,595904.425924672,13,0,0,30,0,0,0,0,0,0,0,0,0,0,0,0,0,0,0,0,0,0,0,0,0,0,0,0,0,0,0,0,0,0,0,0,0,0,-21700091,0,0,0,0,0,0
25,325,433.440078166313,0,0,595906.072954918,595907.11997731,13,1,0,27,3,30510019,0,4181190,41903628,30510019,0,0,0,0,0,0,0,0,0,0,0,0,0,0,0,0,0,0,0,0,0,0,0,0,0,-4181190,0,31901709,0,0,10001919,0,0,0,0
25,326,482.188642257825,0,0,595908.555252805,595909.602278277,13,1,0,18,0,0,0,0,0,0,0,0,0,0,0,0,0,0,0,0,0,0,0,0,0,0,-11110891,0,0,0,0,0,0,0,0,0,0,0,0,0,0,0,0,0,0
25,327,591.924881446175,0,0,595911.202241475,595912.249272336,13,0,0,29,9,72210828,53001328,10500309,116465766,0,0,0,41510519,30700309,0,0,0,0,0,0,0,41400709,0,0,0,0,11600619,0,0,0,0,0,0,0,0,10500309,0,-3141120,21201909,0,40001809,0,11410209,0,40710719
25,328,1347.1615256276,0,0,595913.955123304,595915.002150316,13,0,0,3,9,44831668,74722527,60603118,41402618,20710009,20011609,-4110050,0,0,0,0,0,0,0,0,0,20900909,31911209,21910409,0,0,0,0,0,0,0,30101709,0,0,30501409,0,20002009,21400609,0,0,0,0,0,0,0
25,329,413.608353002928,0,0,595917.472685675,595918.519710377,13,1,0,16,3,111424547,2190010,0,0,30410709,0,40102019,0,0,40911819,0,0,0,0,0,0,0,0,0,-2190010,0,0,0,0,0,0,0,0,0,0,0,0,0,0,0,0,0,0,0,0
25,330,667.504172888584,0,0,595920.072620771,595921.119647783,13,1,0,12,31,158870202,108725474,201057822,287836521,40301809,0,10510209,21711519,21601209,10611119,11812019,11711909,30610409,30511319,10110419,-2171070,21710619,0,21200819,11810319,0,11210909,21801709,10010319,11700419,21910309,11911019,40711819,41201209,41811019,0,31300809,30111319,40210509,41000219,30600709,21301309,40600919,31000709,21710019
25,331,517.376519273967,0,0,595922.860793646,595923.907823353,13,0,0,30,31,191045301,198227722,156625894,251290392,10300109,31810409,31900409,11500319,31311509,10001309,10910109,31300019,22011109,40800319,11402019,31611319,11501609,40100219,10600309,30610709,0,21601219,21601009,30111519,21600109,0,0,40301219,11310019,31702019,0,42001009,20002009,-2081090,41500809,30800709,31401319,31801719,41301619,10400109
25,332,633.26022378169,1,0,595925.55484436,595926.601870217,13,1,1,1,31,159947765,190130912,257948012,259532931,-2031091,31811319,0,0,21101209,30501319,41601109,22000409,10901309,30601109,21701819,11201119,11911109,41510809,41601519,0,11401519,20201909,40011119,40811709,0,21000519,21911209,31310219,40301219,31401009,31201009,10401719,40011109,40111619,21700809,22001709,31501119,21801819,40901919,31101109
25,333,516.963454661891,0,0,595928.425372636,595929.472395029,13,0,0,19,19,157745603,144812746,107244146,106932066,0,0,11410009,41410019,31000909,30410319,11501719,21210609,10802019,41300619,0,31300309,0,42010309,0,30201509,0,0,-3021110,30600409,0,0,0,21210509,21201909,31210209,0,11610519,0,0,11700809,0,0,0,41710219,41910519
25,334,991.577106295154,1,0,595931.060596469,595932.107624251,13,0,1,26,3,11210419,0,22161309,41901319,0,0,0,0,0,11210419,0,0,0,0,0,0,0,0,0,0,0,0,0,0,0,0,21000109,0,0,-1161200,0,0,0,41901319,0,0,0,0,0,0
25,335,627.704445738345,1,0,595934.119355981,595935.166439198,13,0,1,32,31,177419702,164949502,218949213,201541213,30401609,40201009,11401609,0,10801509,20901319,11100909,20910219,31701519,21101309,20700809,0,20201709,40710219,10310909,30101419,11411309,10411819,31410419,30811119,21511709,30902019,0,21102019,0,41501319,41710609,42001909,10701509,20500419,22001809,-2110001,11711719,30511109,31101019,30901719
25,336,702.846804866567,1,0,595936.825168067,595937.872189305,13,1,1,14,9,20211619,25441599,73812037,113824666,0,0,0,0,0,0,0,0,20211619,0,0,0,21301419,-4140180,0,0,0,0,0,0,0,21601009,11710009,0,0,40501019,0,0,30211319,11001219,30601609,42010519,0,0,0,0
25,337,735.594790079631,1,0,595939.754517065,595940.801540997,13,1,1,13,19,175316675,149036845,74503956,115331166,0,41611519,20101809,0,40401319,31700109,0,41501919,0,31201719,0,21211509,-1000161,31512019,0,32000009,21710119,10401309,12000209,40501009,0,0,10901519,0,0,0,11101219,0,0,0,21010419,12010119,0,41110309,41200319,0
25,338,461.722883977927,1,0,595942.601506812,595943.648528435,13,0,1,10,19,176826813,85734546,100903337,135414655,40901009,0,30500619,11110709,30412019,0,11800519,41301019,10800919,-2101100,0,11711109,0,20600419,30510409,0,0,20811509,0,0,0,0,0,20101219,0,40800909,40001209,0,0,40300409,11711709,0,41700119,0,20800809,20901609
25,339,934.341660235077,0,0,595948.17783832,595949.224863408,14,1,0,31,9,40600519,143822756,102403957,23332029,40600519,0,0,0,0,0,0,0,0,0,0,20610719,0,42001619,0,40300109,40910309,0,0,41201219,30401919,0,0,0,0,30800819,0,0,0,0,-3130020,20202009,0,0,0,0
25,340,523.768435814418,0,0,595951.295425869,595952.342438637,14,0,0,10,3,0,24421329,23113238,0,0,0,0,0,0,0,0,0,0,-4110020,0,0,0,0,0,0,20311309,0,0,11901719,0,0,0,0,0,11211519,0,0,0,0,0,0,0,0,0,0
25,341,556.833244976588,1,0,595953.954210558,595955.001212547,14,1,1,9,3,22342619,0,61512018,0,0,0,0,0,0,21211509,0,0,-1131110,0,0,0,0,0,0,0,0,0,0,0,30100109,0,0,0,0,0,31411909,0,0,0,0,0,0,0,0,0
25,342,461.474583251402,0,0,595956.683526526,595957.730550458,14,0,0,17,19,124437255,128315627,124736266,136936494,30401109,0,0,10911309,31211009,11611909,40301919,0,0,31801019,10611409,41902009,40801119,0,0,0,-3200071,0,0,0,0,41512019,0,0,20801519,20810909,41611819,0,40611419,20400119,10001919,11912009,32000319,0,0,22010709
25,343,483.277316088788,0,0,595959.271700248,595960.31873188,14,0,0,24,31,242579851,196158013,207264084,198929522,41611819,21311719,21610109,11810619,20600719,21911119,41111719,31211619,31400409,20001209,40511319,21910009,0,41910719,11002019,30512019,30310719,0,11701519,30110819,30400009,40011309,40500009,-3120081,40410319,0,11010019,31411319,10600619,10901509,40810719,20901909,41400919,21301519,0,21601009
25,344,416.192220989615,0,0,595961.812813852,595962.85983817,14,1,0,14,9,20211619,25441599,73812037,113824666,0,0,0,0,0,0,0,0,20211619,0,0,0,21301419,-4140180,0,0,0,0,0,0,0,21601009,11710009,0,0,40501019,0,0,30211319,11001219,30601609,42010519,0,0,0,0
25,345,721.654915018007,1,0,595964.377457516,595965.424486452,14,1,1,33,19,63321328,112827875,189727583,123995056,31710809,31610519,0,0,0,0,0,0,0,20001219,0,0,11412009,0,0,30511419,30801409,20101819,0,11900509,10701509,0,31600819,30800109,31212009,41810719,31701909,10201809,40001609,0,0,0,-2060001,30810219,20210509,20710909
25,346,570.91401622165,1,0,595967.200924903,595968.247945756,14,1,1,13,19,175316675,149036845,74503956,115331166,0,41611519,20101809,0,40401319,31700109,0,41501919,0,31201719,0,21211509,-1000161,31512019,0,32000009,21710119,10401309,12000209,40501009,0,0,10901519,0,0,0,11101219,0,0,0,21010419,12010119,0,41110309,41200319,0
25,347,451.286167139187,0,0,595970.012622449,595971.059645226,14,0,0,25,0,0,0,0,0,0,0,0,0,0,0,0,0,0,0,0,0,0,0,0,0,0,0,0,0,0,0,0,0,-11411901,0,0,0,0,0,0,0,0,0,0,0
25,348,411.700094118714,1,0,595972.683154652,595973.730177429,14,0,1,29,31,288356641,209648222,155138202,141548695,12011919,41211709,40811019,31010319,20300319,41310519,20000519,41400209,40300109,10000919,40711319,0,30711319,11201219,42000109,32011909,21910819,21100609,30201409,0,30011919,11701609,10200309,30110219,20402009,12010019,10500709,0,-3000091,21901619,31510419,20411809,41511519,11801319,0,11411919
