sub_id,Trial,RT,Resp,Error,Fix_onset,Disp_onset,block,repeat,tid,tloc,d_setsize,quad1,quad2,quad3,quad4,loc1,loc2,loc3,loc4,loc5,loc6,loc7,loc8,loc9,loc10,loc11,loc12,loc13,loc14,loc15,loc16,loc17,loc18,loc19,loc20,loc21,loc22,loc23,loc24,loc25,loc26,loc27,loc28,loc29,loc30,loc31,loc32,loc33,loc34,loc35,loc36
7,1,724.786918377504,1,0,1839508.47008571,1839509.51716759,1,0,1,31,9,50712518,63723847,40612828,53562229,0,0,0,10711409,0,0,0,0,40001109,0,10811519,0,0,21710519,0,0,31201809,0,20001309,0,0,0,0,0,20611519,0,0,0,0,10001619,-3060001,0,0,0,40500609,0
7,2,730.69452913478,0,0,1839511.36414676,1839512.41116397,1,1,0,5,3,44141999,0,30501309,11600919,0,0,41111819,0,-3030180,0,0,0,0,0,0,0,0,0,0,0,0,0,0,0,0,0,0,0,0,30501309,0,0,0,0,0,11600919,0,0,0,0
7,3,457.075056852773,1,0,1839514.23465436,1839515.2816785,1,1,1,28,9,31110109,103624027,71212137,86463468,0,31110109,0,0,0,0,0,0,0,0,0,40911809,20711809,42000409,0,0,0,0,40410109,0,20500609,0,0,0,0,0,10301419,-4061150,0,0,0,0,41302009,0,0,41100309
7,4,497.425894951448,0,0,1839516.94046412,1839517.9874948,1,1,0,3,0,0,0,0,0,0,0,-10201691,0,0,0,0,0,0,0,0,0,0,0,0,0,0,0,0,0,0,0,0,0,0,0,0,0,0,0,0,0,0,0,0,0
7,5,606.613527284935,1,0,1839519.59922279,1839520.64625578,1,1,1,34,19,62020837,136646733,144746675,94864046,0,20810209,30400409,0,0,0,0,10810219,0,11610219,21711119,0,10210219,40901319,20801319,11411419,20001119,0,0,10511309,0,40402019,0,12011219,0,40510719,41311409,10011219,0,40301009,11600209,0,30811509,-2140100,0,0
7,6,928.142160875723,0,0,1839522.28150681,1839523.3285321,1,1,0,6,9,57813787,94433447,30900409,21321728,0,0,0,0,22010619,-3191150,11610909,21001109,0,41111009,0,0,0,0,0,31412019,21910419,0,0,0,0,0,0,0,0,30900409,0,10510609,10811119,0,0,0,0,0,0,0
7,7,718.927042325959,1,0,1839525.31672727,1839526.36375141,1,0,1,14,3,0,45690799,40300009,31610909,0,0,0,0,0,0,0,0,0,0,0,0,0,-4080090,0,0,0,41610709,0,0,0,0,40300009,0,0,0,0,0,0,0,0,0,0,0,31610909,0
7,8,603.610061574727,1,0,1839528.1990628,1839529.24605152,1,0,1,4,19,114125407,114814856,178524484,124235255,41001509,20201019,0,-1101041,0,41510019,0,0,10311819,0,0,30511019,0,11601209,31500909,41201719,0,0,41310709,40200819,0,21900009,31901819,0,31710309,11500819,0,0,20801009,0,30911419,20211009,11211209,0,0,41100609
7,9,530.42243863456,0,0,1839530.98717336,1839532.03419826,1,0,0,1,3,24161779,0,40500719,11000419,-4161060,0,0,0,0,0,0,20000719,0,0,0,0,0,0,0,0,0,0,0,0,0,0,0,0,0,0,40500719,0,0,0,0,0,0,0,0,11000419
7,10,433.844587532803,0,0,1839533.75182016,1839534.7989005,1,1,0,19,3,40611009,33210918,1201121,0,0,0,0,0,0,0,0,40611009,0,0,0,0,11610409,0,21600509,0,0,0,-1201121,0,0,0,0,0,0,0,0,0,0,0,0,0,0,0,0,0
7,11,468.325156020001,0,0,1839536.37527213,1839537.42230667,1,1,0,8,31,139875495,291660411,237925022,208737032,21401709,0,21210519,0,30900219,12010219,11001409,-2040001,41311419,21111519,22010719,41701819,42001609,40400409,30310309,31201109,41311009,21611909,40001819,11510509,31201019,30800119,11300409,41610909,0,41400219,30100019,40310819,30410419,40800919,41600919,11100309,21401319,0,11201209,11911119
7,12,878.43677168712,0,0,1839539.02227063,1839540.06930016,1,0,0,36,31,135634674,247068421,219239222,213298173,0,41210409,0,10700409,12002009,10310409,0,30610519,30800919,41010309,10511719,21510509,10300019,21010619,40901509,40101009,31411309,30311419,21901319,10811619,11811009,41401809,0,21611619,30800219,40800119,40101509,41601619,32000519,12000519,21310409,20201219,31010919,40311809,11711119,-3150041
7,13,619.471993064508,1,0,1839542.03397191,1839543.08101722,1,0,1,12,0,0,0,0,0,0,0,0,0,0,0,0,0,0,0,0,-31511001,0,0,0,0,0,0,0,0,0,0,0,0,0,0,0,0,0,0,0,0,0,0,0,0
7,14,583.87580816634,1,0,1839544.73977589,1839545.78680349,1,1,1,12,3,41101418,44311840,0,0,21000209,0,0,0,0,0,20101209,0,0,0,41310709,-3001131,0,0,0,0,0,0,0,0,0,0,0,0,0,0,0,0,0,0,0,0,0,0,0,0
7,15,558.697821339592,0,0,1839547.49266329,1839548.53969628,1,1,0,33,9,62013328,94434165,21610109,43631649,0,0,41601409,0,0,0,0,0,20411919,10800319,10210009,0,0,10011919,0,0,41900409,21511509,0,0,0,0,0,0,0,0,21610109,0,0,0,0,0,-3130140,40501509,0,0
7,16,535.575911169872,0,0,1839550.2337601,1839551.28078616,1,1,0,11,19,164736574,105134277,134853465,153933456,20512019,30601509,11300009,0,20000109,0,41810919,0,40512009,0,-2121201,0,0,0,20800919,20311119,41200419,20700619,20910909,41810509,10710219,30610219,30811609,0,0,0,0,30010009,0,0,0,0,41401319,0,42011319,40510809
7,17,622.489702189341,1,0,1839552.93960758,1839553.98660438,1,0,1,27,19,165837865,175937994,166684616,52212927,20611609,0,30801809,0,0,41511909,0,41011519,31901019,30400709,0,12010519,10511919,40001709,41411319,0,41601819,0,40110819,21301309,20110009,0,41111219,0,0,41910119,-2141141,0,0,11101309,0,20400009,0,20711609,0,0
7,18,626.732356846333,1,0,1839555.73956916,1839556.78656751,1,1,1,13,31,200347402,230066334,258768031,116547203,31611019,22000809,21510409,31910819,21302009,11900309,30000019,30112009,0,11800309,40201019,30110809,-3121041,41410109,21600009,0,41811619,40011419,41711519,31210219,21100019,31401609,10111409,21511509,20000919,41110219,40610609,21200809,20410519,20901619,11511419,10000109,0,22011309,10511419,0
7,19,777.676704805344,0,0,1839558.43356677,1839559.48067329,1,0,0,18,19,82023146,138767445,132124846,127214965,10102009,0,0,20710209,0,31100919,0,0,20110009,31310409,0,0,20701509,21400319,10911309,40611819,11711909,-2120171,0,41201109,0,0,0,40611809,40311809,10000119,0,11810809,40300209,0,0,12000619,21401519,0,0,41701809
7,20,534.08033773303,0,0,1839561.33937299,1839562.38639173,1,0,0,23,3,10910519,0,71802249,0,0,0,0,0,0,0,0,0,10910519,0,0,0,0,0,0,0,0,0,0,30500909,0,0,-1190131,0,40111209,0,0,0,0,0,0,0,0,0,0,0
7,21,646.098203025758,1,0,1839563.93940663,1839564.98633222,1,0,1,29,9,61312738,71123428,62422237,44303178,0,0,0,0,30401219,0,30911519,0,0,0,0,0,0,30911419,0,0,40212009,0,11601519,30810009,0,0,20010709,0,0,0,0,0,-2080060,0,30211709,0,0,0,12011409,0
7,22,470.578332431614,1,0,1839566.66865396,1839567.71568541,1,0,1,10,31,105745884,258840503,217448551,254560812,0,31800609,11601209,20311919,10910609,0,0,20310919,10810619,-3101171,30101119,41510219,40111819,20800719,31011809,20000719,31301009,40901919,30400919,20710419,10300319,40412019,41911019,10801809,12000219,20310819,30601009,41711009,40011719,40100119,41301919,30011809,0,20511509,10502009,30410719
7,23,435.459113912657,0,0,1839569.35093375,1839570.39796828,1,0,0,20,31,225850932,165230023,212706283,258245402,30611119,40811109,10301719,0,20410519,40301319,31911519,40101619,11402009,30201619,0,21800809,10400419,11711819,0,40512019,20501619,30101719,21000309,-4060191,22010809,30210119,21511809,41600019,21300109,20001009,31011909,41211019,20110909,0,41611019,20300109,20010309,31700309,42001709,41300019
7,24,389.281122013927,1,0,1839571.9508827,1839572.99790761,1,1,1,17,19,112325646,209354215,103013327,137044974,0,21101019,0,40611409,0,0,0,20111909,30501309,0,31011209,40901209,0,21810209,31600819,41010319,-3010041,40010409,0,0,0,0,30900909,0,0,41000809,31111609,11610509,10601919,0,0,20411009,31610309,21300919,41510309,0
7,25,533.541777404025,1,0,1839574.40964337,1839575.45667059,1,1,1,21,31,179869022,175937722,205598234,207036182,11212019,20110809,22011709,0,30201819,40711419,11600709,32010319,12010219,30401409,30900519,0,41900819,10011619,11700019,10211919,10700709,30110709,30100819,40910409,-1141131,20201719,21010209,30710419,30612019,0,30911509,30500609,31201609,30000409,11200519,41811409,20300309,10711209,0,31310109
7,26,544.544731499627,0,0,1839577.0095827,1839578.05660646,1,0,0,24,9,51520728,70812828,85873338,53313438,0,0,0,0,0,0,0,20110019,31410709,0,40011209,0,0,0,0,0,30801619,0,0,31802019,0,0,21600719,-2060191,30410409,0,0,0,0,0,11511819,0,0,0,0,41801619
7,27,617.141439579427,1,0,1839593.02095753,1839594.06799052,2,0,1,31,9,117125775,41300419,51900618,22091240,0,0,20811519,21501609,21301609,0,21900019,0,31611019,41300419,0,0,0,0,0,0,0,0,0,0,21800309,0,30100309,0,0,0,0,0,0,0,-1181031,0,0,0,20910209,0
7,28,567.630840465426,1,0,1839595.69148792,1839596.7385186,2,1,1,21,31,179869022,175937722,205598234,207036182,11212019,20110809,22011709,0,30201819,40711419,11600709,32010319,12010219,30401409,30900519,0,41900819,10011619,11700019,10211919,10700709,30110709,30100819,40910409,-1141131,20201719,21010209,30710419,30612019,0,30911509,30500609,31201609,30000409,11200519,41811409,20300309,10711209,0,31310109
7,29,512.818558840081,0,0,1839598.3502489,1839599.39727689,2,0,0,4,9,12832999,42030747,51500728,82913037,0,0,0,-1131180,0,0,11701819,0,0,0,20210209,0,0,0,10810419,0,11010119,0,0,0,0,0,0,0,0,30900719,20600009,21910709,20301109,0,0,0,0,40701219,0,0
7,30,401.424715295434,0,0,1839600.92664402,1839601.9736824,2,0,0,14,31,288550631,218425654,179839293,166737312,30800809,31910719,41210219,30912009,20900109,41201919,20001119,41301709,30312019,40400919,31410619,31600319,0,-1091031,30600019,21611619,20510119,41201009,0,0,22010609,41610609,30901919,41211609,20701919,12000719,11401909,20500519,20211419,30311119,20500519,20111009,0,21600009,21502009,12000709
7,31,550.512396264821,1,0,1839603.47953265,1839604.52656911,2,1,1,34,19,62020837,136646733,144746675,94864046,0,20810209,30400409,0,0,0,0,10810219,0,11610219,21711119,0,10210219,40901319,20801319,11411419,20001119,0,0,10511309,0,40402019,0,12011219,0,40510719,41311409,10011219,0,40301009,11600209,0,30811509,-2140100,0,0
7,32,649.004658218473,1,1,1839606.10307009,1839607.15007228,2,0,0,36,3,72423137,0,0,2001181,20811909,0,0,0,0,30610319,0,21000909,0,0,0,0,0,0,0,0,0,0,0,0,0,0,0,0,0,0,0,0,0,0,0,0,0,0,0,-2001181
7,33,643.017360474914,1,0,1839608.96181636,1839610.00878776,2,1,1,5,3,44141999,0,30501309,11600919,0,0,41111819,0,-3030180,0,0,0,0,0,0,0,0,0,0,0,0,0,0,0,0,0,0,0,0,30501309,0,0,0,0,0,11600919,0,0,0,0
7,34,537.889526458457,1,0,1839611.74992692,1839612.79696453,2,0,1,16,0,0,0,0,0,0,0,0,0,0,0,0,0,0,0,0,0,0,0,0,-20601501,0,0,0,0,0,0,0,0,0,0,0,0,0,0,0,0,0,0,0,0
7,35,549.84718398191,0,0,1839614.44399575,1839615.49101103,2,0,0,23,9,62301518,43922247,64212049,62112518,41700809,0,0,0,0,0,0,0,20600709,0,0,0,11112009,0,11110219,0,21700019,0,0,0,0,20800209,-3110131,0,40301709,0,0,41802009,0,20310509,0,0,0,0,0,0
7,36,636.379863368347,0,0,1839617.16156799,1839618.20859982,2,1,0,11,19,164736574,105134277,134853465,153933456,20512019,30601509,11300009,0,20000109,0,41810919,0,40512009,0,-2121201,0,0,0,20800919,20311119,41200419,20700619,20910909,41810509,10710219,30610219,30811609,0,0,0,0,30010009,0,0,0,0,41401319,0,42011319,40510809
7,37,624.4125822559,0,0,1839619.91444615,1839620.96147952,2,0,0,24,3,21610519,41511009,11362490,0,0,0,21610519,0,0,0,0,0,0,0,0,0,41511009,0,0,0,0,0,0,0,0,0,10301309,-1061181,0,0,0,0,0,0,0,0,0,0,0,0
7,38,557.397038210183,0,0,1839622.76145997,1839623.80846755,2,1,0,6,9,57813787,94433447,30900409,21321728,0,0,0,0,22010619,-3191150,11610909,21001109,0,41111009,0,0,0,0,0,31412019,21910419,0,0,0,0,0,0,0,0,30900409,0,10510609,10811119,0,0,0,0,0,0,0
7,39,507.490699179471,1,0,1839625.51431503,1839626.56134917,2,0,1,27,19,134523066,117633855,169098514,114425036,31800119,20301509,41210419,0,0,0,0,0,41211019,11410319,21900009,0,21012009,0,21400009,0,0,41911509,0,11601719,40912019,31510309,0,20411209,41001809,20500309,-3161140,0,0,31711509,22001909,40000709,20710909,0,0,0
7,40,626.656519714743,0,0,1839628.27903921,1839629.32598404,2,1,0,13,31,200347402,230066334,258768031,116547203,31611019,22000809,21510409,31910819,21302009,11900309,30000019,30112009,0,11800309,40201019,30110809,-3121041,41410109,21600009,0,41811619,40011419,41711519,31210219,21100019,31401609,10111409,21511509,20000919,41110219,40610609,21200809,20410519,20901619,11511419,10000109,0,22011309,10511419,0
7,41,781.035874038935,1,0,1839631.1377108,1839632.18480923,2,1,1,12,3,41101418,44311840,0,0,21000209,0,0,0,0,0,20101209,0,0,0,41310709,-3001131,0,0,0,0,0,0,0,0,0,0,0,0,0,0,0,0,0,0,0,0,0,0,0,0
7,42,548.587976489216,1,0,1839634.02001245,1839635.06703466,2,0,1,10,31,176146383,167601722,213649922,219438732,0,31810619,10201009,21310109,20810419,21201509,0,40310909,30501809,-2031010,10111409,21301909,40310109,31211519,20211919,20312009,11200219,10911619,41901709,20010819,40002019,10801019,10112019,0,40402019,30310109,20110209,0,11312019,41701119,20801109,11210819,40800919,41810109,31801119,20001519
7,43,577.964347554371,0,0,1839636.73758276,1839637.78462422,2,1,0,19,3,40611009,33210918,1201121,0,0,0,0,0,0,0,0,40611009,0,0,0,0,11610409,0,21600509,0,0,0,-1201121,0,0,0,0,0,0,0,0,0,0,0,0,0,0,0,0,0
7,44,681.593913352117,1,0,1839639.4081093,1839640.45515192,2,1,1,33,9,62013328,94434165,21610109,43631649,0,0,41601409,0,0,0,0,0,20411919,10800319,10210009,0,0,10011919,0,0,41900409,21511509,0,0,0,0,0,0,0,0,21610109,0,0,0,0,0,-3130140,40501509,0,0
7,45,573.903394164518,0,0,1839642.27863154,1839643.32572227,2,1,0,17,19,112325646,209354215,103013327,137044974,0,21101019,0,40611409,0,0,0,20111909,30501309,0,31011209,40901209,0,21810209,31600819,41010319,-3010041,40010409,0,0,0,0,30900909,0,0,41000809,31111609,11610509,10601919,0,0,20411009,31610309,21300919,41510309,0
7,46,832.252235151827,1,0,1839644.99622302,1839646.04324677,2,1,1,8,31,139875495,291660411,237925022,208737032,21401709,0,21210519,0,30900219,12010219,11001409,-2040001,41311419,21111519,22010719,41701819,42001609,40400409,30310309,31201109,41311009,21611909,40001819,11510509,31201019,30800119,11300409,41610909,0,41400219,30100019,40310819,30410419,40800919,41600919,11100309,21401319,0,11201209,11911119
7,47,597.121159778908,1,0,1839647.8785085,1839648.92554496,2,0,1,18,31,214838502,231960613,230659831,194744174,21811519,30400409,30110709,40800309,20311009,0,30001919,31201619,10201009,20300309,30511809,30010319,41802009,31511119,11801709,21500919,41511319,-3011101,20410309,31711109,41001719,32001319,20410619,30101409,21411319,21600209,12011819,30410609,41302009,0,10100609,40810409,0,30410319,0,41710219
7,48,727.666041115299,0,0,1839650.56080407,1839651.60783321,2,0,0,29,19,83314566,178140183,82843756,128084046,11200619,0,0,0,0,41300909,0,10401719,20411319,41100409,11201809,0,11601909,40211219,41811509,10912009,0,21301319,0,0,0,0,10010819,30411009,0,11810609,30611319,31310309,-4161190,0,20700519,0,40211409,31700619,0,0
7,49,594.19892099686,0,0,1839653.53720134,1839654.58423549,2,1,0,28,9,31110109,103624027,71212137,86463468,0,31110109,0,0,0,0,0,0,0,0,0,40911809,20711809,42000409,0,0,0,0,40410109,0,20500609,0,0,0,0,0,10301419,-4061150,0,0,0,0,41302009,0,0,41100309
7,50,655.565932858735,1,0,1839656.30184314,1839657.34887806,2,0,1,1,3,4161031,40823728,11711719,0,-4161031,0,0,0,0,0,0,0,0,30711909,0,0,0,0,0,0,0,10111819,0,0,0,11711719,0,0,0,0,0,0,0,0,0,0,0,0,0,0
7,51,531.148475129157,1,0,1839659.18413517,1839660.23116392,2,1,1,3,0,0,0,0,0,0,0,-10201691,0,0,0,0,0,0,0,0,0,0,0,0,0,0,0,0,0,0,0,0,0,0,0,0,0,0,0,0,0,0,0,0,0
7,52,591.829486424103,0,0,1839661.86643035,1839662.91345757,2,0,0,20,19,93304337,103955765,88162247,227527882,0,0,0,41502009,0,0,41801919,0,10000409,0,20011319,20911809,10910809,0,30811219,21310609,0,0,0,-4060000,0,20300519,0,0,0,42000609,21801119,41200809,42000209,40810709,10712019,40600709,30901509,11301509,10000409,0
7,53,656.532184919342,1,0,1839673.19557467,1839674.24261112,3,0,1,11,0,0,0,0,0,0,0,0,0,0,0,0,0,0,0,-31801691,0,0,0,0,0,0,0,0,0,0,0,0,0,0,0,0,0,0,0,0,0,0,0,0,0
7,54,557.484039338306,1,0,1839675.93671036,1839676.98373489,3,0,1,20,31,160061282,277659551,200746433,226046993,21510709,0,11411809,31511909,11801609,11901409,30611509,10110509,31201819,40301219,40410119,22011009,31010119,31101619,31611609,20100819,31102019,30011019,21901019,-3120020,30200819,0,30711519,30500119,21200309,21911409,41201219,41501019,0,30511309,30401509,40910609,41010819,10511309,0,31200419
7,55,501.046837773174,1,0,1839678.56017042,1839679.60719687,3,1,1,21,31,179869022,175937722,205598234,207036182,11212019,20110809,22011709,0,30201819,40711419,11600709,32010319,12010219,30401409,30900519,0,41900819,10011619,11700019,10211919,10700709,30110709,30100819,40910409,-1141131,20201719,21010209,30710419,30612019,0,30911509,30500609,31201609,30000409,11200519,41811409,20300309,10711209,0,31310109
7,56,496.605928055942,0,0,1839681.1366256,1839682.18363356,3,1,0,28,9,31110109,103624027,71212137,86463468,0,31110109,0,0,0,0,0,0,0,0,0,40911809,20711809,42000409,0,0,0,0,40410109,0,20500609,0,0,0,0,0,10301419,-4061150,0,0,0,0,41302009,0,0,41100309
7,57,526.187483221293,1,0,1839683.81887574,1839684.86590526,3,0,1,14,9,113623066,73473899,42912038,40700219,0,40510419,0,40700809,0,0,0,10911719,21500119,0,0,42001909,30411809,-1060181,0,0,0,0,32000719,0,0,10911319,0,0,0,0,0,0,0,0,0,0,0,40700219,0,0
7,58,446.751943789423,1,0,1839686.54832518,1839687.59527578,3,1,1,3,0,0,0,0,0,0,0,-10201691,0,0,0,0,0,0,0,0,0,0,0,0,0,0,0,0,0,0,0,0,0,0,0,0,0,0,0,0,0,0,0,0,0
7,59,492.298214929178,1,0,1839689.21875625,1839690.26578616,3,1,1,11,19,164736574,105134277,134853465,153933456,20512019,30601509,11300009,0,20000109,0,41810919,0,40512009,0,-2121201,0,0,0,20800919,20311119,41200419,20700619,20910909,41810509,10710219,30610219,30811609,0,0,0,0,30010009,0,0,0,0,41401319,0,42011319,40510809
7,60,597.381393425167,0,0,1839691.81870366,1839692.8657355,3,1,0,6,9,57813787,94433447,30900409,21321728,0,0,0,0,22010619,-3191150,11610909,21001109,0,41111009,0,0,0,0,0,31412019,21910419,0,0,0,0,0,0,0,0,30900409,0,10510609,10811119,0,0,0,0,0,0,0
7,61,461.331570288166,0,0,1839694.51276556,1839695.5597974,3,0,0,27,31,156748403,158858911,280856402,207416403,31301709,0,10010019,30411419,41601319,11011419,21511909,10900609,0,21511009,10900809,21901019,11111009,21701009,11212009,10100519,40110209,10311319,41710309,30301309,31810909,40710109,20510819,41811109,30010019,40910809,-3081010,21901319,30700509,30400409,41500319,0,0,10501709,40511719,31900419
7,62,492.729371180758,1,0,1839697.03034942,1839698.07738703,3,1,1,8,31,139875495,291660411,237925022,208737032,21401709,0,21210519,0,30900219,12010219,11001409,-2040001,41311419,21111519,22010719,41701819,42001609,40400409,30310309,31201109,41311009,21611909,40001819,11510509,31201019,30800119,11300409,41610909,0,41400219,30100019,40310819,30410419,40800919,41600919,11100309,21401319,0,11201209,11911119
7,63,626.381272450089,0,0,1839699.66558351,1839700.71261997,3,1,0,17,19,112325646,209354215,103013327,137044974,0,21101019,0,40611409,0,0,0,20111909,30501309,0,31011209,40901209,0,21810209,31600819,41010319,-3010041,40010409,0,0,0,0,30900909,0,0,41000809,31111609,11610509,10601919,0,0,20411009,31610309,21300919,41510309,0
7,64,979.805076960474,0,0,1839702.43022801,1839703.47726985,3,0,0,36,19,174915465,108737484,184444765,56443587,40001609,41700919,0,0,41000409,0,30901219,21311309,0,0,40900619,0,11311509,11511619,0,11600419,21811509,11601809,41300009,41311119,0,0,40311609,0,0,30810119,30711909,0,10311209,0,0,0,0,11312019,31800209,-3020150
7,65,539.27654074505,0,0,1839705.54788016,1839706.59484039,3,0,0,4,9,62533918,53401928,21800909,113832137,10911809,0,20410309,-1100191,0,0,0,30111609,0,0,0,0,0,0,21701719,31700209,0,0,0,0,0,21800909,0,0,0,0,0,0,0,0,0,30511009,41810509,0,41510619,0
7,66,578.08753522113,1,0,1839708.28892616,1839709.33595415,3,0,1,18,3,0,2090071,0,72533027,0,0,0,0,0,0,0,0,0,0,0,0,0,0,0,0,0,-2090071,0,0,0,0,0,0,0,0,0,0,0,20411809,0,20711209,0,31410009,0,0
7,67,497.104452457279,0,0,1839710.99475516,1839712.0417793,3,1,0,5,3,44141999,0,30501309,11600919,0,0,41111819,0,-3030180,0,0,0,0,0,0,0,0,0,0,0,0,0,0,0,0,0,0,0,0,30501309,0,0,0,0,0,11600919,0,0,0,0
7,68,616.232546744868,0,0,1839713.6535454,1839714.70053835,3,0,0,1,3,3091010,0,40410519,42003028,-3091010,0,0,0,0,0,0,0,0,0,0,0,0,0,0,0,0,0,40410519,0,0,0,0,0,0,0,0,20501309,21501719,0,0,0,0,0,0,0
7,69,428.398544900119,0,0,1839716.51227474,1839717.55931235,3,0,0,23,9,35214047,40611709,36003988,93713337,0,11201319,0,12011409,0,12001319,0,0,0,0,0,0,0,40611709,0,0,0,0,0,0,20411809,11411019,-4181160,0,0,0,0,0,0,0,10700809,0,41710919,0,0,41301609
7,70,501.684718066826,1,0,1839719.01811036,1839720.06514489,3,1,1,12,3,41101418,44311840,0,0,21000209,0,0,0,0,0,20101209,0,0,0,41310709,-3001131,0,0,0,0,0,0,0,0,0,0,0,0,0,0,0,0,0,0,0,0,0,0,0,0
7,71,535.812277114019,1,0,1839721.66510963,1839722.71213184,3,0,1,24,31,280160451,246646612,168387134,167476412,11510019,40201019,31201019,40211919,21812019,41900419,21111109,41901709,30311219,10500119,40411109,0,40011309,41900809,40512019,30900409,22010219,20400619,41310119,30711919,20411009,30801019,0,-3150130,0,31501319,10501619,31510519,10310409,0,10811109,30010919,11511619,31300119,11510809,30510909
7,72,563.061738619581,0,0,1839724.33564233,1839725.3826707,3,1,0,13,31,200347402,230066334,258768031,116547203,31611019,22000809,21510409,31910819,21302009,11900309,30000019,30112009,0,11800309,40201019,30110809,-3121041,41410109,21600009,0,41811619,40011419,41711519,31210219,21100019,31401609,10111409,21511509,20000919,41110219,40610609,21200809,20410519,20901619,11511419,10000109,0,22011309,10511419,0
7,73,899.443706264719,1,0,1839727.05322534,1839728.10026026,3,1,1,34,19,62020837,136646733,144746675,94864046,0,20810209,30400409,0,0,0,0,10810219,0,11610219,21711119,0,10210219,40901319,20801319,11411419,20001119,0,0,10511309,0,40402019,0,12011219,0,40510719,41311409,10011219,0,40301009,11600209,0,30811509,-2140100,0,0
7,74,489.267032127827,0,0,1839730.13551267,1839731.18254066,3,0,0,10,19,143525076,105674786,195426674,164624465,0,41511519,0,0,41101719,40401319,0,0,20510519,-2051110,20401219,31710919,31310319,0,0,0,20201219,0,30401609,40601619,0,0,0,41310809,11000509,40101419,32010709,0,0,40111009,0,41900119,41911209,20001019,20701109,0
7,75,408.679689513519,0,0,1839732.80607232,1839733.85308222,3,1,0,19,3,40611009,33210918,1201121,0,0,0,0,0,0,0,0,40611009,0,0,0,0,11610409,0,21600509,0,0,0,-1201121,0,0,0,0,0,0,0,0,0,0,0,0,0,0,0,0,0
7,76,1521.6318552848,1,0,1839735.358924,1839736.40596007,3,0,1,31,3,0,71601228,0,32601569,0,0,0,0,0,0,0,0,0,0,0,31601119,0,40000109,0,0,0,0,0,0,0,0,0,0,0,0,0,31401509,0,0,-1200060,0,0,0,0,0
7,77,723.896503448486,0,0,1839739.1235477,1839740.17058377,3,0,0,29,19,102003847,113732556,157106964,159058134,0,0,40501819,41001919,0,20500109,0,0,0,10810809,0,0,40611219,42000409,20310119,0,0,0,31301109,11701609,0,41101409,10901509,40300809,0,21800519,0,0,-2011150,0,11310619,41111109,41011909,21711619,21400019,20501709
7,78,692.376669961959,1,0,1839742.08820059,1839743.13522934,3,1,1,33,9,62013328,94434165,21610109,43631649,0,0,41601409,0,0,0,0,0,20411919,10800319,10210009,0,0,10011919,0,0,41900409,21511509,0,0,0,0,0,0,0,0,21610109,0,0,0,0,0,-3130140,40501509,0,0
7,79,573.49610561505,1,0,1839754.44087834,1839755.48790324,4,1,1,34,19,62020837,136646733,144746675,94864046,0,20810209,30400409,0,0,0,0,10810219,0,11610219,21711119,0,10210219,40901319,20801319,11411419,20001119,0,0,10511309,0,40402019,0,12011219,0,40510719,41311409,10011219,0,40301009,11600209,0,30811509,-2140100,0,0
7,80,392.191811697558,1,0,1839757.12317775,1839758.17020728,4,1,1,11,19,164736574,105134277,134853465,153933456,20512019,30601509,11300009,0,20000109,0,41810919,0,40512009,0,-2121201,0,0,0,20800919,20311119,41200419,20700619,20910909,41810509,10710219,30610219,30811609,0,0,0,0,30010009,0,0,0,0,41401319,0,42011319,40510809
7,81,627.667427062988,1,0,1839759.74669556,1839760.79367927,4,0,1,1,31,126491213,225239093,158629632,267180232,-2011191,10211819,20610909,10101119,30211509,10011019,10611419,21911809,10810419,11801809,40010619,40002009,0,41500809,0,30711509,21111519,40100819,10901519,0,10701909,11801219,10611019,40401819,21800009,10711819,41700319,12011219,41800809,30211919,40311219,41510809,0,30110619,31011819,40211819
7,82,424.739106092602,1,0,1839762.48777544,1839763.53480573,4,0,1,14,9,31611519,76362689,52413518,112935546,0,0,0,0,0,31611519,0,0,0,0,41901419,0,31301219,-3160051,0,0,0,0,0,0,21311709,0,31101809,0,0,0,0,30211719,40500809,0,0,0,0,30611709,11611309,0
7,83,640.503180446103,0,0,1839764.98183395,1839766.02886193,4,0,0,31,19,84411546,205125674,194252914,66844667,31510119,30901009,0,10100309,0,0,0,0,11900109,0,40900209,41400009,10801019,41302009,30111719,0,40610709,0,20000819,0,0,40610119,31310119,0,40610419,20310419,41411019,30801719,10200219,0,-4131120,21711609,0,0,0,0
7,84,451.470025349408,1,1,1839767.72296888,1839768.76998531,4,0,0,18,19,62924437,136311297,157357683,135445265,0,0,0,31311509,20111819,0,0,0,11501109,41810009,40800009,0,0,0,31000709,21600409,0,-1100161,10410219,21611219,0,10501809,0,11610209,31710909,40211709,31301609,20611009,31811419,31511219,0,0,0,40801409,10710209,0
7,85,390.544178895652,0,0,1839770.27583595,1839771.32287625,4,1,0,3,0,0,0,0,0,0,0,-10201691,0,0,0,0,0,0,0,0,0,0,0,0,0,0,0,0,0,0,0,0,0,0,0,0,0,0,0,0,0,0,0,0,0
7,86,673.617137363181,0,0,1839772.88756163,1839773.93458769,4,0,0,36,31,179446983,197035942,237349922,250991302,32000719,20400719,0,32011209,11711109,21310709,41711409,20301109,0,11401119,12001309,40710019,20800219,0,30200219,20801319,21110419,40011319,41000509,0,30311519,40402019,30811009,42000409,30110419,11712019,11002019,21900309,21701019,40801919,41101919,40011609,31112019,41310709,12000609,-1051190
7,87,716.085260501131,1,0,1839775.7580827,1839776.80511261,4,0,1,29,19,113444275,104237456,61723737,171747773,10010209,0,40510319,0,0,41701819,11110719,10111209,0,0,0,0,21011809,21011709,31212019,0,0,31001919,0,0,20511819,30601809,0,10610109,0,0,0,31711319,-4111170,11400219,20510209,30800319,0,20901719,10911109,41401709
7,88,535.945088835433,0,0,1839778.69919446,1839779.74621513,4,1,0,5,3,44141999,0,30501309,11600919,0,0,41111819,0,-3030180,0,0,0,0,0,0,0,0,0,0,0,0,0,0,0,0,0,0,0,0,30501309,0,0,0,0,0,11600919,0,0,0,0
7,89,758.486015954986,1,0,1839781.47560105,1839782.52264443,4,1,1,13,31,200347402,230066334,258768031,116547203,31611019,22000809,21510409,31910819,21302009,11900309,30000019,30112009,0,11800309,40201019,30110809,-3121041,41410109,21600009,0,41811619,40011419,41711519,31210219,21100019,31401609,10111409,21511509,20000919,41110219,40610609,21200809,20410519,20901619,11511419,10000109,0,22011309,10511419,0
7,90,790.758833056316,1,0,1839784.4284926,1839785.47551597,4,1,1,33,9,62013328,94434165,21610109,43631649,0,0,41601409,0,0,0,0,0,20411919,10800319,10210009,0,0,10011919,0,0,41900409,21511509,0,0,0,0,0,0,0,0,21610109,0,0,0,0,0,-3130140,40501509,0,0
7,91,586.741457227618,0,0,1839787.33431806,1839788.38139994,4,0,0,24,9,41513738,11211409,137596386,41010409,0,11501919,30011819,0,0,0,0,0,0,0,0,0,0,0,0,11211409,0,0,31000909,0,10001319,21310519,41111219,-4071001,0,0,30101419,0,0,0,0,0,0,41010409,0,0
7,92,711.624717805535,0,0,1839790.16954091,1839791.21657621,4,1,0,8,31,139875495,291660411,237925022,208737032,21401709,0,21210519,0,30900219,12010219,11001409,-2040001,41311419,21111519,22010719,41701819,42001609,40400409,30310309,31201109,41311009,21611909,40001819,11510509,31201019,30800119,11300409,41610909,0,41400219,30100019,40310819,30410419,40800919,41600919,11100309,21401319,0,11201209,11911119
7,93,547.230219235644,1,0,1839793.0047834,1839794.05181408,4,0,1,27,9,81311538,41823528,14301949,72605956,0,0,41301019,0,40010519,0,0,0,0,0,31511519,10312009,0,0,0,0,0,0,0,0,0,0,0,0,0,11200919,-3101030,11701619,0,10601619,10001809,0,0,40300909,0,0
7,94,476.494412403554,0,0,1839795.61649214,1839796.66352975,4,1,0,17,19,112325646,209354215,103013327,137044974,0,21101019,0,40611409,0,0,0,20111909,30501309,0,31011209,40901209,0,21810209,31600819,41010319,-3010041,40010409,0,0,0,0,30900909,0,0,41000809,31111609,11610509,10601919,0,0,20411009,31610309,21300919,41510309,0
7,95,566.114864079282,0,0,1839798.28702368,1839799.33405783,4,1,0,21,31,179869022,175937722,205598234,207036182,11212019,20110809,22011709,0,30201819,40711419,11600709,32010319,12010219,30401409,30900519,0,41900819,10011619,11700019,10211919,10700709,30110709,30100819,40910409,-1141131,20201719,21010209,30710419,30612019,0,30911509,30500609,31201609,30000409,11200519,41811409,20300309,10711209,0,31310109
7,96,467.887070262805,0,0,1839801.08696448,1839802.1339967,4,0,0,10,31,166639083,280997692,289769021,196447913,0,40101109,21111409,10511209,32010319,0,21401609,20101919,21401509,-3170190,30401809,31011409,42000619,40910909,40600109,30800109,41901319,20201219,32011419,30501309,40910519,30110409,40900319,20010809,31901019,41911909,21511309,10910419,30511919,21200819,41211119,41200719,31111709,0,0,20301209
7,97,479.668800486252,1,0,1839803.61635894,1839804.66335883,4,1,1,12,3,41101418,44311840,0,0,21000209,0,0,0,0,0,20101209,0,0,0,41310709,-3001131,0,0,0,0,0,0,0,0,0,0,0,0,0,0,0,0,0,0,0,0,0,0,0,0
7,98,500.209547579288,0,0,1839806.29862833,1839807.34565709,4,1,0,28,9,31110109,103624027,71212137,86463468,0,31110109,0,0,0,0,0,0,0,0,0,40911809,20711809,42000409,0,0,0,0,40410109,0,20500609,0,0,0,0,0,10301419,-4061150,0,0,0,0,41302009,0,0,41100309
7,99,525.274355662987,1,0,1839808.99268446,1839810.0397213,4,1,1,6,9,57813787,94433447,30900409,21321728,0,0,0,0,22010619,-3191150,11610909,21001109,0,41111009,0,0,0,0,0,31412019,21910419,0,0,0,0,0,0,0,0,30900409,0,10510609,10811119,0,0,0,0,0,0,0
7,100,525.574625236914,0,0,1839811.6043932,1839812.65143312,4,0,0,4,3,1140010,10210219,41301319,41700009,0,0,0,-1140010,0,0,0,0,0,0,0,0,0,0,0,10210219,0,0,0,0,0,0,0,0,0,0,41301319,41700009,0,0,0,0,0,0,0,0
7,101,738.868405343965,1,0,1839814.22788213,1839815.27490242,4,1,1,19,3,40611009,33210918,1201121,0,0,0,0,0,0,0,0,40611009,0,0,0,0,11610409,0,21600509,0,0,0,-1201121,0,0,0,0,0,0,0,0,0,0,0,0,0,0,0,0,0
7,102,486.836388707161,1,0,1839817.16900081,1839818.21611118,4,0,1,23,3,31101319,62910318,1181180,0,31101319,0,0,0,0,0,0,0,0,0,0,0,0,0,32000009,30910309,0,0,0,0,0,0,-1181180,0,0,0,0,0,0,0,0,0,0,0,0,0
7,103,592.628665501252,1,0,1839819.81600124,1839820.86308273,4,0,1,20,3,92414047,0,2161000,0,0,0,0,0,20001119,0,0,30601819,41811109,0,0,0,0,0,0,0,0,0,0,-2161000,0,0,0,0,0,0,0,0,0,0,0,0,0,0,0,0
7,104,487.47580894269,0,0,1839822.65124179,1839823.69826939,4,0,0,21,0,0,0,0,0,0,0,0,0,0,0,0,0,0,0,0,0,0,0,0,0,0,0,0,0,-41210391,0,0,0,0,0,0,0,0,0,0,0,0,0,0,0
7,105,659.722356358543,1,0,1839835.09804365,1839836.14507472,5,0,1,31,19,103514247,136203074,154327084,86223636,0,0,21301009,41901419,0,0,0,0,40311819,0,41700309,0,21800909,10301309,11500209,0,30700019,20200319,11001109,40301019,21511109,20611219,40901619,20001009,0,0,0,10400319,42000209,0,-2101090,0,0,10911609,20810409,0
7,106,691.84503890574,0,0,1839837.86269546,1839838.90977503,5,1,0,6,9,57813787,94433447,30900409,21321728,0,0,0,0,22010619,-3191150,11610909,21001109,0,41111009,0,0,0,0,0,31412019,21910419,0,0,0,0,0,0,0,0,30900409,0,10510609,10811119,0,0,0,0,0,0,0
7,107,571.867335820571,1,0,1839840.61557786,1839841.66261931,5,0,1,14,31,147448912,159446093,178458632,246747412,30500609,11110019,30101819,10311519,11801509,0,11512019,10800109,31311309,21410309,20711419,11401909,10700019,-1110200,42000809,11311209,0,40800219,21111219,40311019,0,10510219,41210919,21601609,11401919,21810719,10501009,30110609,31811219,0,20000819,31200219,40301809,30711109,30610719,32000909
7,108,451.621314743534,1,0,1839843.29794618,1839844.34493606,5,0,1,10,3,0,14121529,41610219,40411019,0,0,0,0,0,0,0,0,0,-3010020,0,0,0,0,0,0,0,11111509,0,0,0,0,0,0,41610219,0,0,0,0,0,0,0,40411019,0,0,0
7,109,1564.868360525,0,0,1839845.85077822,1839846.89780505,5,0,0,35,0,0,0,0,0,0,0,0,0,0,0,0,0,0,0,0,0,0,0,0,0,0,0,0,0,0,0,0,0,0,0,0,0,0,0,0,0,0,0,-20901401,0
7,110,654.137342702597,0,0,1839849.66246187,1839850.70948677,5,0,0,36,31,249837911,188640311,239059151,124575126,10910909,41100119,10600109,41200719,40901709,10200609,31711509,42011809,21200419,30600119,30101609,41810909,10701109,10011509,10811109,21601509,11101419,21901019,20601819,31702019,21511309,30801719,31610219,20010409,31500219,31110119,20211319,41111319,30000409,21511809,0,0,0,0,30800509,-1151080
7,111,487.765684491023,0,0,1839852.54475543,1839853.59178765,5,0,0,27,31,209560231,227480751,208607173,178036294,11510509,31911519,21401019,11011409,21000919,31301319,21111209,30011919,30300409,10301509,40510319,20411319,30210309,20011719,20811619,41411719,32000419,11811819,40901109,0,10111309,40210619,41410919,21010419,31001309,20900419,-3061070,41910319,10500519,40400619,31511709,41911109,0,0,0,11802019
7,112,435.158459469676,1,0,1839855.16823474,1839856.21526234,5,1,1,5,3,44141999,0,30501309,11600919,0,0,41111819,0,-3030180,0,0,0,0,0,0,0,0,0,0,0,0,0,0,0,0,0,0,0,0,30501309,0,0,0,0,0,11600919,0,0,0,0
7,113,814.566743560135,1,0,1839857.8387736,1839858.88579928,5,0,1,1,9,85703757,54423737,122722947,0,-3180100,30900119,0,0,11112019,0,40511519,0,0,0,0,0,11411809,11411019,0,0,0,31600909,40511819,41000519,0,0,0,0,41210609,0,0,0,0,0,0,0,0,0,0,0
7,114,533.820104086772,0,0,1839860.80341147,1839861.8504614,5,0,0,24,19,146525275,151423965,53734258,226747413,0,0,10011119,41500209,0,41300819,22011519,0,31701609,0,30801519,30200419,0,30211509,0,30200309,30010209,0,0,0,0,0,0,-1011030,41412009,0,11311219,41302009,12010509,30101919,21200619,0,40611619,40410119,0,41110619
7,115,464.32926133275,1,0,1839863.41512791,1839864.46216437,5,0,1,29,3,20201509,0,21821728,2131181,0,0,0,20201509,0,0,0,0,0,0,0,0,0,0,0,0,0,0,0,0,0,0,0,0,11510109,10311619,0,0,-2131181,0,0,0,0,0,0,0
7,116,609.321727417409,1,0,1839866.07388928,1839867.12094229,5,1,1,19,3,40611009,33210918,1201121,0,0,0,0,0,0,0,0,40611009,0,0,0,0,11610409,0,21600509,0,0,0,-1201121,0,0,0,0,0,0,0,0,0,0,0,0,0,0,0,0,0
7,117,423.990356968716,0,0,1839868.85031666,1839869.89734618,5,1,0,3,0,0,0,0,0,0,0,-10201691,0,0,0,0,0,0,0,0,0,0,0,0,0,0,0,0,0,0,0,0,0,0,0,0,0,0,0,0,0,0,0,0,0
7,118,498.633902287111,1,0,1839871.47378826,1839872.52082395,5,1,1,34,19,62020837,136646733,144746675,94864046,0,20810209,30400409,0,0,0,0,10810219,0,11610219,21711119,0,10210219,40901319,20801319,11411419,20001119,0,0,10511309,0,40402019,0,12011219,0,40510719,41311409,10011219,0,40301009,11600209,0,30811509,-2140100,0,0
7,119,399.34323146008,0,0,1839874.06198282,1839875.10901312,5,0,0,4,9,34011359,51701618,123723976,40801328,0,0,0,-4010050,0,0,0,30001309,0,0,0,0,20601509,0,0,31100109,0,0,40102019,0,0,31710519,0,0,20110219,0,31801219,0,0,0,0,0,30100619,0,0,10700709
7,120,505.217889789492,0,0,1839876.6031032,1839877.65013426,5,0,0,20,19,185445284,184727774,55521559,137215685,0,11000719,0,40201119,41111409,31410109,20210409,41511519,0,0,0,30811609,10601419,40900909,30310609,41201519,0,30901709,0,-3100131,0,21110119,0,0,0,31311309,0,21702019,41200519,0,0,10711109,42001319,0,0,21600719
7,121,640.125533565879,0,0,1839879.29717049,1839880.34420194,5,1,0,11,19,164736574,105134277,134853465,153933456,20512019,30601509,11300009,0,20000109,0,41810919,0,40512009,0,-2121201,0,0,0,20800919,20311119,41200419,20700619,20910909,41810509,10710219,30610219,30811609,0,0,0,0,30010009,0,0,0,0,41401319,0,42011319,40510809
7,122,481.963938102126,1,0,1839882.0383466,1839883.08533532,5,1,1,28,9,31110109,103624027,71212137,86463468,0,31110109,0,0,0,0,0,0,0,0,0,40911809,20711809,42000409,0,0,0,0,40410109,0,20500609,0,0,0,0,0,10301419,-4061150,0,0,0,0,41302009,0,0,41100309
7,123,587.44324115105,1,0,1839884.66182014,1839885.70880501,5,1,1,12,3,41101418,44311840,0,0,21000209,0,0,0,0,0,20101209,0,0,0,41310709,-3001131,0,0,0,0,0,0,0,0,0,0,0,0,0,0,0,0,0,0,0,0,0,0,0,0
7,124,664.008511696011,1,0,1839887.39112945,1839888.43816359,5,1,1,13,31,200347402,230066334,258768031,116547203,31611019,22000809,21510409,31910819,21302009,11900309,30000019,30112009,0,11800309,40201019,30110809,-3121041,41410109,21600009,0,41811619,40011419,41711519,31210219,21100019,31401609,10111409,21511509,20000919,41110219,40610609,21200809,20410519,20901619,11511419,10000109,0,22011309,10511419,0
7,125,520.15052549541,0,0,1839890.29696107,1839891.34399059,5,1,0,8,31,139875495,291660411,237925022,208737032,21401709,0,21210519,0,30900219,12010219,11001409,-2040001,41311419,21111519,22010719,41701819,42001609,40400409,30310309,31201109,41311009,21611909,40001819,11510509,31201019,30800119,11300409,41610909,0,41400219,30100019,40310819,30410419,40800919,41600919,11100309,21401319,0,11201209,11911119
7,126,583.691411651671,0,0,1839892.96748029,1839894.01454832,5,0,0,23,3,21011909,40710419,4201130,20300309,0,0,0,0,21011909,0,0,0,0,0,0,0,40710419,0,0,0,0,0,0,0,0,0,-4201130,0,0,0,0,0,0,0,0,20300309,0,0,0,0
7,127,502.240216592327,0,0,1839895.8027351,1839896.84977232,5,0,0,18,9,142415956,32622200,61202628,51310938,41501909,0,30201619,40510809,0,30201619,0,0,0,0,31511119,0,0,0,0,0,0,-1111081,30701319,0,0,0,0,0,0,30501309,0,0,0,30300619,21010319,0,0,0,0,0
7,128,473.504805704579,1,0,1839898.36738775,1839899.41442343,5,1,1,17,19,112325646,209354215,103013327,137044974,0,21101019,0,40611409,0,0,0,20111909,30501309,0,31011209,40901209,0,21810209,31600819,41010319,-3010041,40010409,0,0,0,0,30900909,0,0,41000809,31111609,11610509,10601919,0,0,20411009,31610309,21300919,41510309,0
7,129,517.141670454293,1,0,1839901.03793161,1839902.08496191,5,1,1,21,31,179869022,175937722,205598234,207036182,11212019,20110809,22011709,0,30201819,40711419,11600709,32010319,12010219,30401409,30900519,0,41900819,10011619,11700019,10211919,10700709,30110709,30100819,40910409,-1141131,20201719,21010209,30710419,30612019,0,30911509,30500609,31201609,30000409,11200519,41811409,20300309,10711209,0,31310109
7,130,551.428988575935,0,0,1839903.80258381,1839904.8496141,5,1,0,33,9,62013328,94434165,21610109,43631649,0,0,41601409,0,0,0,0,0,20411919,10800319,10210009,0,0,10011919,0,0,41900409,21511509,0,0,0,0,0,0,0,0,21610109,0,0,0,0,0,-3130140,40501509,0,0
7,131,403.268678346649,0,0,1839913.74356275,1839914.79059689,6,0,0,10,9,42003918,84581867,10511719,93003047,31902009,0,10101909,0,0,0,0,0,0,-1060020,0,0,41500219,20710509,0,0,0,21311119,0,0,0,0,0,0,0,10511719,0,0,0,0,0,0,21700619,41101419,0,30201009
7,132,624.203163431957,1,0,1839916.37880762,1839917.42584099,6,0,1,27,9,40210219,81212128,87495857,31721828,0,0,0,0,0,0,0,40210219,0,0,0,0,0,41100119,0,0,0,40112009,30201809,0,0,10510919,0,11500119,31201819,0,-4081191,10410819,21311009,0,0,0,0,0,0,0
7,133,526.042737765238,0,0,1839919.13169617,1839920.17872839,6,0,0,24,19,103513456,106538623,115654567,102346156,20810819,0,0,31201019,0,0,0,20100109,31401509,11311019,11800719,20601719,10211419,10311119,30500609,11802019,0,0,0,0,20600219,40701709,31100319,-3141011,0,20111309,0,0,0,20011309,31611709,40411219,0,10311919,0,0
7,134,539.30849255994,0,0,1839921.79046716,1839922.83750054,6,0,0,29,9,20411809,61512127,114713446,31211589,20411809,0,0,0,0,0,0,0,0,20600609,0,0,0,0,0,20301309,0,20610209,21811709,0,0,0,0,31600219,41100709,0,20200809,0,-1010080,30201509,0,0,0,0,0,0
7,135,500.1402546186,1,0,1839924.37865132,1839925.42568316,6,1,1,17,19,112325646,209354215,103013327,137044974,0,21101019,0,40611409,0,0,0,20111909,30501309,0,31011209,40901209,0,21810209,31600819,41010319,-3010041,40010409,0,0,0,0,30900909,0,0,41000809,31111609,11610509,10601919,0,0,20411009,31610309,21300919,41510309,0
7,136,704.160709865391,1,0,1839926.93154919,1839927.97860028,6,0,1,36,31,155636074,246467631,240228632,244506752,40900819,30110909,31611209,0,10200319,10900809,31912009,0,0,40200619,40010019,20410019,10412009,41011009,10601519,20810919,21310909,41700609,30310909,31910819,0,21801019,41100919,31601909,41501019,11501619,30500419,31801419,41711119,21800419,21711109,40410919,11810219,31911209,40210219,-3140120
7,137,724.858135916293,1,0,1839929.86090308,1839930.90794185,6,0,1,20,31,238239241,197958432,171031022,156147294,31111319,20910619,20711909,11300419,41001709,30801709,20000719,41500219,20900619,11710209,20901119,20611219,0,41112009,40100319,10110119,31901919,21511519,21310419,-3070110,11210519,20801909,11901909,30101919,10311119,41211509,21111609,11311109,40401719,0,41910619,11300719,0,10211809,0,41011319
7,138,614.069066010416,0,0,1839932.67262022,1839933.71965398,6,0,0,23,3,103833357,0,3110161,0,30811919,0,41910319,0,0,31111119,0,0,0,0,0,0,0,0,0,0,0,0,0,0,0,0,-3110161,0,0,0,0,0,0,0,0,0,0,0,0,0
7,139,921.309103956446,1,0,1839935.3902552,1839936.43724623,6,0,1,1,31,169318394,230327412,177479712,265868321,-1191100,41700319,10502009,32011919,0,0,20801019,21500509,41611519,11800319,40210409,31511209,30401319,0,42000119,11200509,21401909,41801619,31111319,10911209,41910309,31410619,10011809,0,21801309,20111719,10211419,41710809,20010219,40800619,30111919,20210609,40000109,21500119,10611909,40912009
7,140,560.544094070792,1,0,1839938.39015973,1839939.43718541,6,1,1,19,3,40611009,33210918,1201121,0,0,0,0,0,0,0,0,40611009,0,0,0,0,11610409,0,21600509,0,0,0,-1201121,0,0,0,0,0,0,0,0,0,0,0,0,0,0,0,0,0
7,141,684.660897357389,1,0,1839941.14304636,1839942.19007627,6,0,1,5,0,0,0,0,0,0,0,0,0,-10301491,0,0,0,0,0,0,0,0,0,0,0,0,0,0,0,0,0,0,0,0,0,0,0,0,0,0,0,0,0,0,0
7,142,606.73363506794,0,0,1839943.9547658,1839945.00184922,6,0,0,18,19,156436594,63703809,156426365,176555304,0,31301619,10010219,0,0,11510019,40800909,21511919,41301909,0,0,0,0,0,31401509,31201109,0,-1101191,41010909,21701709,41501919,0,0,41311709,0,10900119,0,0,41910919,0,20012019,20711219,0,41110609,11600019,41210519
7,143,548.986026085913,0,0,1839946.7547143,1839947.80174844,6,0,0,4,19,87611988,187758612,125323237,133144775,42010419,0,0,-4001131,0,10600319,0,0,31000119,11310909,31210119,20700209,11810709,41512019,10401519,0,30201909,30611219,0,0,42010909,0,0,41701809,0,0,41610519,41412019,0,30011609,40010019,10600919,11110209,0,0,0
7,144,400.674041593447,0,1,1839949.44881662,1839950.49581188,6,0,1,14,3,11900319,1001030,0,81913828,0,0,0,11900319,0,0,0,0,0,0,0,0,0,-1001030,0,0,0,0,0,0,0,0,0,0,0,0,0,0,0,0,0,0,0,0,40311809,41602019
7,145,579.226634465158,0,0,1839951.97813293,1839953.02516785,6,1,0,3,0,0,0,0,0,0,0,-10201691,0,0,0,0,0,0,0,0,0,0,0,0,0,0,0,0,0,0,0,0,0,0,0,0,0,0,0,0,0,0,0,0,0
7,146,600.583113729954,1,0,1839954.73103342,1839955.77805679,6,0,1,31,3,0,20101019,20000419,24211300,0,0,0,0,0,0,0,0,0,0,0,0,20101019,0,0,0,0,0,20000419,0,0,0,0,0,0,0,0,0,0,0,-4200081,0,0,0,20011219,0
7,147,928.409323794767,1,0,1839957.42508993,1839958.47212908,6,1,1,6,9,57813787,94433447,30900409,21321728,0,0,0,0,22010619,-3191150,11610909,21001109,0,41111009,0,0,0,0,0,31412019,21910419,0,0,0,0,0,0,0,0,30900409,0,10510609,10811119,0,0,0,0,0,0,0
7,148,564.003738109022,0,0,1839960.60156836,1839961.64856785,6,1,0,5,3,44141999,0,30501309,11600919,0,0,41111819,0,-3030180,0,0,0,0,0,0,0,0,0,0,0,0,0,0,0,0,0,0,0,0,30501309,0,0,0,0,0,11600919,0,0,0,0
7,149,541.817668126896,1,0,1839963.29589049,1839964.34268095,6,1,1,33,9,62013328,94434165,21610109,43631649,0,0,41601409,0,0,0,0,0,20411919,10800319,10210009,0,0,10011919,0,0,41900409,21511509,0,0,0,0,0,0,0,0,21610109,0,0,0,0,0,-3130140,40501509,0,0
7,150,623.047895729542,0,0,1839965.90728549,1839966.95431501,6,1,0,8,31,139875495,291660411,237925022,208737032,21401709,0,21210519,0,30900219,12010219,11001409,-2040001,41311419,21111519,22010719,41701819,42001609,40400409,30310309,31201109,41311009,21611909,40001819,11510509,31201019,30800119,11300409,41610909,0,41400219,30100019,40310819,30410419,40800919,41600919,11100309,21401319,0,11201209,11911119
7,151,531.195825198665,1,0,1839968.71898876,1839969.76603523,6,1,1,21,31,179869022,175937722,205598234,207036182,11212019,20110809,22011709,0,30201819,40711419,11600709,32010319,12010219,30401409,30900519,0,41900819,10011619,11700019,10211919,10700709,30110709,30100819,40910409,-1141131,20201719,21010209,30710419,30612019,0,30911509,30500609,31201609,30000409,11200519,41811409,20300309,10711209,0,31310109
7,152,449.681881582364,0,0,1839971.33070636,1839972.37776052,6,1,0,12,3,41101418,44311840,0,0,21000209,0,0,0,0,0,20101209,0,0,0,41310709,-3001131,0,0,0,0,0,0,0,0,0,0,0,0,0,0,0,0,0,0,0,0,0,0,0,0
7,153,614.432469243184,0,0,1839973.96596201,1839975.01299461,6,1,0,11,19,164736574,105134277,134853465,153933456,20512019,30601509,11300009,0,20000109,0,41810919,0,40512009,0,-2121201,0,0,0,20800919,20311119,41200419,20700619,20910909,41810509,10710219,30610219,30811609,0,0,0,0,30010009,0,0,0,0,41401319,0,42011319,40510809
7,154,519.402546109632,1,0,1839976.71885441,1839977.76587739,6,1,1,28,9,31110109,103624027,71212137,86463468,0,31110109,0,0,0,0,0,0,0,0,0,40911809,20711809,42000409,0,0,0,0,40410109,0,20500609,0,0,0,0,0,10301419,-4061150,0,0,0,0,41302009,0,0,41100309
7,155,521.812401944771,0,0,1839979.38939058,1839980.43646014,6,1,0,13,31,200347402,230066334,258768031,116547203,31611019,22000809,21510409,31910819,21302009,11900309,30000019,30112009,0,11800309,40201019,30110809,-3121041,41410109,21600009,0,41811619,40011419,41711519,31210219,21100019,31401609,10111409,21511509,20000919,41110219,40610609,21200809,20410519,20901619,11511419,10000109,0,22011309,10511419,0
7,156,585.841418476775,0,0,1839982.14234881,1839983.18935562,6,1,0,34,19,62020837,136646733,144746675,94864046,0,20810209,30400409,0,0,0,0,10810219,0,11610219,21711119,0,10210219,40901319,20801319,11411419,20001119,0,0,10511309,0,40402019,0,12011219,0,40510719,41311409,10011219,0,40301009,11600209,0,30811509,-2140100,0,0
7,157,613.81730157882,1,0,1839996.17736986,1839997.22434704,7,0,1,24,9,93102237,114735876,12272349,11901909,0,0,0,0,0,30300809,20900909,41900519,0,0,0,21111119,20912019,0,41911119,30801619,0,0,0,0,0,0,0,-1161040,11111309,0,0,0,0,11901909,0,0,0,0,0,0
7,158,586.409620940685,0,0,1839999.01256038,1840000.05958759,7,0,0,36,9,0,122333346,94332347,44924889,0,0,0,0,0,0,0,0,0,11511209,0,0,0,0,0,40310209,40110719,30401209,0,0,40711319,0,0,0,41710619,0,11910409,0,0,0,0,31411819,11502009,0,0,-2011061
7,159,365.196424303576,0,0,1840001.7889635,1840002.83599572,7,0,0,27,31,168333703,238560003,212260422,259328031,0,21901009,0,30600119,30910509,31200819,30610619,11610409,11500219,20201019,41601719,41511319,0,31310819,31511309,40511909,0,31911909,11511509,11000209,31712009,41500409,20011819,41810119,20201919,30501309,-4011120,20511509,20900519,41110719,20500019,40100509,21701009,21001519,41501419,32000809
7,160,453.767087310553,1,0,1840004.33014624,1840005.37713881,7,0,1,14,9,83215076,43511779,12011419,72411828,0,21810619,10201719,0,0,0,0,11101919,40100819,11310909,30200709,0,0,-2000161,0,0,0,0,12011419,0,0,0,0,0,0,0,0,0,0,0,0,40510609,0,0,31901219,0
7,161,561.545762466267,1,0,1840006.91830115,1840007.96532875,7,1,1,33,9,62013328,94434165,21610109,43631649,0,0,41601409,0,0,0,0,0,20411919,10800319,10210009,0,0,10011919,0,0,41900409,21511509,0,0,0,0,0,0,0,0,21610109,0,0,0,0,0,-3130140,40501509,0,0
7,162,383.953646989539,1,0,1840009.63596462,1840010.68291831,7,0,1,29,3,61111418,41801419,0,3070071,0,0,0,0,0,40101209,0,0,21010209,0,0,0,0,41801419,0,0,0,0,0,0,0,0,0,0,0,0,0,0,-3070071,0,0,0,0,0,0,0
7,163,491.612984333187,0,0,1840012.11820367,1840013.16523281,7,1,0,5,3,44141999,0,30501309,11600919,0,0,41111819,0,-3030180,0,0,0,0,0,0,0,0,0,0,0,0,0,0,0,0,0,0,0,0,30501309,0,0,0,0,0,11600919,0,0,0,0
7,164,506.992559647188,0,0,1840014.78874369,1840015.83577707,7,1,0,8,31,139875495,291660411,237925022,208737032,21401709,0,21210519,0,30900219,12010219,11001409,-2040001,41311419,21111519,22010719,41701819,42001609,40400409,30310309,31201109,41311009,21611909,40001819,11510509,31201019,30800119,11300409,41610909,0,41400219,30100019,40310819,30410419,40800919,41600919,11100309,21401319,0,11201209,11911119
7,165,494.243422523141,0,0,1840017.40045859,1840018.44749351,7,1,0,34,19,62020837,136646733,144746675,94864046,0,20810209,30400409,0,0,0,0,10810219,0,11610219,21711119,0,10210219,40901319,20801319,11411419,20001119,0,0,10511309,0,40402019,0,12011219,0,40510719,41311409,10011219,0,40301009,11600209,0,30811509,-2140100,0,0
7,166,459.442566847429,0,0,1840019.95333721,1840021.00038098,7,0,0,1,31,141448253,209727911,173765113,226557602,-4111160,10811119,21201009,31700519,31202009,21210309,10211009,11001119,0,41700409,11401209,40300209,10400919,21710709,31601909,10500619,20211919,21900009,0,10210819,10910219,0,20111319,30910309,40410619,31010819,30201009,11300919,0,20511819,40111609,40310109,21711909,40710709,40100219,11800309
7,167,383.373125921935,0,0,1840022.49447915,1840023.54151676,7,1,0,21,31,179869022,175937722,205598234,207036182,11212019,20110809,22011709,0,30201819,40711419,11600709,32010319,12010219,30401409,30900519,0,41900819,10011619,11700019,10211919,10700709,30110709,30100819,40910409,-1141131,20201719,21010209,30710419,30612019,0,30911509,30500609,31201609,30000409,11200519,41811409,20300309,10711209,0,31310109
7,168,424.420358380303,0,0,1840025.10620367,1840026.15324167,7,1,0,3,0,0,0,0,0,0,0,-10201691,0,0,0,0,0,0,0,0,0,0,0,0,0,0,0,0,0,0,0,0,0,0,0,0,0,0,0,0,0,0,0,0,0
7,169,415.310257347301,0,0,1840027.5885074,1840028.63554578,7,0,0,4,19,168617155,135334376,125421685,94116265,0,10612019,31311509,-3170180,0,41012009,41111119,0,41400319,0,0,41210619,41712019,10511319,41900419,0,0,0,0,20300619,0,40900119,0,0,31810219,21310309,11100419,11401209,0,41400909,0,10001709,0,20901419,10411019,0
7,170,812.05679802224,1,0,1840030.22375843,1840031.27079219,7,0,1,31,31,187779122,190833021,178055612,121238225,31610119,0,11511019,20311619,30411909,30411219,20511519,31011009,12000709,41211709,31601819,31100709,11501819,21602009,11701509,10812009,11100419,20201019,11510219,21400319,30810809,0,11201719,10310819,41400209,40111009,11310509,30310709,40901909,11601009,-4010061,12011009,0,0,11901819,10501709
7,171,647.729667602107,0,0,1840033.1531154,1840034.200143,7,0,0,20,3,12010519,20111709,32861919,0,0,0,12010519,0,0,0,0,0,0,0,0,0,0,0,20111709,0,0,0,0,-1160010,0,0,0,0,31701909,0,0,0,0,0,0,0,0,0,0,0
7,172,602.104479447007,0,0,1840035.97659232,1840037.02362454,7,1,0,13,31,200347402,230066334,258768031,116547203,31611019,22000809,21510409,31910819,21302009,11900309,30000019,30112009,0,11800309,40201019,30110809,-3121041,41410109,21600009,0,41811619,40011419,41711519,31210219,21100019,31401609,10111409,21511509,20000919,41110219,40610609,21200809,20410519,20901619,11511419,10000109,0,22011309,10511419,0
7,173,575.331984320655,1,0,1840038.78830291,1840039.83533705,7,1,1,19,3,40611009,33210918,1201121,0,0,0,0,0,0,0,0,40611009,0,0,0,0,11610409,0,21600509,0,0,0,-1201121,0,0,0,0,0,0,0,0,0,0,0,0,0,0,0,0,0
7,174,460.724871605635,1,0,1840041.61178291,1840042.65888173,7,0,1,14,0,0,0,0,0,0,0,0,0,0,0,0,0,0,0,0,0,0,-31399991,0,0,0,0,0,0,0,0,0,0,0,0,0,0,0,0,0,0,0,0,0,0
7,175,588.333270978183,1,0,1840044.18820652,1840045.23524066,7,0,1,18,19,123613156,165234956,84823376,173947894,41100709,0,30401319,0,10200709,41910419,0,0,0,40301319,40010619,0,30600019,40911309,11301609,0,0,-2110081,0,42010219,11001319,20711719,11100119,0,0,0,0,30902019,10901809,0,40011319,0,30011209,21810419,0,40311119
7,176,525.85564693436,1,0,1840046.96462619,1840048.01170923,7,0,1,10,19,143625875,96712566,123624855,95111746,31000919,0,30410609,20601519,0,40711709,0,0,20901119,-2090071,0,20610019,0,30700319,11400019,0,21101619,10810519,20300809,0,30910409,0,0,30201009,0,20401419,21811209,20710109,0,21700309,0,0,0,21900719,30800609,0
7,177,470.597580540925,1,0,1840049.74104279,1840050.78808271,7,1,1,11,19,164736574,105134277,134853465,153933456,20512019,30601509,11300009,0,20000109,0,41810919,0,40512009,0,-2121201,0,0,0,20800919,20311119,41200419,20700619,20910909,41810509,10710219,30610219,30811609,0,0,0,0,30010009,0,0,0,0,41401319,0,42011319,40510809
7,178,518.131020013243,0,0,1840052.47040831,1840053.51744669,7,0,0,23,3,0,10511719,1040061,61812328,0,0,0,0,0,0,0,0,0,0,0,10511719,0,0,0,0,0,0,0,0,0,0,-1040061,0,0,0,0,0,0,0,21710519,0,40101809,0,0,0
7,179,673.968606628478,1,0,1840055.05864521,1840056.10563508,7,1,1,6,9,57813787,94433447,30900409,21321728,0,0,0,0,22010619,-3191150,11610909,21001109,0,41111009,0,0,0,0,0,31412019,21910419,0,0,0,0,0,0,0,0,30900409,0,10510609,10811119,0,0,0,0,0,0,0
7,180,499.550494365394,1,0,1840057.7879653,1840058.83499867,7,1,1,28,9,31110109,103624027,71212137,86463468,0,31110109,0,0,0,0,0,0,0,0,0,40911809,20711809,42000409,0,0,0,0,40410109,0,20500609,0,0,0,0,0,10301419,-4061150,0,0,0,0,41302009,0,0,41100309
7,181,526.574753923342,0,0,1840060.54085616,1840061.58788646,7,1,0,17,19,112325646,209354215,103013327,137044974,0,21101019,0,40611409,0,0,0,20111909,30501309,0,31011209,40901209,0,21810209,31600819,41010319,-3010041,40010409,0,0,0,0,30900909,0,0,41000809,31111609,11610509,10601919,0,0,20411009,31610309,21300919,41510309,0
7,182,755.487169837579,1,0,1840063.1290461,1840064.17608486,7,1,1,12,3,41101418,44311840,0,0,21000209,0,0,0,0,0,20101209,0,0,0,41310709,-3001131,0,0,0,0,0,0,0,0,0,0,0,0,0,0,0,0,0,0,0,0,0,0,0,0
7,183,452.924022916704,0,0,1840073.99943744,1840075.04648198,8,1,0,21,31,179869022,175937722,205598234,207036182,11212019,20110809,22011709,0,30201819,40711419,11600709,32010319,12010219,30401409,30900519,0,41900819,10011619,11700019,10211919,10700709,30110709,30100819,40910409,-1141131,20201719,21010209,30710419,30612019,0,30911509,30500609,31201609,30000409,11200519,41811409,20300309,10711209,0,31310109
7,184,478.852298343554,1,0,1840076.59943298,1840077.64643286,8,0,1,27,3,0,0,23080910,61902628,0,0,0,0,0,0,0,0,0,0,0,0,0,0,0,0,0,0,0,0,0,0,0,0,0,20910819,-2170091,0,0,0,20002009,0,0,41900619,0,0
7,185,520.208269590512,0,0,1840079.22287995,1840080.26991409,8,1,0,17,19,112325646,209354215,103013327,137044974,0,21101019,0,40611409,0,0,0,20111909,30501309,0,31011209,40901209,0,21810209,31600819,41010319,-3010041,40010409,0,0,0,0,30900909,0,0,41000809,31111609,11610509,10601919,0,0,20411009,31610309,21300919,41510309,0
7,186,618.000287329778,1,0,1840081.84637581,1840082.89339379,8,1,1,13,31,200347402,230066334,258768031,116547203,31611019,22000809,21510409,31910819,21302009,11900309,30000019,30112009,0,11800309,40201019,30110809,-3121041,41410109,21600009,0,41811619,40011419,41711519,31210219,21100019,31401609,10111409,21511509,20000919,41110219,40610609,21200809,20410519,20901619,11511419,10000109,0,22011309,10511419,0
7,187,499.337611021474,1,0,1840084.7168992,1840085.76395336,8,1,1,19,3,40611009,33210918,1201121,0,0,0,0,0,0,0,0,40611009,0,0,0,0,11610409,0,21600509,0,0,0,-1201121,0,0,0,0,0,0,0,0,0,0,0,0,0,0,0,0,0
7,188,481.550874887034,0,0,1840087.28158688,1840088.32858907,8,1,0,5,3,44141999,0,30501309,11600919,0,0,41111819,0,-3030180,0,0,0,0,0,0,0,0,0,0,0,0,0,0,0,0,0,0,0,0,30501309,0,0,0,0,0,11600919,0,0,0,0
7,189,532.768775708973,0,0,1840089.94033862,1840090.98742089,8,1,0,33,9,62013328,94434165,21610109,43631649,0,0,41601409,0,0,0,0,0,20411919,10800319,10210009,0,0,10011919,0,0,41900409,21511509,0,0,0,0,0,0,0,0,21610109,0,0,0,0,0,-3130140,40501509,0,0
7,190,461.063252296299,1,0,1840092.59911115,1840093.64614222,8,1,1,12,3,41101418,44311840,0,0,21000209,0,0,0,0,0,20101209,0,0,0,41310709,-3001131,0,0,0,0,0,0,0,0,0,0,0,0,0,0,0,0,0,0,0,0,0,0,0,0
7,191,462.590007809922,0,0,1840095.17553399,1840096.22257275,8,1,0,3,0,0,0,0,0,0,0,-10201691,0,0,0,0,0,0,0,0,0,0,0,0,0,0,0,0,0,0,0,0,0,0,0,0,0,0,0,0,0,0,0,0,0
7,192,472.261766903102,0,0,1840097.85784264,1840098.90488025,8,0,0,1,9,43571210,41912118,121821837,81513047,-3060091,0,40511119,0,0,0,0,0,0,0,0,20101909,0,0,0,21810209,0,0,0,0,0,40310909,41310809,40200119,0,0,0,0,20301319,30311709,0,0,30900019,0,0,0
7,193,461.286144796759,1,0,1840100.50486,1840101.55189299,8,0,1,9,0,0,0,0,0,0,0,0,0,0,0,0,0,-40210601,0,0,0,0,0,0,0,0,0,0,0,0,0,0,0,0,0,0,0,0,0,0,0,0,0,0,0
7,194,725.051771383733,1,0,1840103.10480318,1840104.15184387,8,0,1,36,19,228336073,102414456,117636465,104463858,41401509,40800409,41400909,11701019,40910109,0,0,10210309,41911809,0,0,30000709,30001219,21401309,21011219,0,0,0,42011109,0,31301519,21611209,11910619,0,10802009,0,0,0,0,0,40511719,0,20500919,41301019,0,-2150201
7,195,582.093053730205,1,0,1840105.90475745,1840106.9517916,8,0,1,14,3,30000109,41462729,0,0,0,0,0,0,0,0,30000109,0,0,30101409,0,10211319,0,-1150001,0,0,0,0,0,0,0,0,0,0,0,0,0,0,0,0,0,0,0,0,0,0
7,196,648.545014904812,1,0,1840108.62236241,1840109.66939694,8,1,1,34,19,62020837,136646733,144746675,94864046,0,20810209,30400409,0,0,0,0,10810219,0,11610219,21711119,0,10210219,40901319,20801319,11411419,20001119,0,0,10511309,0,40402019,0,12011219,0,40510719,41311409,10011219,0,40301009,11600209,0,30811509,-2140100,0,0
7,197,461.294614011422,1,0,1840111.36349233,1840112.41052763,8,0,1,20,3,0,40711819,1190101,52622728,0,0,0,0,0,0,0,0,0,0,0,0,40711819,0,0,0,0,0,0,-1190101,0,0,0,0,0,0,0,0,0,0,0,0,41911919,0,0,10710809
7,198,638.557972852141,1,0,1840113.97521223,1840115.02224561,8,0,1,18,9,177036475,35004158,20511309,21000309,0,0,42011019,31402009,32010419,30511819,0,0,41101209,0,0,0,0,0,0,20801219,11101809,-3101130,0,0,0,0,0,20511309,0,0,0,0,0,0,0,21000309,0,0,0,0
7,199,669.521537842229,0,0,1840116.81049398,1840117.85748809,8,0,0,29,19,204448192,51814037,102613466,67716037,10011419,0,10800509,20300109,40400609,31011709,30310319,41511909,20101609,0,0,0,0,10211709,0,21501019,20101309,0,21110219,0,30901109,0,0,10001519,0,40600619,0,10511519,-3190171,31401819,0,0,0,0,11001319,11611209
7,200,567.765576764941,0,0,1840119.63393703,1840120.68099504,8,1,0,8,31,139875495,291660411,237925022,208737032,21401709,0,21210519,0,30900219,12010219,11001409,-2040001,41311419,21111519,22010719,41701819,42001609,40400409,30310309,31201109,41311009,21611909,40001819,11510509,31201019,30800119,11300409,41610909,0,41400219,30100019,40310819,30410419,40800919,41600919,11100309,21401319,0,11201209,11911119
7,201,620.762767270207,0,0,1840122.4221419,1840123.46915295,8,0,0,4,31,169536194,235638002,219427921,146966213,21100709,40011109,21700019,-4111091,10501819,30600009,30910919,0,10600519,10611109,20200109,40401309,0,30201109,30702019,41011119,32000909,30510319,40502009,30101819,21301309,10810219,30900909,41700319,12010809,21500219,10600309,11210519,0,31210919,10810019,0,10811909,10110119,32012019,40800709
7,202,619.289906462654,0,1,1840125.10442862,1840126.15146199,8,0,1,24,31,177347222,184457693,203708522,168159402,11000519,30401319,21610409,11611019,10500809,40911209,10810819,0,40501119,20411019,30411109,21011709,41011009,0,20100919,10400519,0,41111409,41711709,22000519,42001309,11101619,11600619,-3060020,30111409,30911109,11210209,10011409,21510409,41301509,12000209,10411419,31411719,0,11311119,30201609
7,203,700.52282884717,1,0,1840127.96319876,1840129.01023983,8,1,1,6,9,57813787,94433447,30900409,21321728,0,0,0,0,22010619,-3191150,11610909,21001109,0,41111009,0,0,0,0,0,31412019,21910419,0,0,0,0,0,0,0,0,30900409,0,10510609,10811119,0,0,0,0,0,0,0
7,204,490.816115168855,0,0,1840130.88079863,1840131.92787897,8,1,0,28,9,31110109,103624027,71212137,86463468,0,31110109,0,0,0,0,0,0,0,0,0,40911809,20711809,42000409,0,0,0,0,40410109,0,20500609,0,0,0,0,0,10301419,-4061150,0,0,0,0,41302009,0,0,41100309
7,205,454.174760961905,0,0,1840133.43369343,1840134.48072449,8,1,0,11,19,164736574,105134277,134853465,153933456,20512019,30601509,11300009,0,20000109,0,41810919,0,40512009,0,-2121201,0,0,0,20800919,20311119,41200419,20700619,20910909,41810509,10710219,30610219,30811609,0,0,0,0,30010009,0,0,0,0,41401319,0,42011319,40510809
7,206,428.468222962692,0,0,1840135.96307711,1840137.01010279,8,0,0,23,9,42020738,64612127,63121938,53510638,0,0,21110319,0,0,20910419,0,0,0,10800809,0,0,0,0,0,22010709,0,31800609,0,0,40710119,21411619,-1000200,0,0,0,0,0,0,11610119,0,0,0,0,0,41900519
7,207,425.500558689237,0,0,1840138.5983139,1840139.6453465,8,0,0,10,19,73513837,120958425,153233965,150735275,0,0,0,0,0,31811819,11200909,30501109,0,-3010051,11411009,10711819,40501809,32011209,12000519,0,0,11312009,40500519,30100709,0,32011909,40410419,10210409,0,0,0,40002019,40000419,30010109,0,0,10711219,0,30011509,0
7,208,867.323333630338,1,0,1840141.0923828,1840142.13941849,8,0,1,31,31,207825593,198859331,218718322,178837954,0,40800809,21500519,40601219,11501019,30600609,31410909,0,31410509,12011109,20211009,10900319,11610109,20201919,40300719,41111609,31811119,10701419,30601109,10200309,21400819,41400719,21501319,31511819,40300719,0,21801509,20100709,10410109,11111009,-3091061,31501119,40411209,31500719,30712019,0
7,209,708.444555522874,1,0,1840171.58597936,1840172.63301235,9,1,1,33,9,62013328,94434165,21610109,43631649,0,0,41601409,0,0,0,0,0,20411919,10800319,10210009,0,0,10011919,0,0,41900409,21511509,0,0,0,0,0,0,0,0,21610109,0,0,0,0,0,-3130140,40501509,0,0
7,210,586.745691951364,0,0,1840174.35063386,1840175.39766608,9,0,0,29,19,193835684,41522828,179137712,94782697,41310609,0,30700819,40400619,21200609,0,20111219,0,40111809,0,0,0,11511619,0,30011209,0,0,0,21810109,11201619,41411009,11702019,10302009,11810009,30700519,40200419,0,10810819,-2071140,40600019,0,0,41300719,0,0,0
7,211,532.375730574131,0,0,1840177.0917684,1840178.13880678,9,1,0,5,3,44141999,0,30501309,11600919,0,0,41111819,0,-3030180,0,0,0,0,0,0,0,0,0,0,0,0,0,0,0,0,0,0,0,0,30501309,0,0,0,0,0,11600919,0,0,0,0
7,212,439.171677455306,0,0,1840179.67995911,1840180.72699749,9,0,0,27,3,42000709,11610419,2000021,31701809,0,0,0,0,0,0,0,42000709,0,0,0,11610419,0,0,0,0,0,0,0,0,0,0,0,0,0,0,-2000021,0,0,0,31701809,0,0,0,0,0
7,213,352.019595447928,0,0,1840182.20934357,1840183.25637155,9,0,0,33,0,0,0,0,0,0,0,0,0,0,0,0,0,0,0,0,0,0,0,0,0,0,0,0,0,0,0,0,0,0,0,0,0,0,0,0,0,-11811791,0,0,0
7,214,425.288445316255,1,0,1840184.67987173,1840185.72691088,9,1,1,21,31,179869022,175937722,205598234,207036182,11212019,20110809,22011709,0,30201819,40711419,11600709,32010319,12010219,30401409,30900519,0,41900819,10011619,11700019,10211919,10700709,30110709,30100819,40910409,-1141131,20201719,21010209,30710419,30612019,0,30911509,30500609,31201609,30000409,11200519,41811409,20300309,10711209,0,31310109
7,215,544.676773017272,1,0,1840187.33865388,1840188.38568725,9,1,1,19,3,40611009,33210918,1201121,0,0,0,0,0,0,0,0,40611009,0,0,0,0,11610409,0,21600509,0,0,0,-1201121,0,0,0,0,0,0,0,0,0,0,0,0,0,0,0,0,0
7,216,546.135390177369,1,0,1840189.97389759,1840191.02094021,9,1,1,8,31,139875495,291660411,237925022,208737032,21401709,0,21210519,0,30900219,12010219,11001409,-2040001,41311419,21111519,22010719,41701819,42001609,40400409,30310309,31201109,41311009,21611909,40001819,11510509,31201019,30800119,11300409,41610909,0,41400219,30100019,40310819,30410419,40800919,41600919,11100309,21401319,0,11201209,11911119
7,217,563.490200322121,0,0,1840192.6915014,1840193.73869338,9,0,0,31,31,207138213,158150993,249348131,241151783,41601919,40700409,21800319,0,10811819,30711509,41212019,20300219,0,20100309,21502009,0,0,11611119,40011919,11511819,21501909,31911909,31301109,21401109,41410319,10810209,41211119,30201419,21401419,21510819,30100609,31710409,21701619,21911809,-1001091,21701809,30911409,40011509,41601819,30600309
7,218,942.75681884028,1,0,1840195.45615859,1840196.50327666,9,0,1,36,9,52511728,53814337,21400019,75682888,0,0,0,21710809,0,30800919,0,0,0,21411419,0,21301309,0,0,0,0,11101609,0,0,21400019,0,0,0,0,0,0,0,0,20400809,0,40610409,0,0,0,11511519,-3160151
7,219,477.230072952807,1,0,1840198.57376186,1840199.62079254,9,0,1,20,9,43313647,73602457,32791659,31700838,0,21201119,11001219,0,11111309,0,0,0,0,32000719,0,0,0,31100519,0,0,0,10501219,0,-1081040,0,0,0,0,0,31710619,0,20200819,0,11500019,0,0,0,0,0,0
7,220,597.518054535612,0,0,1840201.27960433,1840202.326625,9,1,0,17,19,112325646,209354215,103013327,137044974,0,21101019,0,40611409,0,0,0,20111909,30501309,0,31011209,40901209,0,21810209,31600819,41010319,-3010041,40010409,0,0,0,0,30900909,0,0,41000809,31111609,11610509,10601919,0,0,20411009,31610309,21300919,41510309,0
7,221,447.335929609835,0,0,1840204.02072848,1840205.06775069,9,0,0,23,3,0,21901419,44283478,0,0,0,0,0,0,0,0,0,0,0,0,0,0,0,0,21901419,0,0,0,0,30901719,0,-3071140,10310619,0,0,0,0,0,0,0,0,0,0,0,0
7,222,601.0943420697,1,0,1840206.60891495,1840207.65595564,9,0,1,4,3,63472239,0,0,21000419,0,0,0,-2170101,0,0,0,40501819,20800319,0,0,0,0,0,0,0,0,0,0,0,0,0,0,0,0,0,0,0,0,0,0,0,0,21000419,0,0
7,223,581.188395386562,0,0,1840209.26769133,1840210.31473317,9,0,0,18,31,166928322,203059673,196037933,206838912,10500619,11100809,11200719,20701819,40811209,31000219,20011419,21601509,0,40802019,21300619,31201019,21912009,20610119,11801219,11310709,40001909,-4120051,30111219,0,31101719,40211019,11800119,0,20900219,20502019,41411619,21600419,40011309,30101509,0,10201109,31101719,42010119,21301219,10511509
7,224,420.840221224353,1,0,1840211.95000345,1840212.99703798,9,1,1,28,9,31110109,103624027,71212137,86463468,0,31110109,0,0,0,0,0,0,0,0,0,40911809,20711809,42000409,0,0,0,0,40410109,0,20500609,0,0,0,0,0,10301419,-4061150,0,0,0,0,41302009,0,0,41100309
7,225,469.019240466878,0,0,1840214.45584292,1840215.50287206,9,1,0,34,19,62020837,136646733,144746675,94864046,0,20810209,30400409,0,0,0,0,10810219,0,11610219,21711119,0,10210219,40901319,20801319,11411419,20001119,0,0,10511309,0,40402019,0,12011219,0,40510719,41311409,10011219,0,40301009,11600209,0,30811509,-2140100,0,0
7,226,433.723324909806,1,0,1840217.0322673,1840218.07931184,9,0,1,10,19,157016265,74805167,156225674,143305675,40111619,22000909,0,41801309,0,0,0,42001219,11101209,-2081030,10601409,31111209,0,0,0,0,0,31011519,0,40000219,11501309,0,42011609,0,40501119,11800809,10410609,31800219,0,20700519,0,30101319,0,20201709,0,40501909
7,227,616.219843039289,1,0,1840219.51458258,1840220.56161865,9,0,1,24,31,205876612,138315684,224226323,237758121,30111519,31210409,30810309,0,10611009,31610909,30210419,31010019,10302019,12010819,20800909,31601609,0,0,11401619,21700509,0,40800219,21600119,11201719,32001219,20910019,11710619,-2100191,42001009,41200619,41500809,41210719,20010009,10211309,30401009,31810419,10300519,41402019,10700109,41712009
7,228,370.856120251119,0,0,1840222.34982622,1840223.39686383,9,0,0,14,19,147554964,95784347,54112656,155336065,11700509,0,0,21410419,0,41410009,40811309,11210909,21011809,30211519,11801009,0,0,-2060191,0,40611109,0,11100519,0,0,21401119,0,11611009,10000019,11100509,0,0,0,40400609,31911119,0,20312009,31211419,31500909,0,0
7,229,498.024894157425,0,0,1840224.85566107,1840225.90270214,9,1,0,3,0,0,0,0,0,0,0,-10201691,0,0,0,0,0,0,0,0,0,0,0,0,0,0,0,0,0,0,0,0,0,0,0,0,0,0,0,0,0,0,0,0,0
7,230,779.891384998336,1,0,1840227.44387834,1840228.49093751,9,0,1,1,9,65063898,95111637,104023947,31001519,-2141080,0,0,41411709,0,0,21511109,0,0,0,11700119,0,0,41910809,0,0,41500709,0,0,31711709,0,0,0,31101819,0,41210419,0,0,0,0,0,0,0,31001519,0,0
7,231,584.198405267671,0,0,1840230.34969687,1840231.39672832,9,1,0,6,9,57813787,94433447,30900409,21321728,0,0,0,0,22010619,-3191150,11610909,21001109,0,41111009,0,0,0,0,0,31412019,21910419,0,0,0,0,0,0,0,0,30900409,0,10510609,10811119,0,0,0,0,0,0,0
7,232,607.802671613172,1,0,1840233.03198974,1840234.07904698,9,1,1,13,31,200347402,230066334,258768031,116547203,31611019,22000809,21510409,31910819,21302009,11900309,30000019,30112009,0,11800309,40201019,30110809,-3121041,41410109,21600009,0,41811619,40011419,41711519,31210219,21100019,31401609,10111409,21511509,20000919,41110219,40610609,21200809,20410519,20901619,11511419,10000109,0,22011309,10511419,0
7,233,634.236786048859,1,0,1840235.71431303,1840236.76134409,9,1,1,11,19,164736574,105134277,134853465,153933456,20512019,30601509,11300009,0,20000109,0,41810919,0,40512009,0,-2121201,0,0,0,20800919,20311119,41200419,20700619,20910909,41810509,10710219,30610219,30811609,0,0,0,0,30010009,0,0,0,0,41401319,0,42011319,40510809
7,234,468.239694600925,0,0,1840238.40838686,1840239.45541831,9,1,0,12,3,41101418,44311840,0,0,21000209,0,0,0,0,0,20101209,0,0,0,41310709,-3001131,0,0,0,0,0,0,0,0,0,0,0,0,0,0,0,0,0,0,0,0,0,0,0,0
7,235,567.394474288449,0,0,1840259.05509279,1840260.10213502,10,0,0,29,9,30901109,51920328,83915246,55891139,0,0,0,0,0,30901109,0,0,0,0,0,20910219,0,0,0,0,31010109,0,11111709,21501409,0,21301419,30000709,0,0,0,0,0,-3180111,0,0,0,0,21511019,0,31200009
7,236,488.094441127032,1,0,1840261.84328919,1840262.89032488,10,1,1,21,31,179869022,175937722,205598234,207036182,11212019,20110809,22011709,0,30201819,40711419,11600709,32010319,12010219,30401409,30900519,0,41900819,10011619,11700019,10211919,10700709,30110709,30100819,40910409,-1141131,20201719,21010209,30710419,30612019,0,30911509,30500609,31201609,30000409,11200519,41811409,20300309,10711209,0,31310109
7,237,545.142960734665,0,0,1840264.44325817,1840265.49027884,10,1,0,8,31,139875495,291660411,237925022,208737032,21401709,0,21210519,0,30900219,12010219,11001409,-2040001,41311419,21111519,22010719,41701819,42001609,40400409,30310309,31201109,41311009,21611909,40001819,11510509,31201019,30800119,11300409,41610909,0,41400219,30100019,40310819,30410419,40800919,41600919,11100309,21401319,0,11201209,11911119
7,238,611.055976711214,0,0,1840267.07849572,1840268.12553141,10,0,0,36,0,0,0,0,0,0,0,0,0,0,0,0,0,0,0,0,0,0,0,0,0,0,0,0,0,0,0,0,0,0,0,0,0,0,0,0,0,0,0,0,-41601991
7,239,576.574253384024,1,0,1840269.8078597,1840270.85489808,10,0,1,14,19,113453875,88216376,175847093,61203138,20510609,10710019,22011719,0,0,0,0,40111219,20110309,40811709,11301309,11300619,10401409,-4190011,0,10211319,0,0,20902009,40500709,0,30901219,0,21810319,30010909,11010909,20711019,0,30201719,0,0,0,0,0,0,31001419
7,240,441.248156828806,0,0,1840272.53722983,1840273.58427437,10,1,0,13,31,200347402,230066334,258768031,116547203,31611019,22000809,21510409,31910819,21302009,11900309,30000019,30112009,0,11800309,40201019,30110809,-3121041,41410109,21600009,0,41811619,40011419,41711519,31210219,21100019,31401609,10111409,21511509,20000919,41110219,40610609,21200809,20410519,20901619,11511419,10000109,0,22011309,10511419,0
7,241,500.636469339952,1,0,1840275.0665935,1840276.11363457,10,0,1,18,19,208456531,73570789,127858483,40110119,11710119,20601109,31210519,40400409,11310609,31411419,10610219,41201419,10000709,40010709,30400019,0,0,0,0,0,0,-3160061,31211819,11310809,10611809,10801509,11910309,30501209,21511019,0,0,40110119,0,0,0,0,0,0,0,0
7,242,584.304654505104,1,0,1840277.79595324,1840278.84300355,10,0,1,31,31,330841411,177948583,257158492,136957623,41611509,31001409,40512009,41801119,42001219,41901309,31000409,20510509,40501919,41011019,10802009,11811719,0,30910509,20500909,31010409,0,31902009,31411109,21410209,40200609,30201319,0,30201009,21210819,41411509,41111909,11300709,30511019,0,-3020020,30211119,10311509,10601419,20901709,20100119
7,243,401.44896809943,1,0,1840280.60768616,1840281.65472492,10,0,1,10,3,20200519,14521530,0,30011019,0,20200519,0,0,0,0,0,0,0,-4110111,0,0,0,10411419,0,0,0,0,0,0,0,0,0,0,0,0,0,30011019,0,0,0,0,0,0,0,0
7,244,387.688538292423,1,0,1840283.11352755,1840284.16056247,10,1,1,3,0,0,0,0,0,0,0,-10201691,0,0,0,0,0,0,0,0,0,0,0,0,0,0,0,0,0,0,0,0,0,0,0,0,0,0,0,0,0,0,0,0,0
7,245,509.250740753487,0,0,1840285.64289199,1840286.68993268,10,0,0,23,3,21111109,0,53291888,0,0,0,21111109,0,0,0,0,0,0,0,0,0,0,0,0,0,0,0,30200219,0,0,0,-1191060,21900609,0,0,0,0,0,0,0,0,0,0,0,0
7,246,493.611316895112,0,0,1840288.3605008,1840289.40753494,10,0,0,4,31,128578175,205335403,188071611,247386921,40100019,21211909,10911619,-1040191,0,21601609,21801719,0,11911109,30710219,20210819,41001409,11500509,0,40411119,40300809,21200519,0,11001409,31601909,31812009,10611419,30100009,20512019,31510609,10411409,10510819,30910209,32010109,30211619,40310519,20011119,20301919,20910709,41310209,11410509
7,247,445.871538016945,0,0,1840290.92516115,1840291.97219915,10,1,0,5,3,44141999,0,30501309,11600919,0,0,41111819,0,-3030180,0,0,0,0,0,0,0,0,0,0,0,0,0,0,0,0,0,0,0,0,30501309,0,0,0,0,0,11600919,0,0,0,0
7,248,454.191699391231,1,0,1840293.47806056,1840294.52509124,10,1,1,11,19,164736574,105134277,134853465,153933456,20512019,30601509,11300009,0,20000109,0,41810919,0,40512009,0,-2121201,0,0,0,20800919,20311119,41200419,20700619,20910909,41810509,10710219,30610219,30811609,0,0,0,0,30010009,0,0,0,0,41401319,0,42011319,40510809
7,249,510.038370965049,1,0,1840296.17213593,1840297.21917393,10,0,1,27,19,186457603,123414746,125177366,61523247,0,31810709,30811519,41800219,11111709,40211409,0,10500019,20212019,0,40501309,0,0,31700609,41200809,10012019,0,0,20501119,40701219,0,0,0,41110409,11611819,10111619,-1141181,0,0,30310819,0,10301519,0,0,20910909,0
7,250,433.144343551248,1,0,1840298.78387586,1840299.83089576,10,1,1,6,9,57813787,94433447,30900409,21321728,0,0,0,0,22010619,-3191150,11610909,21001109,0,41111009,0,0,0,0,0,31412019,21910419,0,0,0,0,0,0,0,0,30900409,0,10510609,10811119,0,0,0,0,0,0,0
7,251,414.718957152218,1,0,1840301.45440548,1840302.5014427,10,1,1,17,19,112325646,209354215,103013327,137044974,0,21101019,0,40611409,0,0,0,20111909,30501309,0,31011209,40901209,0,21810209,31600819,41010319,-3010041,40010409,0,0,0,0,30900909,0,0,41000809,31111609,11610509,10601919,0,0,20411009,31610309,21300919,41510309,0
7,252,418.712542159483,0,0,1840304.00731028,1840305.05434366,10,1,0,19,3,40611009,33210918,1201121,0,0,0,0,0,0,0,0,40611009,0,0,0,0,11610409,0,21600509,0,0,0,-1201121,0,0,0,0,0,0,0,0,0,0,0,0,0,0,0,0,0
7,253,768.040746916085,0,0,1840306.67784337,1840307.72488367,10,0,0,1,9,43831068,43002218,83504227,51523538,-2020040,30300219,0,0,0,0,0,11510809,0,0,0,0,11700409,31301809,0,0,0,0,0,0,0,21501209,31201509,0,30801509,0,0,31211719,0,0,0,0,20311819,0,0,0
7,254,503.867446444929,1,0,1840309.56015233,1840310.60724307,10,1,1,28,9,31110109,103624027,71212137,86463468,0,31110109,0,0,0,0,0,0,0,0,0,40911809,20711809,42000409,0,0,0,0,40410109,0,20500609,0,0,0,0,0,10301419,-4061150,0,0,0,0,41302009,0,0,41100309
7,255,411.141899880022,0,1,1840312.17187532,1840313.21890561,10,0,1,20,9,86025256,10011809,13670679,84222137,0,0,11901109,21510319,11101819,0,0,41512009,0,0,10011809,0,0,0,0,0,0,0,0,-2160070,0,0,0,0,0,11510609,0,11510519,0,41900009,0,30811609,0,0,0,0
7,256,442.604759242386,1,0,1840314.74829084,1840315.7953373,10,1,1,34,19,62020837,136646733,144746675,94864046,0,20810209,30400409,0,0,0,0,10810219,0,11610219,21711119,0,10210219,40901319,20801319,11411419,20001119,0,0,10511309,0,40402019,0,12011219,0,40510719,41311409,10011219,0,40301009,11600209,0,30811509,-2140100,0,0
7,257,607.623664662242,0,0,1840317.39532013,1840318.44235505,10,1,0,12,3,41101418,44311840,0,0,21000209,0,0,0,0,0,20101209,0,0,0,41310709,-3001131,0,0,0,0,0,0,0,0,0,0,0,0,0,0,0,0,0,0,0,0,0,0,0,0
7,258,536.673049675301,0,0,1840320.20704458,1840321.25412839,10,1,0,33,9,62013328,94434165,21610109,43631649,0,0,41601409,0,0,0,0,0,20411919,10800319,10210009,0,0,10011919,0,0,41900409,21511509,0,0,0,0,0,0,0,0,21610109,0,0,0,0,0,-3130140,40501509,0,0
7,259,708.206649404019,0,0,1840322.83052735,1840323.87756535,10,0,0,36,3,0,0,21712009,67641388,0,0,0,0,0,0,0,0,0,0,0,0,0,0,0,0,0,0,0,0,0,0,0,21712009,0,0,0,0,0,0,41910309,0,21711019,0,0,-4020060
7,260,790.40928860195,0,0,1840325.78341583,1840326.83045459,10,0,0,24,31,286856651,117416874,208338933,251548412,41511719,40410519,31600419,40001509,10811319,41710019,40700509,10010119,30100519,0,20301519,21600609,22001119,0,0,20801709,21111109,11600809,10810309,41011619,40610019,20101609,11000719,-1091131,40901609,21310809,21501109,41801709,30301319,22011609,22000419,30911119,41111909,21910319,41500009,0
7,261,675.742121879011,0,0,1840361.70047984,1840362.74758328,11,0,0,1,31,148345185,218727012,229339302,160841221,-4110001,40401609,30811919,10810019,10300309,20711319,31200009,0,0,20200109,21111519,30801319,0,30200409,31401809,41800019,11900409,31311419,11102009,40401319,11701919,31510609,41101509,21510009,31211719,0,40800209,11600119,11001509,20911809,10801109,11001619,21212009,41601709,20901019,11810319
7,262,472.607076633722,1,0,1840364.441619,1840365.48870974,11,1,1,6,9,57813787,94433447,30900409,21321728,0,0,0,0,22010619,-3191150,11610909,21001109,0,41111009,0,0,0,0,0,31412019,21910419,0,0,0,0,0,0,0,0,30900409,0,10510609,10811119,0,0,0,0,0,0,0
7,263,400.261748349294,1,0,1840367.01804646,1840368.06508907,11,0,1,18,3,10210709,32211749,10701309,0,0,0,0,0,0,0,0,0,10210709,31110709,0,0,0,0,0,0,0,-1101040,0,0,10701309,0,0,0,0,0,0,0,0,0,0,0,0,0,0,0
7,264,507.50070810318,0,0,1840369.58274338,1840370.62976829,11,0,0,29,3,0,83211038,21001219,1120141,0,0,0,0,0,0,0,0,0,0,42000919,0,0,41210119,0,0,0,0,0,0,0,0,0,21001219,0,0,0,0,-1120141,0,0,0,0,0,0,0
7,265,392.717668320984,0,1,1840372.28855968,1840373.33562616,11,1,1,19,3,40611009,33210918,1201121,0,0,0,0,0,0,0,0,40611009,0,0,0,0,11610409,0,21600509,0,0,0,-1201121,0,0,0,0,0,0,0,0,0,0,0,0,0,0,0,0,0
7,266,522.750166710466,1,0,1840374.84148373,1840375.88848669,11,1,1,5,3,44141999,0,30501309,11600919,0,0,41111819,0,-3030180,0,0,0,0,0,0,0,0,0,0,0,0,0,0,0,0,0,0,0,0,30501309,0,0,0,0,0,11600919,0,0,0,0
7,267,731.859420891851,1,0,1840377.53558104,1840378.58256206,11,1,1,33,9,62013328,94434165,21610109,43631649,0,0,41601409,0,0,0,0,0,20411919,10800319,10210009,0,0,10011919,0,0,41900409,21511509,0,0,0,0,0,0,0,0,21610109,0,0,0,0,0,-3130140,40501509,0,0
7,268,596.63533908315,0,0,1840380.42960052,1840381.47663967,11,0,0,36,3,0,61523138,22011319,1160181,0,0,0,0,0,0,0,0,0,0,20211819,0,0,0,0,0,0,41311319,0,0,22011319,0,0,0,0,0,0,0,0,0,0,0,0,0,0,-1160181
7,269,661.331878276542,1,0,1840383.2648353,1840384.31189717,11,0,1,24,31,136537493,137966693,222470323,240081231,30811309,22000009,11210919,0,20901509,10500319,0,30802019,10311409,11610819,21311719,0,0,31000509,12010509,10011609,41510709,10510819,31910019,11811619,41911309,21111309,11110519,-2201001,20311519,40601419,41501609,11211309,11701319,20810519,31201409,31110809,41211719,30011909,41311319,21510919
7,270,462.171939900145,0,0,1840386.14716159,1840387.19418611,11,1,0,28,9,31110109,103624027,71212137,86463468,0,31110109,0,0,0,0,0,0,0,0,0,40911809,20711809,42000409,0,0,0,0,40410109,0,20500609,0,0,0,0,0,10301419,-4061150,0,0,0,0,41302009,0,0,41100309
7,271,422.816610895097,1,0,1840388.6883374,1840389.73533498,11,1,1,21,31,179869022,175937722,205598234,207036182,11212019,20110809,22011709,0,30201819,40711419,11600709,32010319,12010219,30401409,30900519,0,41900819,10011619,11700019,10211919,10700709,30110709,30100819,40910409,-1141131,20201719,21010209,30710419,30612019,0,30911509,30500609,31201609,30000409,11200519,41811409,20300309,10711209,0,31310109
7,272,379.238260211423,0,0,1840391.30001997,1840392.34705065,11,0,0,14,19,143134885,98986217,165607113,50613337,0,21511809,30301119,30700819,40610319,20010819,0,0,0,0,30901319,21001609,31210419,-4161051,0,0,11711819,0,0,31701209,40400519,10200819,11100619,11200719,40001309,0,21001919,10001809,0,0,0,20501119,0,0,0,20110409
7,273,597.712074872106,0,0,1840393.78233216,1840394.82938132,11,0,0,23,31,215039993,198948131,175957784,215747832,20311409,31301619,0,0,40201209,20000509,41011519,21911809,40301919,11411319,10600409,20200819,30411609,21711319,30511009,11800519,31600519,30700609,30500519,21301109,10011009,31811119,-1120101,20501009,0,20401309,40311609,30800219,31010709,0,31012009,20301219,30210319,11701319,20010819,40701219
7,274,508.336458355188,0,0,1840396.46463004,1840397.51168036,11,1,0,34,19,62020837,136646733,144746675,94864046,0,20810209,30400409,0,0,0,0,10810219,0,11610219,21711119,0,10210219,40901319,20801319,11411419,20001119,0,0,10511309,0,40402019,0,12011219,0,40510719,41311409,10011219,0,40301009,11600209,0,30811509,-2140100,0,0
7,275,698.211908340454,1,0,1840399.19400749,1840400.24103971,11,0,1,1,0,0,0,0,0,-30301791,0,0,0,0,0,0,0,0,0,0,0,0,0,0,0,0,0,0,0,0,0,0,0,0,0,0,0,0,0,0,0,0,0,0,0
7,276,622.127068927512,0,0,1840402.0410217,1840403.08805392,11,1,0,17,19,112325646,209354215,103013327,137044974,0,21101019,0,40611409,0,0,0,20111909,30501309,0,31011209,40901209,0,21810209,31600819,41010319,-3010041,40010409,0,0,0,0,30900909,0,0,41000809,31111609,11610509,10601919,0,0,20411009,31610309,21300919,41510309,0
7,277,618.032624246553,0,0,1840404.88803167,1840405.93507274,11,0,0,27,9,20811519,30900319,94902257,81933466,0,0,0,0,0,20811519,0,0,0,0,0,0,0,0,0,30900319,0,0,0,0,40200219,10010419,40610609,0,0,0,-4081010,20711919,20510209,0,10610319,0,0,30101019,0,0
7,278,589.617115911096,1,0,1840407.7115236,1840408.75855582,11,1,1,12,3,41101418,44311840,0,0,21000209,0,0,0,0,0,20101209,0,0,0,41310709,-3001131,0,0,0,0,0,0,0,0,0,0,0,0,0,0,0,0,0,0,0,0,0,0,0,0
7,279,451.888092793524,1,0,1840410.48795098,1840411.5349805,11,1,1,11,19,164736574,105134277,134853465,153933456,20512019,30601509,11300009,0,20000109,0,41810919,0,40512009,0,-2121201,0,0,0,20800919,20311119,41200419,20700619,20910909,41810509,10710219,30610219,30811609,0,0,0,0,30010009,0,0,0,0,41401319,0,42011319,40510809
7,280,627.184686018154,0,0,1840413.14672543,1840414.19376304,11,1,0,13,31,200347402,230066334,258768031,116547203,31611019,22000809,21510409,31910819,21302009,11900309,30000019,30112009,0,11800309,40201019,30110809,-3121041,41410109,21600009,0,41811619,40011419,41711519,31210219,21100019,31401609,10111409,21511509,20000919,41110219,40610609,21200809,20410519,20901619,11511419,10000109,0,22011309,10511419,0
7,281,464.250344084576,0,0,1840415.85258023,1840416.89960475,11,0,0,20,19,154414575,106347084,76416688,104824355,0,0,0,31001709,20111309,0,21001119,41500019,40800419,0,11101919,20600919,22010909,12011009,0,20010909,0,20611419,41111909,-4191161,0,0,0,10312009,0,0,20801609,10310409,0,0,0,20601509,31911519,31800109,0,10200809
7,282,404.584474861622,1,0,1840418.37018026,1840419.4172144,11,0,1,10,9,63113747,4081011,74622746,41712418,0,0,0,0,11401619,31410109,20302019,0,0,-4081011,0,0,0,0,0,0,0,0,21500309,21512009,0,0,0,0,11600219,20010209,0,0,0,0,21111809,0,0,20600609,0,0
7,283,524.398569716141,0,0,1840420.95836634,1840422.00540819,11,0,0,4,9,14012710,41401028,113513146,62111938,0,0,10811609,-3201101,0,0,0,0,0,20500009,0,0,0,0,0,20901019,0,0,31410009,0,0,0,0,40400709,20800919,20901509,0,0,0,0,0,0,0,20400019,41711919,0
7,284,515.985632780939,1,0,1840423.58185682,1840424.6288925,11,1,1,8,31,139875495,291660411,237925022,208737032,21401709,0,21210519,0,30900219,12010219,11001409,-2040001,41311419,21111519,22010719,41701819,42001609,40400409,30310309,31201109,41311009,21611909,40001819,11510509,31201019,30800119,11300409,41610909,0,41400219,30100019,40310819,30410419,40800919,41600919,11100309,21401319,0,11201209,11911119
7,285,372.119947103783,0,1,1840426.19358519,1840427.24060317,11,1,1,3,0,0,0,0,0,0,0,-10201691,0,0,0,0,0,0,0,0,0,0,0,0,0,0,0,0,0,0,0,0,0,0,0,0,0,0,0,0,0,0,0,0,0
7,286,681.550412904471,0,0,1840428.65236742,1840429.69939695,11,0,0,31,19,124602357,216544894,157344875,126972566,0,0,0,0,41301619,41300619,0,0,42000119,0,41710209,0,21410519,40610009,41600419,0,30202019,41011719,0,0,0,41810419,21810109,30601909,0,41511019,21611419,0,10610819,0,-2140091,0,21810119,40600009,21110009,30701519
7,287,517.023872584105,0,0,1840440.67577035,1840441.72280642,12,0,0,4,31,172208893,188755393,177837621,231357512,20702009,11011119,10901519,-2181180,31900419,31611219,0,32000509,31900919,0,11910809,40710209,11810519,21410619,0,31510209,40401309,31001719,10010319,21302009,20000119,11510509,11601109,20801319,10910009,30000919,41701309,42010719,31601519,11000519,21711809,21500809,0,41511219,21510309,40510609
7,288,376.304087927565,0,0,1840443.29919923,1840444.34623299,12,1,0,8,31,139875495,291660411,237925022,208737032,21401709,0,21210519,0,30900219,12010219,11001409,-2040001,41311419,21111519,22010719,41701819,42001609,40400409,30310309,31201109,41311009,21611909,40001819,11510509,31201019,30800119,11300409,41610909,0,41400219,30100019,40310819,30410419,40800919,41600919,11100309,21401319,0,11201209,11911119
7,289,457.689069677144,0,0,1840445.86392657,1840446.91089719,12,1,0,5,3,44141999,0,30501309,11600919,0,0,41111819,0,-3030180,0,0,0,0,0,0,0,0,0,0,0,0,0,0,0,0,0,0,0,0,30501309,0,0,0,0,0,11600919,0,0,0,0
7,290,1246.0194400046,0,0,1840448.52263943,1840449.56968242,12,0,0,36,19,103234156,64931766,156735564,97915506,41800609,10811419,0,0,40510509,10111619,0,0,0,11900409,0,0,21610519,0,0,10610219,20810619,0,0,40510709,0,41301809,11211109,11001009,31910719,20800209,0,10801219,0,21501319,20201019,20610309,0,0,21711619,-3090021
7,291,580.764553509653,1,0,1840451.91083752,1840452.95786089,12,1,1,6,9,57813787,94433447,30900409,21321728,0,0,0,0,22010619,-3191150,11610909,21001109,0,41111009,0,0,0,0,0,31412019,21910419,0,0,0,0,0,0,0,0,30900409,0,10510609,10811119,0,0,0,0,0,0,0
7,292,490.394198102877,0,0,1840454.64018571,1840455.68723526,12,1,0,19,3,40611009,33210918,1201121,0,0,0,0,0,0,0,0,40611009,0,0,0,0,11610409,0,21600509,0,0,0,-1201121,0,0,0,0,0,0,0,0,0,0,0,0,0,0,0,0,0
7,293,470.191831700504,1,0,1840457.24015353,1840458.28718729,12,0,1,23,9,62020638,32713638,105604628,53112928,0,0,0,0,20510019,0,41510619,0,0,0,21302019,0,0,0,0,11411619,0,0,0,31201719,30911009,0,-2181191,0,0,41310709,0,0,0,0,11601019,41511909,0,0,0,0
7,294,441.166930133477,1,0,1840459.78129162,1840460.82836156,12,1,1,11,19,164736574,105134277,134853465,153933456,20512019,30601509,11300009,0,20000109,0,41810919,0,40512009,0,-2121201,0,0,0,20800919,20311119,41200419,20700619,20910909,41810509,10710219,30610219,30811609,0,0,0,0,30010009,0,0,0,0,41401319,0,42011319,40510809
7,295,773.230405757204,1,0,1840462.28714071,1840463.33417332,12,0,1,20,19,32615537,93743676,130657705,187966684,0,11801619,0,0,0,0,0,10412009,10401909,31710219,0,12011719,0,0,40010219,0,0,10011519,31311019,-2120201,0,11610409,0,41811219,11600819,11002019,21202019,30311719,0,0,41812019,31711009,0,21810209,40610109,21711619
7,296,665.09102191776,0,0,1840465.16944044,1840466.21647497,12,0,0,31,19,166456275,126636365,102326255,127013817,0,0,21211919,0,0,41211909,41911609,21610319,40510519,31612019,21501609,0,41001019,11910309,20611409,0,0,0,0,20400109,20901709,20911319,0,0,20101509,20011609,0,0,31111409,0,-3080161,30511419,0,21710519,0,40600309
7,297,728.51757472381,0,0,1840468.08703839,1840469.13408254,12,0,0,29,9,82112128,10910119,61611118,114674227,0,41300709,0,0,40811419,0,0,0,0,0,0,0,10910119,0,0,0,0,0,40600609,0,0,0,0,0,0,0,21010509,30300809,-2150191,0,0,40511109,21311809,0,20400309,0
7,298,559.578611981124,0,0,1840470.8987613,1840471.94580045,12,0,0,24,3,21811219,30511709,45610390,0,0,0,21811219,0,0,0,0,0,0,0,0,30511709,0,0,0,0,0,0,0,0,0,0,0,-4010071,0,0,41600319,0,0,0,0,0,0,0,0,0
7,299,574.356493307278,1,0,1840473.58108189,1840474.62811257,12,1,1,21,31,179869022,175937722,205598234,207036182,11212019,20110809,22011709,0,30201819,40711419,11600709,32010319,12010219,30401409,30900519,0,41900819,10011619,11700019,10211919,10700709,30110709,30100819,40910409,-1141131,20201719,21010209,30710419,30612019,0,30911509,30500609,31201609,30000409,11200519,41811409,20300309,10711209,0,31310109
7,300,600.58003407903,1,0,1840476.25162883,1840477.29866452,12,1,1,3,0,0,0,0,0,0,0,-10201691,0,0,0,0,0,0,0,0,0,0,0,0,0,0,0,0,0,0,0,0,0,0,0,0,0,0,0,0,0,0,0,0,0
7,301,676.062024431303,0,0,1840478.98098049,1840480.02817478,12,1,0,34,19,62020837,136646733,144746675,94864046,0,20810209,30400409,0,0,0,0,10810219,0,11610219,21711119,0,10210219,40901319,20801319,11411419,20001119,0,0,10511309,0,40402019,0,12011219,0,40510719,41311409,10011219,0,40301009,11600209,0,30811509,-2140100,0,0
7,302,508.663290413097,1,0,1840481.85153968,1840482.89857344,12,1,1,28,9,31110109,103624027,71212137,86463468,0,31110109,0,0,0,0,0,0,0,0,0,40911809,20711809,42000409,0,0,0,0,40410109,0,20500609,0,0,0,0,0,10301419,-4061150,0,0,0,0,41302009,0,0,41100309
7,303,555.441051721573,1,0,1840484.59267191,1840485.63971106,12,0,1,27,9,41513318,73024247,87814337,30800519,0,0,30411909,0,0,0,0,11101409,0,0,0,32001419,0,20711209,0,0,20311619,0,41210809,0,31600619,0,11811819,0,0,0,-3191090,30800519,0,0,0,0,0,0,0,0
7,304,494.81970933266,1,0,1840487.20439836,1840488.25148717,12,1,1,12,3,41101418,44311840,0,0,21000209,0,0,0,0,0,20101209,0,0,0,41310709,-3001131,0,0,0,0,0,0,0,0,0,0,0,0,0,0,0,0,0,0,0,0,0,0,0,0
7,305,493.082765489817,1,0,1840489.76906064,1840490.8160994,12,0,1,10,31,200670201,211400423,177946393,180358722,31010209,11111109,11301109,11310319,10511209,40900919,11711709,31301609,41512009,-3161020,0,20611209,31500919,20801219,30911509,40701809,41901619,21811119,21900409,21210219,31810509,41610909,21100819,0,0,30301809,10011719,11800219,21910709,32011919,0,31511609,30711319,10411719,31100709,10900519
7,306,640.160180162638,0,0,1840492.46314101,1840493.51017593,12,1,0,13,31,200347402,230066334,258768031,116547203,31611019,22000809,21510409,31910819,21302009,11900309,30000019,30112009,0,11800309,40201019,30110809,-3121041,41410109,21600009,0,41811619,40011419,41711519,31210219,21100019,31401609,10111409,21511509,20000919,41110219,40610609,21200809,20410519,20901619,11511419,10000109,0,22011309,10511419,0
7,307,595.688720000908,1,0,1840495.25133665,1840496.29841506,12,0,1,31,0,0,0,0,0,0,0,0,0,0,0,0,0,0,0,0,0,0,0,0,0,0,0,0,0,0,0,0,0,0,0,0,0,0,0,-41600891,0,0,0,0,0
7,308,453.904133290052,1,0,1840498.06305263,1840499.11008408,12,1,1,17,19,112325646,209354215,103013327,137044974,0,21101019,0,40611409,0,0,0,20111909,30501309,0,31011209,40901209,0,21810209,31600819,41010319,-3010041,40010409,0,0,0,0,30900909,0,0,41000809,31111609,11610509,10601919,0,0,20411009,31610309,21300919,41510309,0
7,309,482.842418830842,0,0,1840500.65124603,1840501.69834562,12,0,0,14,31,139237993,190227833,185047622,217859902,30610719,0,11000709,0,11810719,21700619,21701809,32011709,10401709,41200519,11210409,30900009,21012009,-3191021,30100719,11111109,30500819,11001219,40201319,20600709,20210419,11211319,30901209,31710709,10010119,0,20201819,20810919,11001109,11912009,41111219,40711109,40910619,0,41400909,10002009
7,310,435.951094143093,1,0,1840503.35708581,1840504.40418963,12,0,1,18,3,40300519,24010989,21211709,0,0,0,40300519,0,0,0,0,0,0,22010919,0,0,0,0,0,0,0,-2000070,0,0,0,0,0,0,0,0,21211709,0,0,0,0,0,0,0,0,0
7,311,434.003576636314,0,0,1840506.00417131,1840507.05118621,12,0,0,1,3,4181141,122113047,0,0,-4181141,0,0,0,0,0,0,0,0,41501419,0,0,40301409,0,0,40310219,0,0,0,0,0,0,0,0,0,0,0,0,0,0,0,0,0,0,0,0
7,312,475.566271692514,0,0,1840508.59230735,1840509.63933149,12,1,0,33,9,62013328,94434165,21610109,43631649,0,0,41601409,0,0,0,0,0,20411919,10800319,10210009,0,0,10011919,0,0,41900409,21511509,0,0,0,0,0,0,0,0,21610109,0,0,0,0,0,-3130140,40501509,0,0
7,313,726.176627213135,0,0,1840527.86258729,1840528.90963606,13,0,0,36,19,166832865,134015714,113625665,66423568,22010719,0,0,0,20600409,41510909,0,40910319,41800509,0,0,31101919,0,30400319,10000119,10901119,10010919,41601319,20001809,0,0,10011019,0,30001409,41800009,0,11811419,0,0,0,41011609,11111009,0,0,10100909,-4200041
7,314,575.997581938282,1,0,1840530.65078638,1840531.69782553,13,0,1,31,9,136125856,30511528,62622418,13052720,0,31410919,0,0,21012019,0,41701609,0,42001309,20011209,0,0,0,0,10500319,0,0,0,0,21810509,0,0,0,0,0,0,40811909,0,0,0,-2151101,0,10901619,0,0,0
7,315,819.657082203776,0,0,1840533.43903976,1840534.48603349,13,1,0,34,19,62020837,136646733,144746675,94864046,0,20810209,30400409,0,0,0,0,10810219,0,11610219,21711119,0,10210219,40901319,20801319,11411419,20001119,0,0,10511309,0,40402019,0,12011219,0,40510719,41311409,10011219,0,40301009,11600209,0,30811509,-2140100,0,0
7,316,439.324507024139,1,0,1840536.36835015,1840537.41539123,13,0,1,14,9,61301028,34743488,95035166,41010509,0,0,31100719,0,0,30200309,0,0,0,0,0,0,0,-2131060,11912009,0,20700419,0,0,0,21510519,11001509,32011319,0,30511819,0,0,0,0,0,0,0,0,41010509,0,0
7,317,436.883469345048,0,0,1840538.99186026,1840540.03887361,13,0,0,10,3,21010709,4031021,11011819,41800609,21010709,0,0,0,0,0,0,0,0,-4031021,0,0,0,0,0,0,0,0,0,0,0,0,11011819,0,0,0,0,0,0,0,0,0,0,41800609,0,0
7,318,499.046965502203,1,0,1840541.49768626,1840542.54470462,13,1,1,12,3,41101418,44311840,0,0,21000209,0,0,0,0,0,20101209,0,0,0,41310709,-3001131,0,0,0,0,0,0,0,0,0,0,0,0,0,0,0,0,0,0,0,0,0,0,0,0
7,319,409.451151266694,0,0,1840544.16822473,1840545.21527351,13,1,0,13,31,200347402,230066334,258768031,116547203,31611019,22000809,21510409,31910819,21302009,11900309,30000019,30112009,0,11800309,40201019,30110809,-3121041,41410109,21600009,0,41811619,40011419,41711519,31210219,21100019,31401609,10111409,21511509,20000919,41110219,40610609,21200809,20410519,20901619,11511419,10000109,0,22011309,10511419,0
7,320,709.324961062521,1,0,1840546.76819909,1840547.81522862,13,0,1,24,31,147544603,177737012,219978113,251038021,20512009,0,0,11010409,21000219,10910119,21901409,41010019,21200419,41601009,30200109,11300119,20901519,11210209,0,31011719,20301009,11211319,31311309,31310109,0,41010719,20711619,-2001100,32011419,30611619,31010219,31402009,11200609,31501109,10910519,31500209,31311319,21211219,42000119,40000909
7,321,421.114313649014,0,0,1840549.60344196,1840550.65047534,13,0,0,27,3,21311619,20202019,3050160,20110919,0,0,0,0,21311619,0,0,0,0,0,0,0,20202019,0,0,0,0,0,0,0,0,0,0,0,0,0,-3050160,0,0,20110919,0,0,0,0,0,0
7,322,679.343046620488,0,0,1840552.21516687,1840553.26219986,13,0,0,1,19,144772737,103513437,153647113,125726675,-3061181,0,0,0,0,30900509,40510019,40000619,30300409,21301309,0,0,0,0,0,40301509,0,41910619,30710319,20502009,0,20501119,20810019,0,10100819,20411819,30611009,0,32001809,0,11601209,40702019,30811519,10610119,0,0
7,323,691.952827852219,1,0,1840555.05041859,1840556.09746159,13,0,1,4,19,139556274,113035046,116225265,114125166,0,12010419,21210309,-1021190,21901409,30911419,0,21200619,31300909,41110409,0,0,0,0,0,10911609,40101009,20912019,0,21111519,0,11511119,22000709,0,0,30601509,31000409,0,40701209,0,0,11311719,41801919,20310319,0,0
7,324,540.74093233794,0,0,1840557.93273218,1840558.9797644,13,1,0,17,19,112325646,209354215,103013327,137044974,0,21101019,0,40611409,0,0,0,20111909,30501309,0,31011209,40901209,0,21810209,31600819,41010319,-3010041,40010409,0,0,0,0,30900909,0,0,41000809,31111609,11610509,10601919,0,0,20411009,31610309,21300919,41510309,0
7,325,544.530488085002,0,0,1840560.62680178,1840561.67384516,13,0,0,29,31,263349192,250579931,169028302,168857095,40900819,10701009,40510809,40301609,40310009,30011719,0,20502009,40111209,20510809,21601709,41610819,21910919,30411319,31510709,10810319,40901609,31311719,0,31600509,11600919,20211209,12000009,21010519,31101109,31202009,10302019,11210409,-2031011,0,40911119,21701109,41601309,40601819,0,10800319
7,326,531.320552574471,0,0,1840563.26204973,1840564.30911313,13,1,0,33,9,62013328,94434165,21610109,43631649,0,0,41601409,0,0,0,0,0,20411919,10800319,10210009,0,0,10011919,0,0,41900409,21511509,0,0,0,0,0,0,0,0,21610109,0,0,0,0,0,-3130140,40501509,0,0
7,327,487.057741498575,1,0,1840565.94437301,1840566.9914087,13,0,1,23,9,71212328,21300909,53452608,95033756,0,0,40311009,0,0,0,0,0,30901319,0,0,0,0,0,0,21300909,0,0,0,0,0,0,-1041090,0,21010509,0,31401009,0,0,11100919,31711609,10610219,0,41611009,0,0
7,328,462.143067736179,1,0,1840568.59117673,1840569.63842028,13,1,1,28,9,31110109,103624027,71212137,86463468,0,31110109,0,0,0,0,0,0,0,0,0,40911809,20711809,42000409,0,0,0,0,40410109,0,20500609,0,0,0,0,0,10301419,-4061150,0,0,0,0,41302009,0,0,41100309
7,329,513.238551327959,1,0,1840571.20311605,1840572.25016098,13,1,1,6,9,57813787,94433447,30900409,21321728,0,0,0,0,22010619,-3191150,11610909,21001109,0,41111009,0,0,0,0,0,31412019,21910419,0,0,0,0,0,0,0,0,30900409,0,10510609,10811119,0,0,0,0,0,0,0
7,330,450.602708151564,0,0,1840573.873668,1840574.92068944,13,0,0,20,3,10811719,0,4060201,60910318,0,0,10811719,0,0,0,0,0,0,0,0,0,0,0,0,0,0,0,0,-4060201,0,0,0,0,0,0,0,0,0,40710309,0,0,0,0,20200009,0
7,331,393.564967438579,0,0,1840576.55597704,1840577.60302081,13,1,0,8,31,139875495,291660411,237925022,208737032,21401709,0,21210519,0,30900219,12010219,11001409,-2040001,41311419,21111519,22010719,41701819,42001609,40400409,30310309,31201109,41311009,21611909,40001819,11510509,31201019,30800119,11300409,41610909,0,41400219,30100019,40310819,30410419,40800919,41600919,11100309,21401319,0,11201209,11911119
7,332,415.245968615636,1,0,1840579.19123231,1840580.23826145,13,0,1,18,31,216856732,190485403,244550252,213227692,0,31310309,20300419,11911819,30311219,10901509,31010519,40210219,40900719,0,31702009,20610009,21401309,21010419,41011019,31410509,21310109,-2030020,20801319,40010919,40901919,0,20911219,30511619,31401919,40000619,20010719,11901409,31911509,41600609,31601309,0,11601109,11311019,41800119,31500609
7,333,430.988177424297,0,0,1840581.73242775,1840582.77943418,13,1,0,21,31,179869022,175937722,205598234,207036182,11212019,20110809,22011709,0,30201819,40711419,11600709,32010319,12010219,30401409,30900519,0,41900819,10011619,11700019,10211919,10700709,30110709,30100819,40910409,-1141131,20201719,21010209,30710419,30612019,0,30911509,30500609,31201609,30000409,11200519,41811409,20300309,10711209,0,31310109
7,334,647.883652010933,1,0,1840584.23821718,1840585.28524747,13,0,1,32,0,0,0,0,0,0,0,0,0,0,0,0,0,0,0,0,0,0,0,0,0,0,0,0,0,0,0,0,0,0,0,0,0,0,0,0,-41900001,0,0,0,0
7,335,469.753746176139,0,0,1840587.13232674,1840588.17937089,13,1,0,19,3,40611009,33210918,1201121,0,0,0,0,0,0,0,0,40611009,0,0,0,0,11610409,0,21600509,0,0,0,-1201121,0,0,0,0,0,0,0,0,0,0,0,0,0,0,0,0,0
7,336,388.022684492171,1,0,1840589.73224759,1840590.77934525,13,1,1,11,19,164736574,105134277,134853465,153933456,20512019,30601509,11300009,0,20000109,0,41810919,0,40512009,0,-2121201,0,0,0,20800919,20311119,41200419,20700619,20910909,41810509,10710219,30610219,30811609,0,0,0,0,30010009,0,0,0,0,41401319,0,42011319,40510809
7,337,422.649923013523,1,0,1840592.27339068,1840593.32045177,13,1,1,5,3,44141999,0,30501309,11600919,0,0,41111819,0,-3030180,0,0,0,0,0,0,0,0,0,0,0,0,0,0,0,0,0,0,0,0,30501309,0,0,0,0,0,11600919,0,0,0,0
7,338,433.713315986097,1,0,1840594.77929367,1840595.82630125,13,1,1,3,0,0,0,0,0,0,0,-10201691,0,0,0,0,0,0,0,0,0,0,0,0,0,0,0,0,0,0,0,0,0,0,0,0,0,0,0,0,0,0,0,0,0
7,339,453.777866438031,1,0,1840608.22608629,1840609.27316778,14,0,1,4,0,0,0,0,0,0,0,0,-10610201,0,0,0,0,0,0,0,0,0,0,0,0,0,0,0,0,0,0,0,0,0,0,0,0,0,0,0,0,0,0,0,0
7,340,857.887555379421,1,0,1840610.8261823,1840611.8730871,14,1,1,19,3,40611009,33210918,1201121,0,0,0,0,0,0,0,0,40611009,0,0,0,0,11610409,0,21600509,0,0,0,-1201121,0,0,0,0,0,0,0,0,0,0,0,0,0,0,0,0,0
7,341,512.663034722209,1,0,1840613.90839957,1840614.9553929,14,1,1,11,19,164736574,105134277,134853465,153933456,20512019,30601509,11300009,0,20000109,0,41810919,0,40512009,0,-2121201,0,0,0,20800919,20311119,41200419,20700619,20910909,41810509,10710219,30610219,30811609,0,0,0,0,30010009,0,0,0,0,41401319,0,42011319,40510809
7,342,571.094334125519,0,0,1840616.63772504,1840617.68476727,14,0,0,29,3,0,0,32010719,84472559,0,0,0,0,0,0,0,0,0,0,0,0,0,0,0,0,0,0,0,0,0,0,0,0,0,0,32010719,0,-2170031,0,41101209,41201319,0,0,0,0
7,343,504.971899557859,1,0,1840619.3788619,1840620.42589989,14,0,1,10,31,207825893,181928062,196214993,166149131,41600319,20400209,11911319,31101809,21900609,0,40500909,40410719,0,-3171050,22001509,30610309,21810209,10300019,30710909,31010619,20501919,11811519,20900209,30300319,31901009,41111609,0,11100619,30900109,30001119,0,10201009,10011719,41210409,10501619,20501119,20410419,10701009,11311419,31300409
7,344,548.217643983662,0,0,1840622.03764905,1840623.0846882,14,1,0,5,3,44141999,0,30501309,11600919,0,0,41111819,0,-3030180,0,0,0,0,0,0,0,0,0,0,0,0,0,0,0,0,0,0,0,0,30501309,0,0,0,0,0,11600919,0,0,0,0
7,345,773.180745542049,0,0,1840624.67290547,1840625.71994077,14,1,0,34,19,62020837,136646733,144746675,94864046,0,20810209,30400409,0,0,0,0,10810219,0,11610219,21711119,0,10210219,40901319,20801319,11411419,20001119,0,0,10511309,0,40402019,0,12011219,0,40510719,41311409,10011219,0,40301009,11600209,0,30811509,-2140100,0,0
7,346,600.660875905305,1,0,1840627.60234251,1840628.64930736,14,0,1,24,19,125316565,85834265,118064606,144814946,10911219,0,30701809,0,0,0,11800219,41301509,30601809,11010309,30700219,0,11511709,11111209,0,21500819,0,0,0,0,10300309,41210719,21610509,-1121041,0,21911609,21910419,0,0,0,40601709,41610019,41901909,0,20701309,0
7,347,431.322323624045,0,0,1840630.28458457,1840631.33162103,14,1,0,13,31,200347402,230066334,258768031,116547203,31611019,22000809,21510409,31910819,21302009,11900309,30000019,30112009,0,11800309,40201019,30110809,-3121041,41410109,21600009,0,41811619,40011419,41711519,31210219,21100019,31401609,10111409,21511509,20000919,41110219,40610609,21200809,20410519,20901619,11511419,10000109,0,22011309,10511419,0
7,348,422.422796022147,0,0,1840632.83748668,1840633.88452506,14,1,0,21,31,179869022,175937722,205598234,207036182,11212019,20110809,22011709,0,30201819,40711419,11600709,32010319,12010219,30401409,30900519,0,41900819,10011619,11700019,10211919,10700709,30110709,30100819,40910409,-1141131,20201719,21010209,30710419,30612019,0,30911509,30500609,31201609,30000409,11200519,41811409,20300309,10711209,0,31310109
7,349,570.529211312532,1,0,1840635.40215165,1840636.44919811,14,0,1,20,9,64034837,33112828,15772610,81933047,0,0,0,0,0,0,21811619,30511609,11711609,0,0,0,0,0,11711009,0,21401819,0,0,-4061001,0,11711609,0,0,0,0,0,0,0,0,10211819,0,31710109,0,0,40011119
7,350,460.04387573339,0,0,1840638.17858018,1840639.22561779,14,0,0,31,19,82325127,215446412,93855185,86813838,20401909,0,0,41911809,0,0,0,0,20011409,0,20600719,20611719,40010119,21111909,31000009,40401009,20900619,20810309,21311419,30811019,0,0,11112019,20410009,0,0,10210719,0,0,0,-3110191,0,21700719,21601319,0,40401609
