sub_id,Trial,RT,Resp,Error,Fix_onset,Disp_onset,block,repeat,tid,tloc,d_setsize,quad1,quad2,quad3,quad4,loc1,loc2,loc3,loc4,loc5,loc6,loc7,loc8,loc9,loc10,loc11,loc12,loc13,loc14,loc15,loc16,loc17,loc18,loc19,loc20,loc21,loc22,loc23,loc24,loc25,loc26,loc27,loc28,loc29,loc30,loc31,loc32,loc33,loc34,loc35,loc36
8,1,755.171947879717,0,0,1839815.04856495,1839816.09560525,1,0,0,27,31,260871202,289877741,202727614,185969203,41812009,31712019,42010719,21511719,30810509,0,31311309,21001009,40701909,40211109,21100309,20212009,41010319,41611019,31700419,41310419,21511619,31210519,12011009,12010309,11710419,40811019,41711519,40511909,41801319,0,-2160111,21011909,0,0,40411219,21610209,10411409,31212019,20610919,40701519
8,2,472.729940433055,0,0,1839818.02497377,1839819.07199405,1,0,0,9,3,3201071,0,51411728,20201209,0,0,0,0,0,0,0,0,-3201071,0,0,0,0,0,0,0,0,0,0,0,0,0,20411519,0,31000209,0,0,0,0,20201209,0,0,0,0,0,0
8,3,429.287480888888,1,0,1839820.55431164,1839821.60133886,1,1,1,6,3,35382438,20501609,0,0,11512019,0,0,0,0,-3170010,20700409,0,0,0,0,0,0,0,0,0,0,20501609,0,0,0,0,0,0,0,0,0,0,0,0,0,0,0,0,0,0
8,4,393.790230387822,0,0,1839823.08366107,1839824.13073332,1,1,0,15,9,63422957,13620959,10910309,115623946,0,0,31910619,0,20901519,0,0,0,10610819,0,10500919,0,0,0,-3120040,0,0,0,0,0,0,10910309,0,0,0,0,0,22000719,0,0,40110209,0,21901509,0,31611509,0
8,5,349.947026697919,1,0,1839825.68358115,1839826.73061106,1,0,1,15,0,0,0,0,0,0,0,0,0,0,0,0,0,0,0,0,0,0,0,-21101391,0,0,0,0,0,0,0,0,0,0,0,0,0,0,0,0,0,0,0,0,0
8,6,424.23756304197,0,0,1839828.1423399,1839829.18936981,1,0,0,20,3,51921628,20010009,1081201,0,0,0,0,41411619,0,10510009,0,0,0,0,0,0,20010009,0,0,0,0,0,0,-1081201,0,0,0,0,0,0,0,0,0,0,0,0,0,0,0,0
8,7,435.642416588962,1,0,1839830.70697523,1839831.75399859,1,1,1,29,19,63722457,108036175,114035875,219377325,0,0,21000619,31611719,0,11110119,0,0,0,21502019,31710919,0,10911709,0,0,0,11900219,32011309,0,0,30412019,0,30800509,20211119,11801909,20810319,0,42010609,-2031031,0,41010419,0,30801519,30801209,32011919,40710619
8,8,528.464588336647,0,0,1839833.35395948,1839834.40098785,1,1,0,19,19,125544355,64022437,86896567,199446003,20810909,0,41210519,10910309,0,21102009,0,31510609,0,41500319,0,0,11611109,10911009,0,0,0,0,-1071101,11610509,0,0,12011519,41401419,0,0,20802019,31810719,41401209,0,21710509,31611309,0,31700019,20211119,21001119
8,9,567.661698209122,0,0,1839836.1068284,1839837.15385562,1,0,0,34,19,113932965,53735956,133636894,114094357,11700819,40810409,0,30000109,0,21310919,0,10110709,0,11900409,0,0,0,0,0,11511719,20011909,10311919,10102019,0,20510809,0,40700419,20011009,31110819,0,11201819,0,21001319,0,30900519,0,0,-1091091,40400809,20700619
8,10,382.602110272273,1,0,1839838.81264508,1839839.85971657,1,1,1,12,3,0,24250759,22823328,0,0,0,0,0,0,0,0,0,0,0,0,-4040040,0,0,0,20210719,0,0,0,0,11011609,11811719,0,0,0,0,0,0,0,0,0,0,0,0,0,0
8,11,698.109954595566,0,0,1839841.28316246,1839842.33018121,1,0,0,32,31,288659821,218859731,196414384,190325914,20310219,31810819,30710919,30001109,41000509,41901309,31912009,40401509,20611419,20100409,20110919,41210909,11511009,31701019,30511909,30301419,11801719,21610419,40400809,20100719,21910119,0,40800109,41401909,0,0,31800719,30501419,21000909,10101009,40711609,-4000031,41500509,0,20510309,22000119
8,12,454.77382116951,1,0,1839844.15367353,1839845.20069305,1,0,1,11,3,30601219,2030111,71112628,0,0,30601219,0,0,0,0,0,0,0,0,-2030111,0,0,0,0,0,0,0,0,30701509,40411119,0,0,0,0,0,0,0,0,0,0,0,0,0,0,0
8,13,543.075011577457,1,0,1839846.76536341,1839847.81239024,1,1,1,7,19,67323448,144504574,125523485,112125465,0,0,11301719,41201609,10810009,0,-4010111,0,0,21900719,30201309,11600209,0,30200909,40200609,10400819,0,0,0,0,0,30910119,0,32001019,20900219,30511919,11200209,30510219,31001909,30300109,10001319,0,0,0,0,10311909
8,14,558.728679316118,0,0,1839849.55352632,1839850.60055546,1,0,0,26,9,10601409,183237554,4171180,41911618,10601409,0,0,0,0,0,0,0,0,0,30111909,20001609,41101009,11011809,0,0,41010509,40000709,0,0,0,0,0,0,0,-4171180,0,0,0,0,0,0,10101409,31810209,0,0
8,15,691.79505482316,0,0,1839852.35345018,1839853.40049048,1,1,0,4,9,84333977,20301609,86534666,40901519,31400009,20611409,0,-1111140,31211419,0,0,0,0,0,0,20301609,0,0,0,0,0,0,0,21711719,11811119,41211619,0,0,0,11800209,0,0,0,0,40901519,0,0,0,0,0
8,16,411.572347162291,1,1,1839855.18866533,1839856.23568484,1,1,0,23,31,192359931,169525684,208009162,195927412,21411319,31600109,10000509,22011819,21212009,11301419,11810419,31802009,31210319,21802009,21402019,21000019,31410009,0,0,0,31910109,42001519,11111209,20901509,30300219,30401519,-3181150,30201809,10410619,30201119,41300009,11001519,0,30401609,20301709,40410219,10710519,30000619,11900109,41201109
8,17,630.562779260799,1,0,1839857.78858348,1839858.83561571,1,1,1,30,3,21300719,30600209,0,43981069,0,0,21300719,0,0,0,0,0,0,0,0,0,30600209,0,0,0,0,0,0,0,0,0,0,0,0,0,0,0,0,-3170160,0,0,0,40810909,0,0
8,18,654.90694064647,1,0,1839860.55321951,1839861.60024287,1,1,1,33,31,206451302,210718902,218747423,202167403,22001609,20910209,40511909,0,31211319,20101119,11301919,30111209,30302009,10800909,11100119,41901109,32002019,21111119,41300809,21001009,31501809,0,41411919,41401009,0,21910319,22000619,41411619,20401719,30210219,0,20201319,30400409,31510209,31411719,11311609,-3030101,31901209,21000709,21400119
8,19,778.699606889859,0,0,1839863.43548921,1839864.48251796,1,1,0,1,31,189815304,177639302,268745422,184558442,-2071001,31511509,0,41110509,21100119,20900619,11000109,31910819,30210619,31001309,20001609,0,32011009,30510719,21301219,11500909,20711119,10601409,41600009,40011419,31810109,40401819,0,30210219,12010719,41600209,31100919,20500719,20111719,10900709,10210519,41411319,10811119,30200819,40411519,0
8,20,593.660421669483,1,0,1839866.32953756,1839867.37655515,1,0,1,31,9,102412766,10601919,52812028,43172728,0,0,20700419,10300509,41210219,0,0,30201619,0,0,0,10601919,0,0,0,0,0,0,0,21311709,0,0,0,31500319,0,0,0,0,0,0,-2050000,0,20611309,20511419,0,0
8,21,453.310969751328,0,0,1839869.11768815,1839870.16471883,1,0,0,21,31,250847951,220467612,137576315,235447592,21510319,30311519,21801919,41710019,31711909,20100019,41800819,20800219,21101209,20111309,21911119,31110519,21010419,41911209,20910709,22000419,0,41501909,11000409,11201019,-2041141,11110409,40411619,40600409,0,21211309,0,40311409,21100119,20012009,41011009,0,30600109,11400509,30001319,41011109
8,22,426.726720528677,1,0,1839871.6823947,1839872.72935917,1,0,1,3,19,116794586,102113866,176546093,113823466,31010909,0,-4061130,41110909,20011419,0,0,20600219,0,30701009,0,0,0,20501719,0,0,40710519,10200619,30500009,21811419,30501919,20910819,0,10810909,40300209,0,21710809,0,41411019,0,0,10400109,0,40900319,0,21112019
8,23,322.277187602594,1,0,1839874.19990734,1839875.2469284,1,0,1,16,19,136715355,127416046,174024175,92747485,0,0,0,31901809,0,21001819,41000709,11010809,31800209,21111209,0,30600809,0,0,41311909,-4191200,30200919,0,31410009,30001319,40401919,30300809,0,0,0,41910119,0,10110909,0,0,10111019,20311919,41401919,10811719,0,0
8,24,382.307614898309,1,0,1839876.59984367,1839877.64687166,1,1,1,18,9,11311109,106023147,51702128,82233157,0,0,0,0,0,0,0,0,11311109,41202009,0,0,20110409,40610709,0,0,0,-4100020,40001119,0,11701009,0,0,0,0,0,0,0,0,20010219,0,40411819,0,0,21811119,0
8,25,326.273082522675,1,0,1839879.04683108,1839880.09385907,1,1,1,28,0,0,0,0,0,0,0,0,0,0,0,0,0,0,0,0,0,0,0,0,0,0,0,0,0,0,0,0,0,0,0,0,-30100301,0,0,0,0,0,0,0,0
8,26,394.162102835253,1,1,1839881.54087381,1839882.5879018,1,0,0,5,9,147274346,83704257,11911609,20110109,40900909,0,20111009,0,-4050100,40511919,41700409,0,0,0,42001519,0,0,0,11700919,0,0,30001819,0,0,0,0,0,0,0,0,11911609,0,0,0,0,20110109,0,0,0,0
8,27,581.236961763352,0,0,1839895.03462743,1839896.0816585,2,1,0,12,3,0,24250759,22823328,0,0,0,0,0,0,0,0,0,0,0,0,-4040040,0,0,0,20210719,0,0,0,0,11011609,11811719,0,0,0,0,0,0,0,0,0,0,0,0,0,0
8,28,448.464696062729,1,0,1839897.74044373,1839898.78746402,2,0,1,26,19,124525065,173817394,64013949,136235074,0,11200719,0,0,20401209,21311319,41500109,30111709,0,30101019,30301819,0,21400519,0,40000509,0,41011509,11002019,0,0,0,0,30200909,0,0,-2201021,31612019,31900009,10810909,0,20910309,0,10500919,41811119,20301809,0
8,29,582.626670598984,0,0,1839900.24625087,1839901.29327462,2,0,0,34,19,166825075,126134675,83624355,84703707,0,42012019,22000609,20011219,0,41800909,41000319,0,0,20810419,0,0,30401919,0,41410709,21600909,0,11910719,0,0,10400609,0,0,11901019,40401309,10110109,10811309,0,20811409,30311809,21110419,0,0,-2160061,10310009,0
8,30,552.731372416019,0,0,1839902.95205639,1839903.99908283,2,1,0,19,19,125544355,64022437,86896567,199446003,20810909,0,41210519,10910309,0,21102009,0,31510609,0,41500319,0,0,11611109,10911009,0,0,0,0,-1071101,11610509,0,0,12011519,41401419,0,0,20802019,31810719,41401209,0,21710509,31611309,0,31700019,20211119,21001119
8,31,369.792534271255,1,0,1839905.70492454,1839906.75195406,2,0,1,16,19,134143274,125054567,54104137,147746184,10600109,0,20810409,0,0,10210419,41210609,40500109,10811619,21601109,0,0,40210409,0,0,-3130021,20011909,40101119,0,0,0,0,11602019,11400609,31101509,0,0,0,0,21011519,0,41201719,31900109,11411109,12011709,30210019
8,32,395.76238556765,1,0,1839908.3049016,1839909.3518957,2,1,1,18,9,11311109,106023147,51702128,82233157,0,0,0,0,0,0,0,0,11311109,41202009,0,0,20110409,40610709,0,0,0,-4100020,40001119,0,11701009,0,0,0,0,0,0,0,0,20010219,0,40411819,0,0,21811119,0
8,33,526.097078341991,0,0,1839910.8106687,1839911.8576936,2,1,0,1,31,189815304,177639302,268745422,184558442,-2071001,31511509,0,41110509,21100119,20900619,11000109,31910819,30210619,31001309,20001609,0,32011009,30510719,21301219,11500909,20711119,10601409,41600009,40011419,31810109,40401819,0,30210219,12010719,41600209,31100919,20500719,20111719,10900709,10210519,41411319,10811119,30200819,40411519,0
8,34,510.324457893148,1,0,1839913.52822977,1839914.57526353,2,0,1,32,9,0,53410628,35512447,94433946,0,0,0,0,0,0,0,0,0,0,0,31910209,0,0,21500419,0,0,0,12000119,0,0,0,0,0,11901019,11611309,0,0,40100309,20711219,0,-1010190,20610709,12001519,0,0
8,35,365.258464124054,1,1,1839916.22228512,1839917.26930964,2,1,0,6,3,35382438,20501609,0,0,11512019,0,0,0,0,-3170010,20700409,0,0,0,0,0,0,0,0,0,0,20501609,0,0,0,0,0,0,0,0,0,0,0,0,0,0,0,0,0,0
8,36,482.477152021602,1,0,1839918.82220905,1839919.86924359,2,0,1,21,9,71722747,91911647,21231539,62003538,0,0,40201519,0,11210819,0,0,0,20310409,10400519,0,40011119,0,0,41500009,0,0,0,0,0,-1131030,0,20100509,0,0,0,0,20401919,0,0,0,0,0,0,0,41601619
8,37,426.130415871739,0,0,1839921.55154916,1839922.59856175,2,0,0,3,3,3050110,32512428,0,41111209,0,0,-3050110,0,0,0,0,0,0,0,0,0,0,20911619,0,0,0,11600809,0,0,0,0,0,0,0,0,0,0,0,0,0,0,0,0,41111209,0
8,38,447.753288084641,1,0,1839924.23384435,1839925.2808527,2,0,1,9,3,41450839,20211619,40101809,0,0,0,40400719,0,0,0,0,0,-1050120,0,0,0,0,0,0,0,0,20211619,0,0,0,0,0,0,0,0,40101809,0,0,0,0,0,0,0,0,0
8,39,485.892140539363,0,0,1839926.90434279,1839927.95137963,2,1,0,28,0,0,0,0,0,0,0,0,0,0,0,0,0,0,0,0,0,0,0,0,0,0,0,0,0,0,0,0,0,0,0,0,-30100301,0,0,0,0,0,0,0,0
8,40,482.011734275147,0,0,1839929.59839314,1839930.64541342,2,1,0,7,19,67323448,144504574,125523485,112125465,0,0,11301719,41201609,10810009,0,-4010111,0,0,21900719,30201309,11600209,0,30200909,40200609,10400819,0,0,0,0,0,30910119,0,32001019,20900219,30511919,11200209,30510219,31001909,30300109,10001319,0,0,0,0,10311909
8,41,492.030728142709,1,0,1839932.18655112,1839933.23357911,2,0,1,20,9,52421528,73211327,56752838,20210219,31011009,0,21410519,0,0,0,0,0,0,11010009,0,0,0,0,40200209,0,0,22001109,0,-4030091,10910809,0,0,0,21010119,20801819,0,0,20210219,0,0,0,0,0,0,0
8,42,453.946925001219,0,0,1839934.78648352,1839935.83350766,2,0,0,27,31,197147712,166446023,161118694,209561341,31701009,21711509,10000109,20011919,31410919,30410919,0,30701119,21200209,21411009,20710119,30611319,30500019,11501419,0,20701519,0,31010619,22010119,10011919,20101809,21811809,0,12011609,31500309,41501109,-2170011,31901619,11401209,11410509,30910319,31011919,20810919,40401119,10801809,20911919
8,43,395.473279990256,1,0,1839937.36289904,1839938.40990855,2,1,1,29,19,63722457,108036175,114035875,219377325,0,0,21000619,31611719,0,11110119,0,0,0,21502019,31710919,0,10911709,0,0,0,11900219,32011309,0,0,30412019,0,30800509,20211119,11801909,20810319,0,42010609,-2031031,0,41010419,0,30801519,30801209,32011919,40710619
8,44,405.731719685718,1,0,1839939.92758403,1839940.97459277,2,0,1,11,31,222780611,259256722,167929992,168626284,12011809,21801409,21011609,10901219,41611219,11910709,31711619,41810209,30010809,41210209,-3010010,20700519,40200809,31211519,21100009,40011319,30910319,30902009,20401709,20601619,30400519,0,11210009,31401709,10111609,12000909,31801909,42000219,21701719,21801709,0,20401419,31610409,0,31110809,0
8,45,580.393512034789,0,0,1839942.45685839,1839943.50390062,2,0,0,5,31,179137683,186346512,268826031,179244693,41701619,10810909,21101319,20310009,-2081080,31210309,40911919,0,11010519,40100919,30210309,10710719,10901109,31500119,10000909,21510909,0,31411519,30800709,31400219,21411019,10400119,31610019,40201319,40801509,42000709,20200409,31500419,0,21011409,20800319,21611609,0,22010319,41500009,20810609
8,46,590.548012405634,0,0,1839945.10384264,1839946.15086755,2,0,0,31,3,50103028,41301009,0,1140070,0,0,0,0,30002009,0,20101019,0,0,0,0,41301009,0,0,0,0,0,0,0,0,0,0,0,0,0,0,0,0,0,0,-1140070,0,0,0,0,0
8,47,534.146612044424,0,0,1839947.8331789,1839948.88021228,2,1,0,33,31,206451302,210718902,218747423,202167403,22001609,20910209,40511909,0,31211319,20101119,11301919,30111209,30302009,10800909,11100119,41901109,32002019,21111119,41300809,21001009,31501809,0,41411919,41401009,0,21910319,22000619,41411619,20401719,30210219,0,20201319,30400409,31510209,31411719,11311609,-3030101,31901209,21000709,21400119
8,48,355.513562215492,1,0,1839950.59781108,1839951.64483444,2,1,1,4,9,84333977,20301609,86534666,40901519,31400009,20611409,0,-1111140,31211419,0,0,0,0,0,0,20301609,0,0,0,0,0,0,0,21711719,11811119,41211619,0,0,0,11800209,0,0,0,0,40901519,0,0,0,0,0
8,49,483.409527223557,0,0,1839953.04480619,1839954.09183148,2,1,0,30,3,21300719,30600209,0,43981069,0,0,21300719,0,0,0,0,0,0,0,0,0,30600209,0,0,0,0,0,0,0,0,0,0,0,0,0,0,0,0,-3170160,0,0,0,40810909,0,0
8,50,373.191739432514,1,0,1839955.63296841,1839956.67999485,2,1,1,15,9,63422957,13620959,10910309,115623946,0,0,31910619,0,20901519,0,0,0,10610819,0,10500919,0,0,0,-3120040,0,0,0,0,0,0,10910309,0,0,0,0,0,22000719,0,0,40110209,0,21901509,0,31611509,0
8,51,496.347680222243,1,0,1839958.18584202,1839959.23286462,2,0,1,19,0,0,0,0,0,0,0,0,0,0,0,0,0,0,0,0,0,0,0,0,0,0,0,-10511501,0,0,0,0,0,0,0,0,0,0,0,0,0,0,0,0,0
8,52,357.807544758543,1,0,1839960.85639243,1839961.90338346,2,1,1,23,31,192359931,169525684,208009162,195927412,21411319,31600109,10000509,22011819,21212009,11301419,11810419,31802009,31210319,21802009,21402019,21000019,31410009,0,0,0,31910109,42001519,11111209,20901509,30300219,30401519,-3181150,30201809,10410619,30201119,41300009,11001519,0,30401609,20301709,40410219,10710519,30000619,11900109,41201109
8,53,453.194711357355,1,0,1839966.86795243,1839967.91497579,3,1,1,33,31,206451302,210718902,218747423,202167403,22001609,20910209,40511909,0,31211319,20101119,11301919,30111209,30302009,10800909,11100119,41901109,32002019,21111119,41300809,21001009,31501809,0,41411919,41401009,0,21910319,22000619,41411619,20401719,30210219,0,20201319,30400409,31510209,31411719,11311609,-3030101,31901209,21000709,21400119
8,54,363.013756694272,1,0,1839969.40906048,1839970.45610194,3,0,1,34,31,157047212,227147821,185817303,248857893,32000009,11810319,20310809,0,30801309,10300819,11001519,30411719,10410709,20501919,40600219,10801909,30310209,40110309,21311219,20511119,11100609,31900309,0,31101819,10000019,20900909,41800719,40711809,0,10801219,30500809,30210119,40901709,40711709,41701509,0,41901409,-1020200,21510619,30900619
8,55,494.398237904534,1,0,1839971.92663626,1839972.97366964,3,0,1,5,0,0,0,0,0,0,0,0,0,-31401191,0,0,0,0,0,0,0,0,0,0,0,0,0,0,0,0,0,0,0,0,0,0,0,0,0,0,0,0,0,0,0
8,56,317.734263371676,1,0,1839974.64425893,1839975.69124072,3,0,1,16,9,155313976,134021697,40410209,0,0,0,41400819,0,41900819,0,42011319,0,30001019,41510209,0,0,0,20000709,30510309,-1190161,0,40810309,0,40410209,0,0,0,0,0,0,0,0,0,0,0,0,0,0,0,0
8,57,366.313641890883,0,0,1839977.05590769,1839978.10292798,3,0,0,9,3,2040040,0,0,71523037,0,0,0,0,0,0,0,0,-2040040,0,0,0,0,0,0,0,0,0,0,0,0,0,0,0,0,0,0,30400609,20311919,0,0,0,20810509,0,0,0
8,58,433.451218530536,0,0,1839979.62054418,1839980.66757293,3,1,0,7,19,67323448,144504574,125523485,112125465,0,0,11301719,41201609,10810009,0,-4010111,0,0,21900719,30201309,11600209,0,30200909,40200609,10400819,0,0,0,0,0,30910119,0,32001019,20900219,30511919,11200209,30510219,31001909,30300109,10001319,0,0,0,0,10311909
8,59,340.217523276806,1,1,1839982.10282943,1839983.14985972,3,1,0,23,31,192359931,169525684,208009162,195927412,21411319,31600109,10000509,22011819,21212009,11301419,11810419,31802009,31210319,21802009,21402019,21000019,31410009,0,0,0,31910109,42001519,11111209,20901509,30300219,30401519,-3181150,30201809,10410619,30201119,41300009,11001519,0,30401609,20301709,40410219,10710519,30000619,11900109,41201109
8,60,527.853270294145,1,0,1839984.58516087,1839985.6321469,3,0,1,31,31,220746793,176967322,249677212,194166212,11400709,40301909,42010419,0,42000309,21411119,0,21810919,41811409,41311519,10700009,0,20811519,10211709,30510709,11101119,30610119,21710619,42011009,20810409,40810319,40301519,0,11711219,30710819,32010209,31311709,12011209,10410009,42000919,-4110100,21210919,30900509,31800319,30610219,11112009
8,61,486.778705613688,0,0,1839987.23212588,1839988.27912268,3,1,0,18,9,11311109,106023147,51702128,82233157,0,0,0,0,0,0,0,0,11311109,41202009,0,0,20110409,40610709,0,0,0,-4100020,40001119,0,11701009,0,0,0,0,0,0,0,0,20010219,0,40411819,0,0,21811119,0
8,62,412.417336599901,1,0,1839989.9026197,1839990.94963922,3,1,1,15,9,63422957,13620959,10910309,115623946,0,0,31910619,0,20901519,0,0,0,10610819,0,10500919,0,0,0,-3120040,0,0,0,0,0,0,10910309,0,0,0,0,0,22000719,0,0,40110209,0,21901509,0,31611509,0
8,63,672.432673396543,1,0,1839992.54960049,1839993.59662578,3,1,1,1,31,189815304,177639302,268745422,184558442,-2071001,31511509,0,41110509,21100119,20900619,11000109,31910819,30210619,31001309,20001609,0,32011009,30510719,21301219,11500909,20711119,10601409,41600009,40011419,31810109,40401819,0,30210219,12010719,41600209,31100919,20500719,20111719,10900709,10210519,41411319,10811119,30200819,40411519,0
8,64,392.929072957486,1,0,1839995.3730547,1839996.42008076,3,1,1,29,19,63722457,108036175,114035875,219377325,0,0,21000619,31611719,0,11110119,0,0,0,21502019,31710919,0,10911709,0,0,0,11900219,32011309,0,0,30412019,0,30800509,20211119,11801909,20810319,0,42010609,-2031031,0,41010419,0,30801519,30801209,32011919,40710619
8,65,659.65466434136,1,0,1839998.00827378,1839999.05530099,3,0,1,5,19,147265605,173626564,112823747,134514036,20610019,0,0,31600219,-2121101,10710919,20111619,40900109,21211619,40011409,31402009,20200009,0,40000919,0,0,21810409,20201809,0,0,31210419,0,40901419,0,0,0,40711909,0,41301809,0,40711009,0,31701209,0,20800009,0
8,66,388.454671716318,0,0,1840000.90231866,1840001.94933933,3,1,0,28,0,0,0,0,0,0,0,0,0,0,0,0,0,0,0,0,0,0,0,0,0,0,0,0,0,0,0,0,0,0,0,0,-30100301,0,0,0,0,0,0,0,0
8,67,482.156864367425,1,0,1840003.38460314,1840004.43164345,3,0,1,20,19,194855983,158225484,46104267,101711537,30400309,20410019,0,0,40810909,21111809,20201109,41711709,20210119,0,40611119,11700909,21900409,31211419,41600909,0,0,11200719,0,-4181130,21211619,10510309,0,0,0,10201209,0,0,40400519,0,30000509,31310509,0,0,0,0
8,68,682.259187102318,0,0,1840006.07864579,1840007.12566377,3,1,0,6,3,35382438,20501609,0,0,11512019,0,0,0,0,-3170010,20700409,0,0,0,0,0,0,0,0,0,0,20501609,0,0,0,0,0,0,0,0,0,0,0,0,0,0,0,0,0,0
8,69,600.928484695032,1,0,1840008.97268337,1840010.01969942,3,0,1,32,9,85913956,30200519,21621628,52623968,0,0,30312019,0,11701619,21900209,22000109,0,0,30200519,0,0,0,0,0,0,0,0,0,0,0,11010919,0,10610709,0,0,0,0,0,0,0,-1001040,30811219,20811709,0,0
8,70,372.805238701403,1,0,1840011.71378211,1840012.76080547,3,1,1,12,3,0,24250759,22823328,0,0,0,0,0,0,0,0,0,0,0,0,-4040040,0,0,0,20210719,0,0,0,0,11011609,11811719,0,0,0,0,0,0,0,0,0,0,0,0,0,0
8,71,447.241675108671,0,0,1840014.2195954,1840015.26661877,3,0,0,26,31,217119202,179358593,192007712,228416002,20101919,21000019,30700009,31701809,30410619,20001609,41201909,22001309,0,41912019,11611619,20611019,11100109,0,41411509,41800609,10911709,0,10500419,31600909,40201519,41610319,11401319,20200509,11600209,-4081000,20811509,21810419,0,11300509,30701409,30401619,20000009,42000719,40400609,31800709
8,72,433.885069563985,0,0,1840016.76070038,1840017.8077172,3,0,0,27,19,177914874,114148755,79545337,112816536,0,21300919,30201119,21100309,31510609,0,41800509,0,32001409,31011609,0,21211509,21001909,0,0,0,10911809,30011919,11901419,0,21300809,0,31410919,0,11901119,0,-3031071,0,0,21200909,40001709,0,41401909,0,10212009,0
8,73,429.52885129489,0,0,1840019.29003864,1840020.33707124,3,1,0,19,19,125544355,64022437,86896567,199446003,20810909,0,41210519,10910309,0,21102009,0,31510609,0,41500319,0,0,11611109,10911009,0,0,0,0,-1071101,11610509,0,0,12011519,41401419,0,0,20802019,31810719,41401209,0,21710509,31611309,0,31700019,20211119,21001119
8,74,406.964749563485,1,1,1840021.96055902,1840023.00758316,3,1,0,30,3,21300719,30600209,0,43981069,0,0,21300719,0,0,0,0,0,0,0,0,0,30600209,0,0,0,0,0,0,0,0,0,0,0,0,0,0,0,0,-3170160,0,0,0,40810909,0,0
8,75,503.242715960369,1,0,1840024.46644315,1840025.51339222,3,0,1,11,3,31001119,15181830,21901519,0,0,0,0,0,31001119,0,0,0,0,0,-3171111,0,0,0,0,0,0,12010719,0,0,0,21901519,0,0,0,0,0,0,0,0,0,0,0,0,0,0
8,76,467.326243175194,0,0,1840027.21923469,1840028.26626229,3,0,0,3,9,22262089,31700409,137613755,22220818,0,0,-2160180,20101909,0,0,0,0,0,0,0,0,0,0,0,0,0,31700409,11200509,40711109,0,0,0,0,42000319,11800709,31901109,10710009,11510809,0,0,0,0,0,0,0
8,77,490.129020763561,0,0,1840029.7603439,1840030.80736342,3,0,0,21,3,62201638,0,2080201,41900209,0,31001619,0,0,0,0,0,0,31200019,0,0,0,0,0,0,0,0,0,0,0,-2080201,0,0,0,0,0,0,0,0,0,0,0,0,0,0,41900209
8,78,630.241722101346,0,0,1840032.45439079,1840033.5014234,3,1,0,4,9,84333977,20301609,86534666,40901519,31400009,20611409,0,-1111140,31211419,0,0,0,0,0,0,20301609,0,0,0,0,0,0,0,21711719,11811119,41211619,0,0,0,11800209,0,0,0,0,40901519,0,0,0,0,0
8,79,336.70706441626,1,0,1840038.87773313,1840039.92476419,4,1,1,28,0,0,0,0,0,0,0,0,0,0,0,0,0,0,0,0,0,0,0,0,0,0,0,0,0,0,0,0,0,0,0,0,-30100301,0,0,0,0,0,0,0,0
8,80,445.547076873481,0,0,1840041.41884927,1840042.46586917,4,0,0,32,3,0,51911118,21701919,2050181,0,0,0,0,0,0,0,0,0,0,40700109,0,11211009,0,0,0,0,0,0,0,0,0,0,0,21701919,0,0,0,0,0,0,-2050181,0,0,0,0
8,81,428.699645446613,1,0,1840044.06583083,1840045.11286036,4,0,1,11,31,187449182,190507694,155147183,188672021,20400809,31211509,41611909,21910309,11401309,10300909,40600709,10011719,0,30401309,-2161031,0,11800209,40611709,41800309,30310609,11811309,21611209,11600709,31211209,20500819,0,0,10210609,30101819,40111609,11410409,11911809,11211209,40601809,11601909,11910809,20212019,31000219,30011919,20210319
8,82,360.600436339155,1,1,1840046.72465225,1840047.7716633,4,1,0,23,31,192359931,169525684,208009162,195927412,21411319,31600109,10000509,22011819,21212009,11301419,11810419,31802009,31210319,21802009,21402019,21000019,31410009,0,0,0,31910109,42001519,11111209,20901509,30300219,30401519,-3181150,30201809,10410619,30201119,41300009,11001519,0,30401609,20301709,40410219,10710519,30000619,11900109,41201109
8,83,500.780505826697,0,0,1840049.23040087,1840050.27748198,4,1,0,19,19,125544355,64022437,86896567,199446003,20810909,0,41210519,10910309,0,21102009,0,31510609,0,41500319,0,0,11611109,10911009,0,0,0,0,-1071101,11610509,0,0,12011519,41401419,0,0,20802019,31810719,41401209,0,21710509,31611309,0,31700019,20211119,21001119
8,84,598.161000292748,0,0,1840051.84208767,1840052.88911527,4,1,0,18,9,11311109,106023147,51702128,82233157,0,0,0,0,0,0,0,0,11311109,41202009,0,0,20110409,40610709,0,0,0,-4100020,40001119,0,11701009,0,0,0,0,0,0,0,0,20010219,0,40411819,0,0,21811119,0
8,85,352.9755147174,0,0,1840054.57146781,1840055.61844691,4,0,0,20,3,40400519,10200719,1010121,11900619,0,0,0,0,0,0,0,0,40400519,0,0,0,0,0,0,10200719,0,0,0,-1010121,0,0,0,0,0,0,0,0,0,11900619,0,0,0,0,0,0
8,86,416.817055549473,1,0,1840057.15959231,1840058.20661683,4,1,1,15,9,63422957,13620959,10910309,115623946,0,0,31910619,0,20901519,0,0,0,10610819,0,10500919,0,0,0,-3120040,0,0,0,0,0,0,10910309,0,0,0,0,0,22000719,0,0,40110209,0,21901509,0,31611509,0
8,87,491.926018614322,1,0,1840059.66541407,1840060.71243436,4,1,1,7,19,67323448,144504574,125523485,112125465,0,0,11301719,41201609,10810009,0,-4010111,0,0,21900719,30201309,11600209,0,30200909,40200609,10400819,0,0,0,0,0,30910119,0,32001019,20900219,30511919,11200209,30510219,31001909,30300109,10001319,0,0,0,0,10311909
8,88,381.115006050095,1,0,1840062.38297437,1840063.42999928,4,1,1,6,3,35382438,20501609,0,0,11512019,0,0,0,0,-3170010,20700409,0,0,0,0,0,0,0,0,0,0,20501609,0,0,0,0,0,0,0,0,0,0,0,0,0,0,0,0,0,0
8,89,372.601979412138,1,0,1840064.95937103,1840066.0064633,4,1,1,4,9,84333977,20301609,86534666,40901519,31400009,20611409,0,-1111140,31211419,0,0,0,0,0,0,20301609,0,0,0,0,0,0,0,21711719,11811119,41211619,0,0,0,11800209,0,0,0,0,40901519,0,0,0,0,0
8,90,604.660296114162,0,0,1840067.40637307,1840068.45339759,4,0,0,3,31,300606852,115127974,259969111,268838522,30101409,31410219,-4060120,40001719,30800809,40200019,40910819,41210919,41910819,31000809,10901909,0,0,20701909,0,10901519,21011719,20610109,10400109,30810109,11811019,42011309,21011909,41110809,40210919,31902019,30700909,30801319,21001619,41610709,0,21211419,41300719,40710219,30600909,41601609
8,91,440.249629085884,1,1,1840070.17099369,1840071.21802361,4,0,0,5,31,185244254,199365421,207267412,238137912,30810919,30110219,40001309,21000619,-1120070,0,21500209,40700909,0,10610819,11000619,30410709,11110009,21211109,11610319,41000209,21501609,40910019,10301619,31710619,0,41211019,41410009,30801619,30410709,10511409,10910409,0,41101509,31001219,30400719,41110619,11711509,10611009,40701309,31500019
8,92,624.679806176573,1,0,1840072.85328349,1840073.90030724,4,0,1,34,3,52721837,0,0,2190060,21811109,0,0,10400619,20510109,0,0,0,0,0,0,0,0,0,0,0,0,0,0,0,0,0,0,0,0,0,0,0,0,0,0,0,0,-2190060,0,0
8,93,436.728006228805,1,0,1840075.70025496,1840076.7472868,4,1,1,30,3,21300719,30600209,0,43981069,0,0,21300719,0,0,0,0,0,0,0,0,0,30600209,0,0,0,0,0,0,0,0,0,0,0,0,0,0,0,0,-3170160,0,0,0,40810909,0,0
8,94,462.735198903829,1,0,1840078.30023587,1840079.34721727,4,0,1,21,9,11401509,154234965,34462419,30100719,0,11401509,0,0,0,0,0,0,0,0,20612009,20700609,0,0,41701619,30810419,0,40410309,10700009,0,-2061091,0,0,0,0,0,21701319,0,0,0,0,0,0,30100719,0,0
8,95,412.492403993383,1,0,1840080.98246753,1840082.02948782,4,1,1,12,3,0,24250759,22823328,0,0,0,0,0,0,0,0,0,0,0,0,-4040040,0,0,0,20210719,0,0,0,0,11011609,11811719,0,0,0,0,0,0,0,0,0,0,0,0,0,0
8,96,399.765979731455,0,0,1840083.50004293,1840084.5471402,4,0,0,27,9,62321128,123935065,41671839,41111019,0,0,0,0,0,20510919,0,41810209,0,31611609,40801619,0,30610009,10300819,0,0,0,10611009,0,0,0,0,0,0,40600719,0,-1071120,0,0,0,0,0,0,0,0,41111019
8,97,463.638317305595,0,0,1840086.02943931,1840087.07642919,4,0,0,9,19,67453276,82704166,177046984,173246765,0,10010809,11311209,0,31900419,0,0,10200709,-4030130,0,20801519,10600209,0,0,11301919,40000519,0,0,30411519,20901309,0,0,0,40711319,31600809,31510319,21911709,40710709,0,30611519,31011509,0,30212019,0,40701009,0
8,98,751.579492120072,1,0,1840088.61754187,1840089.6645764,4,1,1,1,31,189815304,177639302,268745422,184558442,-2071001,31511509,0,41110509,21100119,20900619,11000109,31910819,30210619,31001309,20001609,0,32011009,30510719,21301219,11500909,20711119,10601409,41600009,40011419,31810109,40401819,0,30210219,12010719,41600209,31100919,20500719,20111719,10900709,10210519,41411319,10811119,30200819,40411519,0
8,99,530.087583698332,0,0,1840091.44099569,1840092.48802252,4,0,0,26,19,103432556,156456094,155346126,133734346,0,0,0,40200419,10310009,0,22011819,30910309,0,30210419,42010419,0,0,10711419,10711209,21411919,0,41400709,0,30600319,40711519,20111919,0,0,21200909,-1111051,41610409,0,0,41310809,10810619,0,0,0,40601509,41011409
8,100,533.135704463348,0,0,1840094.20562671,1840095.252657,4,0,0,18,0,0,0,0,0,0,0,0,0,0,0,0,0,0,0,0,0,0,0,0,0,0,-21300901,0,0,0,0,0,0,0,0,0,0,0,0,0,0,0,0,0,0
8,101,539.419422391802,1,0,1840096.86437922,1840097.91140528,4,1,1,33,31,206451302,210718902,218747423,202167403,22001609,20910209,40511909,0,31211319,20101119,11301919,30111209,30302009,10800909,11100119,41901109,32002019,21111119,41300809,21001009,31501809,0,41411919,41401009,0,21910319,22000619,41411619,20401719,30210219,0,20201319,30400409,31510209,31411719,11311609,-3030101,31901209,21000709,21400119
8,102,392.332768533379,1,0,1840099.60546333,1840100.65250402,4,0,1,16,19,94013846,106276986,123335185,185645874,0,0,11801509,0,0,20000509,0,40800009,21411819,0,10711919,0,41102019,0,0,-1151020,11311009,42001019,30411819,0,21110809,0,0,0,21300619,40301419,10210519,31911909,0,10411409,0,40401719,41800009,40810119,20310709,0
8,103,585.751013830304,0,0,1840102.12306105,1840103.17010674,4,1,0,29,19,63722457,108036175,114035875,219377325,0,0,21000619,31611719,0,11110119,0,0,0,21502019,31710919,0,10911709,0,0,0,11900219,32011309,0,0,30412019,0,30800509,20211119,11801909,20810319,0,42010609,-2031031,0,41010419,0,30801519,30801209,32011919,40710619
8,104,629.593062680215,0,0,1840104.77009189,1840105.81708561,4,0,0,31,9,20412009,53013018,42512728,116794847,0,0,0,0,20412009,0,0,0,0,0,0,0,0,0,11601909,41411109,0,0,0,31611609,0,0,0,10901119,0,0,0,20801719,0,41500519,-4070171,0,0,20110519,0,30311919
8,105,493.653723504394,0,0,1840110.86399041,1840111.91101454,5,0,0,32,3,0,12010819,10101619,31322959,0,0,0,0,0,0,0,0,0,0,0,0,12010819,0,0,0,0,0,0,0,0,0,0,10101619,0,0,0,0,0,0,0,-1011140,0,0,0,30311819
8,106,374.61378541775,0,0,1840113.60509338,1840114.65212483,5,0,0,21,3,21910019,31813028,1080041,0,0,0,0,0,0,0,0,0,21910019,0,21811109,0,0,0,0,0,0,10001919,0,0,-1080041,0,0,0,0,0,0,0,0,0,0,0,0,0,0,0
8,107,424.891996430233,1,0,1840116.21678981,1840117.26385167,5,1,1,6,3,35382438,20501609,0,0,11512019,0,0,0,0,-3170010,20700409,0,0,0,0,0,0,0,0,0,0,20501609,0,0,0,0,0,0,0,0,0,0,0,0,0,0,0,0,0,0
8,108,402.799471979961,0,1,1840118.85201158,1840119.89903571,5,1,1,7,19,67323448,144504574,125523485,112125465,0,0,11301719,41201609,10810009,0,-4010111,0,0,21900719,30201309,11600209,0,30200909,40200609,10400819,0,0,0,0,0,30910119,0,32001019,20900219,30511919,11200209,30510219,31001909,30300109,10001319,0,0,0,0,10311909
8,109,790.174523368478,0,0,1840121.47546355,1840122.52249192,5,1,0,4,9,84333977,20301609,86534666,40901519,31400009,20611409,0,-1111140,31211419,0,0,0,0,0,0,20301609,0,0,0,0,0,0,0,21711719,11811119,41211619,0,0,0,11800209,0,0,0,0,40901519,0,0,0,0,0
8,110,461.149159818888,1,0,1840124.3695069,1840125.41652911,5,0,1,9,31,219577954,219278451,218579911,155348423,41611119,0,30001819,41601019,41700809,20210809,0,40411309,-4041070,20710019,31011319,21511819,32000709,22011219,10200509,20510519,40210519,21111819,41510809,31801409,20811719,10211609,21310809,10400409,10611019,31711719,40210409,0,10700819,21411919,40110319,0,21811419,10101719,30900709,20311519
8,111,566.733172629029,0,0,1840127.00474291,1840128.05175319,5,1,0,1,31,189815304,177639302,268745422,184558442,-2071001,31511509,0,41110509,21100119,20900619,11000109,31910819,30210619,31001309,20001609,0,32011009,30510719,21301219,11500909,20711119,10601409,41600009,40011419,31810109,40401819,0,30210219,12010719,41600209,31100919,20500719,20111719,10900709,10210519,41411319,10811119,30200819,40411519,0
8,112,459.049582714215,0,0,1840129.71054035,1840130.75755602,5,0,0,16,19,145853574,66252658,114654075,126533065,31810009,40910709,0,0,11410519,0,31510609,10001109,20210619,0,0,0,20101309,31600819,0,-4140111,10410419,0,0,0,20311619,0,21510219,0,31410409,11311119,30110709,0,41710909,31101009,20900219,11810419,0,0,21010509,0
8,113,358.665237668902,1,0,1840132.34581833,1840133.39278048,5,0,1,17,0,0,0,0,0,0,0,0,0,0,0,0,0,0,0,0,0,0,0,0,0,-20901801,0,0,0,0,0,0,0,0,0,0,0,0,0,0,0,0,0,0,0
8,114,368.571053026244,1,0,1840134.83980755,1840135.88683361,5,1,1,23,31,192359931,169525684,208009162,195927412,21411319,31600109,10000509,22011819,21212009,11301419,11810419,31802009,31210319,21802009,21402019,21000019,31410009,0,0,0,31910109,42001519,11111209,20901509,30300219,30401519,-3181150,30201809,10410619,30201119,41300009,11001519,0,30401609,20301709,40410219,10710519,30000619,11900109,41201109
8,115,409.385769162327,1,0,1840137.42797246,1840138.47522257,5,1,1,28,0,0,0,0,0,0,0,0,0,0,0,0,0,0,0,0,0,0,0,0,0,0,0,0,0,0,0,0,0,0,0,0,-30100301,0,0,0,0,0,0,0,0
8,116,500.657318159938,1,0,1840140.08671727,1840141.13374218,5,0,1,27,31,127025812,241637101,160935853,219647373,20400519,21300219,0,11000709,11900209,30310219,10811819,11200609,10101509,20911609,11601509,21400309,31500819,41101109,41310209,31400019,11101409,31310109,42011209,10000109,30900509,40400209,11710809,11200409,0,11701419,-3011180,21000609,30701409,31400709,41412009,31912009,0,0,42010519,21210109
8,117,379.70681884326,1,1,1840142.83959274,1840143.88661302,5,1,0,29,19,63722457,108036175,114035875,219377325,0,0,21000619,31611719,0,11110119,0,0,0,21502019,31710919,0,10911709,0,0,0,11900219,32011309,0,0,30412019,0,30800509,20211119,11801909,20810319,0,42010609,-2031031,0,41010419,0,30801519,30801209,32011919,40710619
8,118,639.448448549956,1,0,1840145.32186605,1840146.36889327,5,1,1,33,31,206451302,210718902,218747423,202167403,22001609,20910209,40511909,0,31211319,20101119,11301919,30111209,30302009,10800909,11100119,41901109,32002019,21111119,41300809,21001009,31501809,0,41411919,41401009,0,21910319,22000619,41411619,20401719,30210219,0,20201319,30400409,31510209,31411719,11311609,-3030101,31901209,21000709,21400119
8,119,675.883848452941,1,0,1840148.18062234,1840149.22765186,5,1,1,15,9,63422957,13620959,10910309,115623946,0,0,31910619,0,20901519,0,0,0,10610819,0,10500919,0,0,0,-3120040,0,0,0,0,0,0,10910309,0,0,0,0,0,22000719,0,0,40110209,0,21901509,0,31611509,0
8,120,871.314284857363,0,0,1840150.95700929,1840152.00403035,5,0,0,31,3,0,30210209,0,73312899,0,0,0,0,0,0,0,0,0,0,0,30210209,0,0,0,0,0,0,0,0,0,0,0,0,0,0,0,31301309,40000419,0,-2011171,0,0,0,0,0
8,121,514.142115833238,0,0,1840154.0510387,1840155.09806284,5,0,0,3,9,74673877,50512928,53423018,20901409,0,20900519,-1040131,0,0,10311209,10710009,31712009,0,0,0,0,10311909,0,0,40201019,0,0,31611909,21811109,0,0,0,0,0,0,0,0,0,0,0,0,0,0,0,20901409
8,122,444.142354419455,1,0,1840156.79214129,1840157.83916543,5,0,1,11,19,153545785,114196776,135321955,104802746,20410119,0,0,40311019,0,0,10410719,41912009,40501919,0,-1161001,30001409,0,20200909,21311519,10810919,0,30711019,10300709,0,31700309,0,0,30910509,31010319,31400109,0,12000909,0,0,40300509,0,41700409,10800919,0,0
8,123,494.048308348283,0,0,1840159.38029697,1840160.42732573,5,0,0,20,19,156644784,207037103,65363348,83324137,20401619,0,0,0,20310809,41900809,11610509,30810219,31610819,40400209,40510309,11411309,0,40001319,0,12012019,21501019,41200919,0,-3060201,20900419,0,0,0,0,20901609,20501119,0,0,0,21611909,40411509,0,0,0,21300719
8,124,515.255807666108,0,0,1840161.99199917,1840163.03902176,5,1,0,12,3,0,24250759,22823328,0,0,0,0,0,0,0,0,0,0,0,0,-4040040,0,0,0,20210719,0,0,0,0,11011609,11811719,0,0,0,0,0,0,0,0,0,0,0,0,0,0
8,125,477.56389528513,1,0,1840164.75661825,1840165.80365432,5,0,1,34,9,21001509,41511419,103702037,98092066,0,21001509,0,0,0,0,0,0,0,0,0,0,0,0,41511419,0,0,0,0,0,41301009,20500219,41900809,0,0,0,0,21910719,0,10601119,41910119,0,0,-2060000,0,21610109
8,126,487.907796166837,1,0,1840167.41538231,1840168.462418,5,1,1,30,3,21300719,30600209,0,43981069,0,0,21300719,0,0,0,0,0,0,0,0,0,30600209,0,0,0,0,0,0,0,0,0,0,0,0,0,0,0,0,-3170160,0,0,0,40810909,0,0
8,127,409.714525798336,0,0,1840169.95648074,1840171.00351296,5,0,0,26,9,81722537,73003028,22042709,103712947,0,40010509,0,31310509,10401519,0,0,0,0,0,0,0,0,31201609,0,0,0,41801419,0,0,0,21011709,0,0,0,-1031000,0,21301809,0,0,0,41800919,40610219,0,0,0
8,128,402.876464184374,0,0,1840172.52111222,1840173.56814252,5,1,0,19,19,125544355,64022437,86896567,199446003,20810909,0,41210519,10910309,0,21102009,0,31510609,0,41500319,0,0,11611109,10911009,0,0,0,0,-1071101,11610509,0,0,12011519,41401419,0,0,20802019,31810719,41401209,0,21710509,31611309,0,31700019,20211119,21001119
8,129,500.175731955096,0,0,1840175.13281519,1840176.17983047,5,1,0,18,9,11311109,106023147,51702128,82233157,0,0,0,0,0,0,0,0,11311109,41202009,0,0,20110409,40610709,0,0,0,-4100020,40001119,0,11701009,0,0,0,0,0,0,0,0,20010219,0,40411819,0,0,21811119,0
8,130,503.108364529908,1,0,1840177.72097818,1840178.76799346,5,0,1,5,31,190436735,265631321,170057222,218251802,0,31211309,10611609,32001209,-2191061,0,41400019,41811409,31210119,11411219,30011809,30201609,20300019,10401019,41202009,40200409,40201219,41702009,10211409,10800119,0,21410109,32000819,21411909,10811119,21600819,41810919,40511019,11901409,30600209,21011809,0,30712019,30911619,10802009,41801709
8,131,562.025484861806,1,0,1840184.50901483,1840185.55604743,6,1,1,7,19,67323448,144504574,125523485,112125465,0,0,11301719,41201609,10810009,0,-4010111,0,0,21900719,30201309,11600209,0,30200909,40200609,10400819,0,0,0,0,0,30910119,0,32001019,20900219,30511919,11200209,30510219,31001909,30300109,10001319,0,0,0,0,10311909
8,132,488.834012066945,0,0,1840187.14427586,1840188.19126497,6,0,0,5,3,44502039,11010119,11010419,0,0,0,0,0,-4190120,0,0,40311919,0,0,0,0,0,11010119,0,0,0,0,0,0,0,0,0,0,0,11010419,0,0,0,0,0,0,0,0,0,0
8,133,456.518464488909,1,0,1840189.87358171,1840190.92060392,6,0,1,3,31,155250223,185547573,218733422,176840031,0,10611209,-1080130,10511019,11110819,30311909,30201309,30311809,31112019,0,20511709,0,21001009,10410909,30010909,42000919,21501109,40111009,41901119,21310009,10110119,11300009,20100009,0,41900219,31001019,41110919,10101009,20711509,21401219,20411719,21302019,10300009,20500419,30811619,21300509
8,134,484.761125175282,0,1,1840192.54408708,1840193.59112353,6,1,1,30,3,21300719,30600209,0,43981069,0,0,21300719,0,0,0,0,0,0,0,0,0,30600209,0,0,0,0,0,0,0,0,0,0,0,0,0,0,0,0,-3170160,0,0,0,40810909,0,0
8,135,568.631799891591,0,0,1840195.22637341,1840196.27339793,6,1,0,29,19,63722457,108036175,114035875,219377325,0,0,21000619,31611719,0,11110119,0,0,0,21502019,31710919,0,10911709,0,0,0,11900219,32011309,0,0,30412019,0,30800509,20211119,11801909,20810319,0,42010609,-2031031,0,41010419,0,30801519,30801209,32011919,40710619
8,136,435.173533856869,1,0,1840197.86158825,1840198.90862163,6,1,1,15,9,63422957,13620959,10910309,115623946,0,0,31910619,0,20901519,0,0,0,10610819,0,10500919,0,0,0,-3120040,0,0,0,0,0,0,10910309,0,0,0,0,0,22000719,0,0,40110209,0,21901509,0,31611509,0
8,137,415.351124014705,0,0,1840200.46152489,1840201.50854209,6,0,0,21,0,0,0,0,0,0,0,0,0,0,0,0,0,0,0,0,0,0,0,0,0,0,0,0,0,-20400191,0,0,0,0,0,0,0,0,0,0,0,0,0,0,0
8,138,491.210376378149,1,0,1840203.1085076,1840204.15553135,6,1,1,33,31,206451302,210718902,218747423,202167403,22001609,20910209,40511909,0,31211319,20101119,11301919,30111209,30302009,10800909,11100119,41901109,32002019,21111119,41300809,21001009,31501809,0,41411919,41401009,0,21910319,22000619,41411619,20401719,30210219,0,20201319,30400409,31510209,31411719,11311609,-3030101,31901209,21000709,21400119
8,139,420.85375613533,0,0,1840205.77909035,1840206.8260833,6,1,0,19,19,125544355,64022437,86896567,199446003,20810909,0,41210519,10910309,0,21102009,0,31510609,0,41500319,0,0,11611109,10911009,0,0,0,0,-1071101,11610509,0,0,12011519,41401419,0,0,20802019,31810719,41401209,0,21710509,31611309,0,31700019,20211119,21001119
8,140,516.168550122529,0,0,1840208.43777665,1840209.48479308,6,0,0,20,31,203946213,208555941,172344733,228030122,0,20901019,20900809,40411319,0,10400609,40910319,30011819,40410319,31811119,10210009,31210119,30010219,20500809,30411019,11900209,20900919,21601519,11300109,-4120140,30601119,31411619,32000409,0,11200409,41010009,10700919,41800919,20601819,11001319,11212009,30900309,30411919,40700219,41401609,0
8,141,602.840970735997,0,0,1840211.0259354,1840212.07302113,6,1,0,4,9,84333977,20301609,86534666,40901519,31400009,20611409,0,-1111140,31211419,0,0,0,0,0,0,20301609,0,0,0,0,0,0,0,21711719,11811119,41211619,0,0,0,11800209,0,0,0,0,40901519,0,0,0,0,0
8,142,407.385126920417,1,0,1840213.75526819,1840214.80229733,6,1,1,18,9,11311109,106023147,51702128,82233157,0,0,0,0,0,0,0,0,11311109,41202009,0,0,20110409,40610709,0,0,0,-4100020,40001119,0,11701009,0,0,0,0,0,0,0,0,20010219,0,40411819,0,0,21811119,0
8,143,465.592379216105,1,0,1840216.21402771,1840217.26105185,6,0,1,21,9,42210728,21210609,85923737,92514347,21200409,21010319,0,0,0,0,0,0,0,0,21210609,0,0,0,0,0,0,0,11810419,0,-2101100,0,0,31400209,40612009,0,0,10411809,0,40701519,0,0,0,0,0,41401019
8,144,451.52244111523,0,0,1840218.90807036,1840219.95509488,6,1,0,23,31,192359931,169525684,208009162,195927412,21411319,31600109,10000509,22011819,21212009,11301419,11810419,31802009,31210319,21802009,21402019,21000019,31410009,0,0,0,31910109,42001519,11111209,20901509,30300219,30401519,-3181150,30201809,10410619,30201119,41300009,11001519,0,30401609,20301709,40410219,10710519,30000619,11900109,41201109
8,145,447.710172506049,1,0,1840221.56682942,1840222.61385163,6,1,1,12,3,0,24250759,22823328,0,0,0,0,0,0,0,0,0,0,0,0,-4040040,0,0,0,20210719,0,0,0,0,11011609,11811719,0,0,0,0,0,0,0,0,0,0,0,0,0,0
8,146,359.625715296716,0,0,1840224.10791938,1840225.15495661,6,0,0,9,9,1110001,73911337,62812718,76113966,0,0,0,0,0,0,0,0,-1110001,21800509,0,0,0,0,31700819,0,0,20410009,0,0,31812009,0,0,31000709,0,0,0,0,11601319,0,11802019,11110519,0,0,0,41600109
8,147,385.922398418188,0,0,1840226.61376078,1840227.6607649,6,1,0,28,0,0,0,0,0,0,0,0,0,0,0,0,0,0,0,0,0,0,0,0,0,0,0,0,0,0,0,0,0,0,0,0,-30100301,0,0,0,0,0,0,0,0
8,148,539.551849011332,1,0,1840229.09605296,1840230.14303552,6,0,1,26,9,92322047,61312528,33701300,43134327,0,20710209,0,31111719,0,0,0,0,40500119,0,0,0,0,0,0,40811119,0,20501409,0,0,31500209,0,0,0,0,-2201091,0,0,20511409,0,11911409,0,10711509,0,0,0
8,149,705.112779280171,1,0,1840231.76653908,1840232.81356784,6,1,1,1,31,189815304,177639302,268745422,184558442,-2071001,31511509,0,41110509,21100119,20900619,11000109,31910819,30210619,31001309,20001609,0,32011009,30510719,21301219,11500909,20711119,10601409,41600009,40011419,31810109,40401819,0,30210219,12010719,41600209,31100919,20500719,20111719,10900709,10210519,41411319,10811119,30200819,40411519,0
8,150,483.399133430794,0,0,1840234.57822811,1840235.62525533,6,0,0,31,19,53402557,187657203,154636075,136335416,21000719,0,0,0,0,0,0,11301119,21100719,40810219,40111709,20601019,31100519,12011909,21611119,0,0,21410709,31700919,30011709,0,0,41210709,0,0,30600719,21112019,42011309,40411319,0,-2000170,0,0,31710709,20201909,0
8,151,487.990177702159,0,0,1840237.30763597,1840238.35458889,6,0,0,11,3,0,15021989,51220318,0,0,0,0,0,0,0,0,0,0,0,-3111080,0,0,0,0,11910909,0,0,0,40910309,0,0,0,0,10310009,0,0,0,0,0,0,0,0,0,0,0
8,152,432.563498616219,1,0,1840239.93102097,1840240.97804818,6,0,1,27,19,207736793,84815537,84923948,144725584,0,10611609,0,40600519,42001919,21001009,21510009,31201119,40810609,41511919,0,0,0,12001609,0,0,0,31302009,40600519,11900909,0,0,0,30301319,0,0,-2121201,0,21402009,0,21211909,30410619,30300419,0,11400019,30000609
8,153,519.944632193074,1,0,1840242.5074207,1840243.55443522,6,1,1,6,3,35382438,20501609,0,0,11512019,0,0,0,0,-3170010,20700409,0,0,0,0,0,0,0,0,0,0,20501609,0,0,0,0,0,0,0,0,0,0,0,0,0,0,0,0,0,0
8,154,502.085138345137,0,0,1840245.16616551,1840246.21319889,6,0,0,34,31,144536313,196146113,209315711,211782403,20910709,31001219,10610219,30210419,11100519,0,10101719,0,30601509,0,10211819,30310519,40900819,21510409,30200019,0,21201019,41811509,31900409,20400109,41601909,11600519,20500209,40001619,21810509,10700409,10800019,30811319,11000719,10501719,31401309,10801909,41201909,-4161081,30300619,41601819
8,155,377.398207783699,1,0,1840247.77786232,1840248.82488954,6,0,1,16,19,215238202,85265337,73212237,74221846,40601009,20401919,10810009,40010019,20302019,31501209,41300209,10311809,0,0,31511109,0,11711819,0,10911109,-1130181,0,30001119,0,30800609,21600319,0,20811309,0,0,0,0,21000909,10710309,31900009,0,0,0,0,10610619,0
8,156,375.151960644871,0,0,1840250.21308687,1840251.26012409,6,0,0,32,3,10700319,30700009,20011919,3070131,10700319,0,0,0,0,0,0,0,0,0,0,0,0,0,0,0,30700009,0,0,0,0,0,20011919,0,0,0,0,0,0,0,0,-3070131,0,0,0,0
8,157,488.121064612642,0,0,1840255.80116901,1840256.84819469,7,1,0,4,9,84333977,20301609,86534666,40901519,31400009,20611409,0,-1111140,31211419,0,0,0,0,0,0,20301609,0,0,0,0,0,0,0,21711719,11811119,41211619,0,0,0,11800209,0,0,0,0,40901519,0,0,0,0,0
8,158,483.983119018376,0,0,1840258.43646585,1840259.48343456,7,1,0,7,19,67323448,144504574,125523485,112125465,0,0,11301719,41201609,10810009,0,-4010111,0,0,21900719,30201309,11600209,0,30200909,40200609,10400819,0,0,0,0,0,30910119,0,32001019,20900219,30511919,11200209,30510219,31001909,30300109,10001319,0,0,0,0,10311909
8,159,413.33893337287,1,0,1840261.01279784,1840262.05981735,7,1,1,23,31,192359931,169525684,208009162,195927412,21411319,31600109,10000509,22011819,21212009,11301419,11810419,31802009,31210319,21802009,21402019,21000019,31410009,0,0,0,31910109,42001519,11111209,20901509,30300219,30401519,-3181150,30201809,10410619,30201119,41300009,11001519,0,30401609,20301709,40410219,10710519,30000619,11900109,41201109
8,160,479.672711109743,1,0,1840263.57743471,1840264.62445692,7,0,1,26,3,32312418,30010909,1151141,0,21811809,0,0,10500609,0,0,0,0,0,0,30010909,0,0,0,0,0,0,0,0,0,0,0,0,0,0,-1151141,0,0,0,0,0,0,0,0,0,0
8,161,404.751223977655,1,0,1840266.22448094,1840267.27151239,7,0,1,21,3,0,41510809,21821310,40000609,0,0,0,0,0,0,0,0,0,0,41510809,0,0,0,0,0,0,0,0,0,-1111191,0,20710119,0,0,0,0,0,0,0,0,0,0,0,40000609,0
8,162,494.165721582249,0,0,1840268.83610769,1840269.88312643,7,0,0,3,9,74223418,51902428,41313418,72721438,0,0,-1101071,0,0,31510719,10611209,0,31000419,0,0,31401209,0,20501219,0,0,0,0,0,0,30911709,0,0,0,0,10401709,0,0,0,0,0,0,41410919,0,0,31310519
8,163,427.364215720445,0,0,1840271.49485057,1840272.54188395,7,1,0,6,3,35382438,20501609,0,0,11512019,0,0,0,0,-3170010,20700409,0,0,0,0,0,0,0,0,0,0,20501609,0,0,0,0,0,0,0,0,0,0,0,0,0,0,0,0,0,0
8,164,808.727331692353,0,0,1840274.16544833,1840275.21239548,7,0,0,31,31,177945782,220959441,207027422,167225495,11310809,30200809,31610419,20901009,20701309,21900709,30010109,11310609,0,11001609,21511219,30511519,21811209,21810619,20900419,41600019,30410819,21402009,31101619,30000919,21810209,0,40001809,10112019,41400319,10700219,21900309,40810819,0,20902009,-3010121,21401409,20300009,0,40700109,20101019
8,165,578.306253999472,0,0,1840277.04764681,1840278.09466633,7,0,0,32,9,104415257,0,52712028,136636627,31802019,0,0,41302019,0,0,0,0,31311219,0,0,0,0,0,0,0,0,0,0,0,0,0,0,0,0,10711019,42001009,41411819,0,40110809,0,-4091061,20711119,0,30311819,0
8,166,447.233205894008,1,0,1840279.77697961,1840280.82400605,7,0,1,5,19,43983068,143634585,206627503,96814275,0,31100809,11701219,0,-1181040,0,0,0,0,21000719,30010519,0,31301309,0,0,30310119,31011919,0,20202019,32000919,40300209,0,41500609,0,20811119,20401219,31411409,0,21610119,0,21401719,11501709,20300519,22000209,0,0
8,167,503.417488420382,1,0,1840282.38867603,1840283.43569478,7,1,1,29,19,63722457,108036175,114035875,219377325,0,0,21000619,31611719,0,11110119,0,0,0,21502019,31710919,0,10911709,0,0,0,11900219,32011309,0,0,30412019,0,30800509,20211119,11801909,20810319,0,42010609,-2031031,0,41010419,0,30801519,30801209,32011919,40710619
8,168,403.937801485881,1,0,1840284.96507269,1840286.01209875,7,1,1,18,9,11311109,106023147,51702128,82233157,0,0,0,0,0,0,0,0,11311109,41202009,0,0,20110409,40610709,0,0,0,-4100020,40001119,0,11701009,0,0,0,0,0,0,0,0,20010219,0,40411819,0,0,21811119,0
8,169,423.72594983317,1,0,1840287.55331036,1840288.60027637,7,1,1,12,3,0,24250759,22823328,0,0,0,0,0,0,0,0,0,0,0,0,-4040040,0,0,0,20210719,0,0,0,0,11011609,11811719,0,0,0,0,0,0,0,0,0,0,0,0,0,0
8,170,596.079131355509,0,0,1840290.07081723,1840291.11783521,7,1,0,30,3,21300719,30600209,0,43981069,0,0,21300719,0,0,0,0,0,0,0,0,0,30600209,0,0,0,0,0,0,0,0,0,0,0,0,0,0,0,0,-3170160,0,0,0,40810909,0,0
8,171,490.071661537513,0,0,1840292.85897591,1840293.90599042,7,1,0,19,19,125544355,64022437,86896567,199446003,20810909,0,41210519,10910309,0,21102009,0,31510609,0,41500319,0,0,11611109,10911009,0,0,0,0,-1071101,11610509,0,0,12011519,41401419,0,0,20802019,31810719,41401209,0,21710509,31611309,0,31700019,20211119,21001119
8,172,410.546426428482,0,0,1840295.52948897,1840296.57651042,7,0,0,20,9,41400419,81722838,62983018,123325776,0,41400419,0,0,0,0,0,0,0,0,0,0,0,40511519,0,41211319,0,0,0,-1171090,0,0,0,0,0,20600909,41211019,0,40601919,0,0,0,0,11701519,30012019,41010319
8,173,365.691930055618,1,0,1840298.04705513,1840299.09411122,7,1,1,28,0,0,0,0,0,0,0,0,0,0,0,0,0,0,0,0,0,0,0,0,0,0,0,0,0,0,0,0,0,0,0,0,-30100301,0,0,0,0,0,0,0,0
8,174,441.264001419768,1,0,1840300.51758406,1840301.56460357,7,0,1,33,0,0,0,0,0,0,0,0,0,0,0,0,0,0,0,0,0,0,0,0,0,0,0,0,0,0,0,0,0,0,0,0,0,0,0,0,0,-41100691,0,0,0
8,175,447.859537322074,1,0,1840303.19985961,1840304.24688451,7,0,1,34,19,125146084,73723637,144249084,125504767,20810709,10400619,0,10100409,10411509,41911019,0,0,31511819,21511719,0,21511409,30700509,0,0,0,0,0,11411419,31211619,0,30611809,0,10201509,40411519,20401209,0,40601709,0,0,20011409,30510219,0,-4170011,30211419,0
8,176,427.590572973713,0,0,1840305.8233189,1840306.87034265,7,0,0,16,31,198228522,170278192,195236773,179738882,20001319,11901809,20800919,30301419,41400909,0,21000419,21510109,31311619,30912019,11110119,12010909,21311409,10600519,40210909,-3100080,20911819,20110409,31911509,40801709,30602009,10110209,0,11410509,30300519,40100309,0,0,30611609,20601819,10101909,21611009,31700009,22010909,31600709,11500909
8,177,456.767534138635,0,0,1840308.4820818,1840309.52912057,7,0,0,9,19,96986406,125368484,96635664,40320638,30310619,0,0,0,21110209,11401819,11701709,21410919,-1051131,0,11211509,31210219,20611409,0,31511519,10311909,0,20511919,10810909,0,0,21810009,11701109,20700609,21411009,0,10202019,0,10010219,0,0,30310419,0,0,0,0
8,178,441.11078674905,0,0,1840311.10552377,1840312.15255175,7,0,0,11,3,31301409,33832559,31610419,0,0,0,0,0,0,0,31301409,0,0,0,-2031050,0,0,0,0,0,0,31801509,31610419,0,0,0,0,0,0,0,0,0,0,0,0,0,0,0,0,0
8,179,480.694012716413,1,0,1840313.67020837,1840314.71719517,7,1,1,33,31,206451302,210718902,218747423,202167403,22001609,20910209,40511909,0,31211319,20101119,11301919,30111209,30302009,10800909,11100119,41901109,32002019,21111119,41300809,21001009,31501809,0,41411919,41401009,0,21910319,22000619,41411619,20401719,30210219,0,20201319,30400409,31510209,31411719,11311609,-3030101,31901209,21000709,21400119
8,180,530.48755810596,0,0,1840316.25832863,1840317.30535431,7,1,0,1,31,189815304,177639302,268745422,184558442,-2071001,31511509,0,41110509,21100119,20900619,11000109,31910819,30210619,31001309,20001609,0,32011009,30510719,21301219,11500909,20711119,10601409,41600009,40011419,31810109,40401819,0,30210219,12010719,41600209,31100919,20500719,20111719,10900709,10210519,41411319,10811119,30200819,40411519,0
8,181,470.314310165122,1,0,1840318.99942352,1840320.04644843,7,1,1,15,9,63422957,13620959,10910309,115623946,0,0,31910619,0,20901519,0,0,0,10610819,0,10500919,0,0,0,-3120040,0,0,0,0,0,0,10910309,0,0,0,0,0,22000719,0,0,40110209,0,21901509,0,31611509,0
8,182,501.038814662024,1,0,1840321.58758882,1840322.63460757,7,0,1,27,31,221848641,177749542,166648744,199267892,42000119,11611009,21712009,21501219,31810519,30300709,30811419,10600719,21500919,40001219,10411019,11001919,31211819,0,20511619,11611219,11900009,41100719,30400509,11101609,30910309,0,41112009,20201719,30811419,0,-2111170,11001519,0,10910409,20401209,11910719,41611909,21610309,41110309,40711509
8,183,454.062798526138,1,0,1840330.23440177,1840331.2814336,8,0,1,20,9,82912138,81633447,62762749,81622728,0,0,0,0,41901919,41010219,0,0,0,40510219,0,0,0,0,20311519,20811709,0,0,0,-2150021,0,30201009,0,0,0,0,30411719,0,0,0,0,40711319,0,40911409,0,0
8,184,392.112185712904,1,0,1840332.77551599,1840333.82254012,8,0,1,22,0,0,0,0,0,0,0,0,0,0,0,0,0,0,0,0,0,0,0,0,0,0,0,0,0,0,-11810901,0,0,0,0,0,0,0,0,0,0,0,0,0,0
8,185,461.127986898646,1,1,1840335.32838267,1840336.37540758,8,0,0,26,31,250338902,217937702,200846574,215339612,31001319,11900309,41611619,41802009,42000209,40212019,0,31600409,10211009,10901119,41100409,21910809,0,40010309,31601109,30511409,20401919,21500619,20310419,31301509,0,41511219,21001909,10200109,41500319,-4120181,30900909,10711509,0,10001819,40200409,30010319,40301819,30111809,22000109,32001819
8,186,548.93103777431,0,0,1840338.01066207,1840339.05769198,8,0,0,11,31,238835102,201185184,199043003,178940741,31810909,11300509,21400409,40500509,21710119,30410619,40200419,41501609,0,11000009,-4070101,30100409,40610109,31501119,0,31301609,21700609,30901219,41810819,21100919,31010119,0,40910009,11300009,11900809,41010319,0,30901219,20501319,11711109,30301519,21900919,21212019,10800309,20402009,11210319
8,187,821.494562085718,0,0,1840340.63411482,1840341.68114281,8,1,0,28,0,0,0,0,0,0,0,0,0,0,0,0,0,0,0,0,0,0,0,0,0,0,0,0,0,0,0,0,0,0,0,0,-30100301,0,0,0,0,0,0,0,0
8,188,585.772186517715,0,0,1840343.55168852,1840344.59872151,8,1,0,30,3,21300719,30600209,0,43981069,0,0,21300719,0,0,0,0,0,0,0,0,0,30600209,0,0,0,0,0,0,0,0,0,0,0,0,0,0,0,0,-3170160,0,0,0,40810909,0,0
8,189,478.994795121253,1,0,1840346.36337909,1840347.41039322,8,0,1,27,9,113735285,51912528,56604339,0,20810319,0,10010709,20611219,41201919,21101119,0,0,0,0,30610519,21302009,0,0,0,0,0,0,0,0,0,0,0,12011319,40502019,0,-4091001,0,0,0,0,0,0,0,0,0
8,190,743.479143595323,1,0,1840349.08094517,1840350.12797007,8,1,1,1,31,189815304,177639302,268745422,184558442,-2071001,31511509,0,41110509,21100119,20900619,11000109,31910819,30210619,31001309,20001609,0,32011009,30510719,21301219,11500909,20711119,10601409,41600009,40011419,31810109,40401819,0,30210219,12010719,41600209,31100919,20500719,20111719,10900709,10210519,41411319,10811119,30200819,40411519,0
8,191,475.533226039261,1,0,1840351.9396899,1840352.98671981,8,1,1,7,19,67323448,144504574,125523485,112125465,0,0,11301719,41201609,10810009,0,-4010111,0,0,21900719,30201309,11600209,0,30200909,40200609,10400819,0,0,0,0,0,30910119,0,32001019,20900219,30511919,11200209,30510219,31001909,30300109,10001319,0,0,0,0,10311909
8,192,493.503973819315,0,0,1840354.57489551,1840355.62193273,8,1,0,33,31,206451302,210718902,218747423,202167403,22001609,20910209,40511909,0,31211319,20101119,11301919,30111209,30302009,10800909,11100119,41901109,32002019,21111119,41300809,21001009,31501809,0,41411919,41401009,0,21910319,22000619,41411619,20401719,30210219,0,20201319,30400409,31510209,31411719,11311609,-3030101,31901209,21000709,21400119
8,193,415.760722476989,1,0,1840357.23366226,1840358.28068909,8,0,1,21,19,155635385,207537813,44002668,114727475,31100719,11011119,31701719,40010919,0,0,41810909,0,0,41110609,31100319,0,30501619,31001919,40700519,21510809,0,11612019,11110519,30701119,-2191030,0,0,0,0,0,0,31700619,11502019,10511819,0,41011509,20001509,0,0,0
8,194,488.650385756046,0,0,1840359.78653203,1840360.83356425,8,0,0,32,3,31100419,0,0,43773828,0,31100419,0,0,0,0,0,0,0,0,0,0,0,0,0,0,0,0,0,0,0,0,0,0,0,0,0,0,21300619,0,20402009,-2071200,0,0,0,0
8,195,487.95745591633,1,0,1840362.33942104,1840363.38642247,8,1,1,19,19,125544355,64022437,86896567,199446003,20810909,0,41210519,10910309,0,21102009,0,31510609,0,41500319,0,0,11611109,10911009,0,0,0,0,-1071101,11610509,0,0,12011519,41401419,0,0,20802019,31810719,41401209,0,21710509,31611309,0,31700019,20211119,21001119
8,196,571.765382075682,0,0,1840365.02169467,1840366.06872227,8,0,0,31,31,175336593,165747703,207047531,230346532,0,41500319,31011109,0,10600919,21111909,40610409,10300419,20201509,0,21211209,30000709,0,20201719,31311419,20712009,31400019,10910619,20501819,21410719,20301809,30611109,20401219,41000119,20810619,21400109,10610009,21511019,21711509,31300319,-1101120,41600219,40110619,11300709,41010809,20700209
8,197,429.138885810971,1,0,1840367.75101476,1840368.79803736,8,1,1,6,3,35382438,20501609,0,0,11512019,0,0,0,0,-3170010,20700409,0,0,0,0,0,0,0,0,0,0,20501609,0,0,0,0,0,0,0,0,0,0,0,0,0,0,0,0,0,0
8,198,510.453034890816,0,0,1840370.26859824,1840371.31561467,8,0,0,5,3,33521680,30610519,30510019,0,0,0,0,0,-3111061,30410619,0,0,0,0,0,0,0,0,30610519,0,0,0,0,0,0,0,0,30510019,0,0,0,0,0,0,0,0,0,0,0,0
8,199,468.078071950004,1,0,1840372.99792795,1840374.0449621,8,1,1,29,19,63722457,108036175,114035875,219377325,0,0,21000619,31611719,0,11110119,0,0,0,21502019,31710919,0,10911709,0,0,0,11900219,32011309,0,0,30412019,0,30800509,20211119,11801909,20810319,0,42010609,-2031031,0,41010419,0,30801519,30801209,32011919,40710619
8,200,456.896110903472,0,0,1840375.57431922,1840376.62135875,8,1,0,12,3,0,24250759,22823328,0,0,0,0,0,0,0,0,0,0,0,0,-4040040,0,0,0,20210719,0,0,0,0,11011609,11811719,0,0,0,0,0,0,0,0,0,0,0,0,0,0
8,201,390.538850333542,0,0,1840378.11543382,1840379.1624568,8,1,0,23,31,192359931,169525684,208009162,195927412,21411319,31600109,10000509,22011819,21212009,11301419,11810419,31802009,31210319,21802009,21402019,21000019,31410009,0,0,0,31910109,42001519,11111209,20901509,30300219,30401519,-3181150,30201809,10410619,30201119,41300009,11001519,0,30401609,20301709,40410219,10710519,30000619,11900109,41201109
8,202,441.385648911819,1,0,1840380.69183394,1840381.73885769,8,0,1,9,9,65351528,52811528,23011328,51510518,21400209,20010509,0,0,0,0,21910619,0,-2030191,0,0,0,0,0,0,11110709,41700819,0,0,0,11110219,0,0,0,11901109,0,0,0,0,0,0,10910409,0,40600109,0,0
8,203,390.274382196367,0,0,1840383.33881974,1840384.38583271,8,1,0,15,9,63422957,13620959,10910309,115623946,0,0,31910619,0,20901519,0,0,0,10610819,0,10500919,0,0,0,-3120040,0,0,0,0,0,0,10910309,0,0,0,0,0,22000719,0,0,40110209,0,21901509,0,31611509,0
8,204,575.00636857003,0,0,1840385.86818687,1840386.91519137,8,1,0,4,9,84333977,20301609,86534666,40901519,31400009,20611409,0,-1111140,31211419,0,0,0,0,0,0,20301609,0,0,0,0,0,0,0,21711719,11811119,41211619,0,0,0,11800209,0,0,0,0,40901519,0,0,0,0,0
8,205,394.821541151032,1,0,1840388.66815153,1840389.71515103,8,1,1,18,9,11311109,106023147,51702128,82233157,0,0,0,0,0,0,0,0,11311109,41202009,0,0,20110409,40610709,0,0,0,-4100020,40001119,0,11701009,0,0,0,0,0,0,0,0,20010219,0,40411819,0,0,21811119,0
8,206,364.558605011553,0,0,1840391.24448929,1840392.29151111,8,0,0,16,3,31912938,1061041,40500919,0,0,0,21712019,0,0,0,0,0,10200919,0,0,0,0,0,0,-1061041,0,0,0,0,0,0,40500919,0,0,0,0,0,0,0,0,0,0,0,0,0
8,207,443.503704154864,0,1,1840393.7973502,1840394.84438704,8,0,1,3,19,125566396,85025376,51922237,194366783,0,0,-1040001,11100819,31401119,20501219,40111819,0,21411419,0,40300919,11211819,0,0,11801219,0,21711419,0,0,0,0,0,0,21010509,10111509,0,20800219,21610909,40410719,20001609,10110309,0,40611819,0,30111009,31510409
8,208,535.503599559888,1,0,1840396.38551896,1840397.43254541,8,0,1,34,19,123035656,143623045,165947713,114352618,0,0,0,40411619,30211619,0,0,21911009,30501409,40110009,0,0,0,30710309,0,10901309,21800909,40100509,10001419,22001309,11011509,0,40910519,20101619,0,21510919,40410419,40200219,0,0,0,0,30901019,-3041071,0,40210309
8,209,426.464562071487,1,0,1840402.38534496,1840403.43238026,9,1,1,6,3,35382438,20501609,0,0,11512019,0,0,0,0,-3170010,20700409,0,0,0,0,0,0,0,0,0,0,20501609,0,0,0,0,0,0,0,0,0,0,0,0,0,0,0,0,0,0
8,210,435.783312190324,1,0,1840404.89116249,1840405.93819317,9,0,1,9,3,55212448,0,0,31400309,0,0,20601419,0,0,0,30600019,0,-4011010,0,0,0,0,0,0,0,0,0,0,0,0,0,0,0,0,0,0,0,0,0,0,0,0,0,0,31400309
8,211,379.031597170979,0,0,1840407.40873866,1840408.45586173,9,0,0,16,19,166938793,66294049,62423346,176024194,0,0,42001309,10801609,30401519,31400119,10310909,21111309,20912019,0,0,0,20211719,0,0,-4071111,42011219,0,31601719,10610009,0,0,0,10101309,10110309,0,0,41000619,41200209,0,20600209,11011819,0,31301019,30910319,0
8,212,427.835793001577,0,0,1840409.99694784,1840411.04393156,9,1,0,19,19,125544355,64022437,86896567,199446003,20810909,0,41210519,10910309,0,21102009,0,31510609,0,41500319,0,0,11611109,10911009,0,0,0,0,-1071101,11610509,0,0,12011519,41401419,0,0,20802019,31810719,41401209,0,21710509,31611309,0,31700019,20211119,21001119
8,213,435.21203007549,1,0,1840412.56153659,1840413.60856034,9,0,1,21,3,0,0,56921748,30400219,0,0,0,0,0,0,0,0,0,0,0,0,0,0,0,0,0,0,22010919,0,-3200010,0,0,0,0,31710819,0,0,0,0,0,0,30400219,0,0,0
8,214,392.020564991981,0,1,1840415.19675913,1840416.24378211,9,0,1,5,9,32532620,43412138,81432547,92621827,31511609,0,0,0,-1021011,0,0,0,0,0,0,0,11801519,31610619,0,0,0,0,0,20111009,0,40811019,0,0,0,20510519,0,40411009,40510609,11700209,0,0,0,0,0,0
8,215,401.681930292398,1,1,1840417.73786719,1840418.78489479,9,1,0,29,19,63722457,108036175,114035875,219377325,0,0,21000619,31611719,0,11110119,0,0,0,21502019,31710919,0,10911709,0,0,0,11900219,32011309,0,0,30412019,0,30800509,20211119,11801909,20810319,0,42010609,-2031031,0,41010419,0,30801519,30801209,32011919,40710619
8,216,535.547869745642,1,0,1840420.32602594,1840421.3730597,9,1,1,7,19,67323448,144504574,125523485,112125465,0,0,11301719,41201609,10810009,0,-4010111,0,0,21900719,30201309,11600209,0,30200909,40200609,10400819,0,0,0,0,0,30910119,0,32001019,20900219,30511919,11200209,30510219,31001909,30300109,10001319,0,0,0,0,10311909
8,217,487.379629630595,0,0,1840423.11419117,1840424.16121184,9,0,0,11,19,134605456,187435705,74723947,154204104,0,0,0,20101819,42001209,31800709,0,40701719,0,41511609,-1100011,11110419,40010319,30201219,41801819,21700309,0,0,0,20711709,22011919,32000319,0,0,0,0,0,0,31000419,40200019,10700519,0,40300919,0,20301719,11700509
8,218,486.438785213977,0,0,1840425.7611785,1840426.80819879,9,0,0,31,0,0,0,0,0,0,0,0,0,0,0,0,0,0,0,0,0,0,0,0,0,0,0,0,0,0,0,0,0,0,0,0,0,0,0,-20102001,0,0,0,0,0
8,219,533.310476923361,1,0,1840428.34933956,1840429.39636524,9,1,1,18,9,11311109,106023147,51702128,82233157,0,0,0,0,0,0,0,0,11311109,41202009,0,0,20110409,40610709,0,0,0,-4100020,40001119,0,11701009,0,0,0,0,0,0,0,0,20010219,0,40411819,0,0,21811119,0
8,220,530.476779211313,1,0,1840431.11396827,1840432.16099818,9,0,1,32,9,73423656,10410409,61900218,53703229,0,11900419,0,0,40211009,10001219,11311009,0,0,0,0,10410409,0,0,0,0,0,0,0,30800009,0,0,0,31100209,0,0,0,0,0,0,0,-2101001,0,0,30400719,21201509
8,221,542.193451197818,0,0,1840433.79624921,1840434.84326526,9,1,0,30,3,21300719,30600209,0,43981069,0,0,21300719,0,0,0,0,0,0,0,0,0,30600209,0,0,0,0,0,0,0,0,0,0,0,0,0,0,0,0,-3170160,0,0,0,40810909,0,0
8,222,519.33947368525,1,0,1840436.53734603,1840437.58437247,9,0,1,26,3,41411119,0,15041300,20701619,41411119,0,0,0,0,0,0,0,0,0,0,0,0,0,0,0,0,0,0,0,10901209,0,0,0,0,-4140091,0,0,0,20701619,0,0,0,0,0,0
8,223,588.552374858409,0,0,1840439.20785794,1840440.254884,9,1,0,1,31,189815304,177639302,268745422,184558442,-2071001,31511509,0,41110509,21100119,20900619,11000109,31910819,30210619,31001309,20001609,0,32011009,30510719,21301219,11500909,20711119,10601409,41600009,40011419,31810109,40401819,0,30210219,12010719,41600209,31100919,20500719,20111719,10900709,10210519,41411319,10811119,30200819,40411519,0
8,224,444.85722691752,1,0,1840441.91367308,1840442.96069722,9,1,1,4,9,84333977,20301609,86534666,40901519,31400009,20611409,0,-1111140,31211419,0,0,0,0,0,0,20301609,0,0,0,0,0,0,0,21711719,11811119,41211619,0,0,0,11800209,0,0,0,0,40901519,0,0,0,0,0
8,225,487.180989934132,1,0,1840444.53715547,1840445.58414535,9,0,1,3,31,212994573,198234993,250227412,268429231,42000109,30800819,-4040090,20711309,41911009,32011019,31210009,0,10310209,21610409,10400509,41910019,32001119,0,0,21111719,40800009,30401209,0,31900719,31111709,41901809,31400319,41700519,10200509,30110209,31901619,41900709,41200119,11210909,30701719,40800009,30201809,20501919,41910719,10001319
8,226,421.649085357785,0,0,1840447.14887037,1840448.19583908,9,0,0,27,9,10901019,63002128,105044917,92013147,0,10901019,0,0,0,0,0,0,0,0,0,21101319,0,0,0,41900809,0,0,0,0,0,20410509,41401319,41201909,0,0,-2031180,0,40401609,0,31311519,0,20300019,0,0,0
8,227,410.567599115893,1,0,1840449.70169279,1840450.74871231,9,1,1,12,3,0,24250759,22823328,0,0,0,0,0,0,0,0,0,0,0,0,-4040040,0,0,0,20210719,0,0,0,0,11011609,11811719,0,0,0,0,0,0,0,0,0,0,0,0,0,0
8,228,383.396669756621,0,0,1840452.27809022,1840453.32511243,9,1,0,15,9,63422957,13620959,10910309,115623946,0,0,31910619,0,20901519,0,0,0,10610819,0,10500919,0,0,0,-3120040,0,0,0,0,0,0,10910309,0,0,0,0,0,22000719,0,0,40110209,0,21901509,0,31611509,0
8,229,566.683512413874,1,0,1840454.74860336,1840455.79562789,9,1,1,33,31,206451302,210718902,218747423,202167403,22001609,20910209,40511909,0,31211319,20101119,11301919,30111209,30302009,10800909,11100119,41901109,32002019,21111119,41300809,21001009,31501809,0,41411919,41401009,0,21910319,22000619,41411619,20401719,30210219,0,20201319,30400409,31510209,31411719,11311609,-3030101,31901209,21000709,21400119
8,230,543.131985934451,0,0,1840457.56029586,1840458.60731307,9,1,0,23,31,192359931,169525684,208009162,195927412,21411319,31600109,10000509,22011819,21212009,11301419,11810419,31802009,31210319,21802009,21402019,21000019,31410009,0,0,0,31910109,42001519,11111209,20901509,30300219,30401519,-3181150,30201809,10410619,30201119,41300009,11001519,0,30401609,20301709,40410219,10710519,30000619,11900109,41201109
8,231,480.153142474592,0,0,1840460.20728165,1840461.25430194,9,0,0,34,31,249967222,160557812,148235223,221118453,31310609,0,10111619,41711409,41900019,40301519,21910219,31310419,31411409,20510309,11001509,0,11310619,11611819,22010009,21211019,40901009,22001519,11601019,41901619,41810219,11301019,20300619,0,11210319,0,10110409,31301909,11500119,31101419,41410109,41101119,31001819,-3180131,10310209,20211619
8,232,450.309429084882,0,0,1840462.91308217,1840463.96010785,9,0,0,31,19,117135475,144826755,166033904,85365527,21500719,0,0,0,20600909,0,22010419,12011509,41011919,0,0,0,40111909,20901909,21401009,42001109,20410819,0,30300809,31901219,0,20910919,0,30410719,10800219,41710019,0,32001509,10301909,0,-2061190,0,0,0,41000919,0
8,233,482.671172358096,1,0,1840465.48949384,1840466.53650643,9,0,1,20,31,229048302,190659732,215688343,190959403,41902019,40100409,21100209,20210619,21700819,41710609,21511909,20811709,0,11901519,21711409,11600619,11511609,31910619,40311119,0,20700919,41011919,40401019,-4130041,21411819,21411109,31300109,21910509,21312009,22010319,31801409,31811819,11800009,11100819,21511619,31611809,0,41211919,41911409,0
8,234,408.960771979764,0,0,1840468.10117602,1840469.14819592,9,1,0,28,0,0,0,0,0,0,0,0,0,0,0,0,0,0,0,0,0,0,0,0,0,0,0,0,0,0,0,0,0,0,0,0,-30100301,0,0,0,0,0,0,0,0
8,235,416.280804667622,0,0,1840474.1127722,1840475.15980211,10,0,0,21,31,215048703,228048832,219151453,177430432,0,0,21411909,40001919,10210719,41011909,40610509,30401119,31400619,20500409,21511919,31710219,30911719,0,41601819,41600019,30001909,10210819,31911709,11700919,-1000051,30000009,31101409,21111709,41511819,10001809,40812019,30900319,11001909,31001319,20301719,10401709,0,10411619,32010719,31401119
8,236,457.398485159501,0,0,1840476.66569317,1840477.71267611,10,0,0,3,9,54474409,61901628,33612018,62722327,0,0,-2151091,0,11311409,41011909,0,0,0,0,0,31700809,0,0,0,30200819,0,0,0,0,0,0,0,0,12001109,0,21610909,0,40611809,0,0,0,11110109,0,11000409,0
8,237,478.950909571722,1,0,1840479.2891028,1840480.33612539,10,0,1,9,31,141477103,280059131,190027812,154818403,11900309,20201909,20011219,10600419,31800109,32010919,0,10901019,-4051200,21501709,31410009,30400309,31510919,30211819,22001109,31310719,41610619,40101919,11101409,31601819,40900009,11610419,11100309,0,11101809,30611119,42000919,0,0,40001419,40201709,10301009,10901419,30302009,11400819,11710019
8,238,392.144522396848,1,0,1840481.90079768,1840482.94782028,10,1,1,28,0,0,0,0,0,0,0,0,0,0,0,0,0,0,0,0,0,0,0,0,0,0,0,0,0,0,0,0,0,0,0,0,-30100301,0,0,0,0,0,0,0,0
8,239,600.392619147897,1,0,1840484.54778155,1840485.59480915,10,1,1,7,19,67323448,144504574,125523485,112125465,0,0,11301719,41201609,10810009,0,-4010111,0,0,21900719,30201309,11600209,0,30200909,40200609,10400819,0,0,0,0,0,30910119,0,32001019,20900219,30511919,11200209,30510219,31001909,30300109,10001319,0,0,0,0,10311909
8,240,435.620858566836,1,0,1840487.20653214,1840488.25355204,10,1,1,12,3,0,24250759,22823328,0,0,0,0,0,0,0,0,0,0,0,0,-4040040,0,0,0,20210719,0,0,0,0,11011609,11811719,0,0,0,0,0,0,0,0,0,0,0,0,0,0
8,241,413.499846821651,0,0,1840489.74763596,1840490.7946624,10,0,0,27,9,0,122523737,43912699,105524046,0,0,0,0,0,0,0,0,0,0,41110709,40401909,41011119,0,0,0,0,0,11011409,0,0,0,0,30900119,0,0,-2001171,31901609,0,21410409,0,0,0,10311519,41900509,0
8,242,527.843646239489,0,0,1840492.32403762,1840493.37114298,10,0,0,32,19,156635974,115215256,128036583,55532569,10100319,0,40101719,11210409,0,41810409,21601709,0,31811409,31302009,31201709,0,30801419,0,0,0,21910119,0,11312009,0,10200409,0,21700419,40401409,22010019,11310609,11101709,0,0,0,0,-3020131,40811119,11701319,0,0
8,243,569.193842820823,0,0,1840494.93572673,1840495.98275279,10,1,0,18,9,11311109,106023147,51702128,82233157,0,0,0,0,0,0,0,0,11311109,41202009,0,0,20110409,40610709,0,0,0,-4100020,40001119,0,11701009,0,0,0,0,0,0,0,0,20010219,0,40411819,0,0,21811119,0
8,244,445.014290977269,0,0,1840497.72388348,1840498.77090415,10,0,0,34,3,0,60520738,0,33092889,0,0,0,0,0,0,0,0,0,0,40010419,0,0,0,0,0,20510319,0,0,0,0,0,0,0,0,0,0,0,0,0,31001819,0,0,-2091070,0,0
8,245,459.11579602398,1,0,1840500.27675286,1840501.32377931,10,0,1,16,3,41201109,1161151,10500619,30711419,0,0,0,0,41201109,0,0,0,0,0,0,0,0,0,0,-1161151,0,0,10500619,0,0,0,0,0,0,0,0,0,0,30711419,0,0,0,0,0,0
8,246,538.361164741218,0,0,1840502.84138242,1840503.88841079,10,1,0,6,3,35382438,20501609,0,0,11512019,0,0,0,0,-3170010,20700409,0,0,0,0,0,0,0,0,0,0,20501609,0,0,0,0,0,0,0,0,0,0,0,0,0,0,0,0,0,0
8,247,572.286234237254,1,0,1840505.53543508,1840506.58246076,10,0,1,31,19,147326385,113633356,186838684,46488107,0,0,31502019,0,31401719,0,31701509,11910419,40810719,30210519,0,0,20112019,41810409,0,0,0,21500409,21211309,41111219,30701309,41101219,0,0,0,20812019,31901609,11302019,0,0,-3061061,0,0,10311809,10601809,11211409
8,248,399.665119824931,1,1,1840508.24123752,1840509.28826743,10,0,0,5,3,65211268,10201619,0,0,0,0,0,0,-3000140,0,0,41800209,20410919,10201619,0,0,0,0,0,0,0,0,0,0,0,0,0,0,0,0,0,0,0,0,0,0,0,0,0,0
8,249,435.245906701311,0,0,1840510.72356704,1840511.77054729,10,0,0,3,0,0,0,0,0,0,0,-30510291,0,0,0,0,0,0,0,0,0,0,0,0,0,0,0,0,0,0,0,0,0,0,0,0,0,0,0,0,0,0,0,0,0
8,250,490.067042177543,0,0,1840513.41757043,1840514.46459649,10,1,0,33,31,206451302,210718902,218747423,202167403,22001609,20910209,40511909,0,31211319,20101119,11301919,30111209,30302009,10800909,11100119,41901109,32002019,21111119,41300809,21001009,31501809,0,41411919,41401009,0,21910319,22000619,41411619,20401719,30210219,0,20201319,30400409,31510209,31411719,11311609,-3030101,31901209,21000709,21400119
8,251,497.900228016078,1,0,1840516.05278797,1840517.09981749,10,0,1,26,9,21013318,104223337,103573667,0,0,10812009,0,0,0,0,0,0,10201309,0,0,41201409,0,0,21610309,0,41411619,0,0,0,0,0,10000709,40711519,10500819,-2160101,40200519,0,0,0,0,0,0,0,0,0
8,252,802.424365887418,0,0,1840518.77035789,1840519.8173828,10,1,0,1,31,189815304,177639302,268745422,184558442,-2071001,31511509,0,41110509,21100119,20900619,11000109,31910819,30210619,31001309,20001609,0,32011009,30510719,21301219,11500909,20711119,10601409,41600009,40011419,31810109,40401819,0,30210219,12010719,41600209,31100919,20500719,20111719,10900709,10210519,41411319,10811119,30200819,40411519,0
8,253,516.178559279069,1,0,1840521.80557027,1840522.85259056,10,1,1,30,3,21300719,30600209,0,43981069,0,0,21300719,0,0,0,0,0,0,0,0,0,30600209,0,0,0,0,0,0,0,0,0,0,0,0,0,0,0,0,-3170160,0,0,0,40810909,0,0
8,254,441.474189981818,1,0,1840524.52313365,1840525.57015279,10,1,1,23,31,192359931,169525684,208009162,195927412,21411319,31600109,10000509,22011819,21212009,11301419,11810419,31802009,31210319,21802009,21402019,21000019,31410009,0,0,0,31910109,42001519,11111209,20901509,30300219,30401519,-3181150,30201809,10410619,30201119,41300009,11001519,0,30401609,20301709,40410219,10710519,30000619,11900109,41201109
8,255,699.501973344013,1,0,1840527.06425018,1840528.11127162,10,1,1,15,9,63422957,13620959,10910309,115623946,0,0,31910619,0,20901519,0,0,0,10610819,0,10500919,0,0,0,-3120040,0,0,0,0,0,0,10910309,0,0,0,0,0,22000719,0,0,40110209,0,21901509,0,31611509,0
8,256,497.941033681855,1,0,1840529.88775405,1840530.93475124,10,1,1,19,19,125544355,64022437,86896567,199446003,20810909,0,41210519,10910309,0,21102009,0,31510609,0,41500319,0,0,11611109,10911009,0,0,0,0,-1071101,11610509,0,0,12011519,41401419,0,0,20802019,31810719,41401209,0,21710509,31611309,0,31700019,20211119,21001119
8,257,529.139424674213,1,0,1840532.45233279,1840533.49935731,10,1,1,29,19,63722457,108036175,114035875,219377325,0,0,21000619,31611719,0,11110119,0,0,0,21502019,31710919,0,10911709,0,0,0,11900219,32011309,0,0,30412019,0,30800509,20211119,11801909,20810319,0,42010609,-2031031,0,41010419,0,30801519,30801209,32011919,40710619
8,258,519.677854143083,0,0,1840535.06402344,1840536.11104834,10,1,0,4,9,84333977,20301609,86534666,40901519,31400009,20611409,0,-1111140,31211419,0,0,0,0,0,0,20301609,0,0,0,0,0,0,0,21711719,11811119,41211619,0,0,0,11800209,0,0,0,0,40901519,0,0,0,0,0
8,259,478.262599091977,0,0,1840537.69924559,1840538.74626627,10,0,0,11,19,125233566,166976953,64323047,135836275,31400419,40010509,0,0,31811519,0,0,0,22011119,10111509,-3141060,0,30012019,21400119,30610109,30000219,20300409,21401509,0,21610519,0,0,0,11011409,0,31701119,0,10810519,0,0,20101809,41911219,0,41601619,21411109,0
8,260,470.8274633158,1,0,1840540.27565226,1840541.32267486,10,0,1,20,31,237730232,228037322,130725034,186748531,10701909,42001919,0,21001119,41302019,30111009,20210419,40600719,31801119,40311519,41301909,20000119,42000309,21110209,0,20701919,20900519,21710819,21912009,-1180040,11701819,12000319,0,0,11810619,30410009,41710219,30710719,11410109,30801109,10901019,10000919,20401409,31900619,20311609,20311019
8,261,816.566291730851,0,0,1840546.11077079,1840547.157798,11,1,0,1,31,189815304,177639302,268745422,184558442,-2071001,31511509,0,41110509,21100119,20900619,11000109,31910819,30210619,31001309,20001609,0,32011009,30510719,21301219,11500909,20711119,10601409,41600009,40011419,31810109,40401819,0,30210219,12010719,41600209,31100919,20500719,20111719,10900709,10210519,41411319,10811119,30200819,40411519,0
8,262,481.73802671954,0,0,1840549.0165847,1840550.06361114,11,0,0,3,3,34321259,0,10010009,10710409,0,0,-4110050,0,0,30211209,0,0,0,0,0,0,0,0,0,0,0,0,10010009,0,0,0,0,0,0,0,0,0,0,0,0,0,10710409,0,0,0
8,263,359.649197896943,1,0,1840551.55768506,1840552.60471458,11,0,1,21,19,116935875,143116855,128765305,116034656,0,11600609,40300919,0,0,0,11911719,21511809,31610819,0,0,0,20701519,20011409,0,31101909,41300709,30001309,0,11110619,-4141030,30700019,0,0,10501709,40511109,31800819,41011609,0,0,11610719,0,0,21511509,0,41900819
8,264,423.74057834968,1,0,1840554.09879465,1840555.14581109,11,0,1,14,0,0,0,0,0,0,0,0,0,0,0,0,0,0,0,0,0,0,-41001691,0,0,0,0,0,0,0,0,0,0,0,0,0,0,0,0,0,0,0,0,0,0
8,265,595.402755076066,0,0,1840556.78106751,1840557.82809626,11,0,0,31,19,102855185,71120828,156716714,116377095,40411109,0,21511319,10210419,0,0,20310719,0,10411619,0,0,40310009,0,0,0,30810819,0,0,0,30201519,0,31900419,40012019,0,10600919,12001419,32000419,21100009,0,20011919,-2051101,10800619,41400809,11011219,0,10001419
8,266,479.322781786323,0,0,1840559.58099213,1840560.62801858,11,1,0,7,19,67323448,144504574,125523485,112125465,0,0,11301719,41201609,10810009,0,-4010111,0,0,21900719,30201309,11600209,0,30200909,40200609,10400819,0,0,0,0,0,30910119,0,32001019,20900219,30511919,11200209,30510219,31001909,30300109,10001319,0,0,0,0,10311909
8,267,434.385903878137,1,0,1840562.22797947,1840563.27500476,11,1,1,15,9,63422957,13620959,10910309,115623946,0,0,31910619,0,20901519,0,0,0,10610819,0,10500919,0,0,0,-3120040,0,0,0,0,0,0,10910309,0,0,0,0,0,22000719,0,0,40110209,0,21901509,0,31611509,0
8,268,517.837355844676,1,0,1840564.74555216,1840565.79257322,11,0,1,27,19,42112328,188035994,86293617,177759812,0,30811619,0,0,0,11300709,0,0,0,21911619,21101519,0,0,0,41700409,22010819,40501219,40810409,0,21900909,0,21601519,0,41701009,0,0,-1090180,11511519,31500109,0,30811909,11711809,20411419,10200219,20610809,41002019
8,269,579.198208404705,0,0,1840567.4748915,1840568.52191371,11,0,0,11,9,74114827,77151868,30221528,42601618,21311109,0,0,11901709,0,0,40902009,0,0,0,-4151030,31400119,0,41600719,0,0,0,0,20010319,0,0,10211209,0,0,0,0,0,0,0,0,0,0,31401009,11200609,0,0
8,270,425.809743348509,1,0,1840570.23951097,1840571.28653934,11,0,1,9,31,220456903,287769032,226626103,227839322,20200109,30400919,40902009,31501009,20800819,21401119,21310219,31810619,-2130081,32010219,0,31211709,30110219,40001919,41000419,41110709,41611919,30711919,0,0,10801119,41800119,40300809,32001309,20411019,40611009,40700719,40111009,41701609,41201519,30601019,11210619,0,20300719,11501509,31211319
8,271,425.083322217688,1,0,1840572.85121201,1840573.89822884,11,1,1,30,3,21300719,30600209,0,43981069,0,0,21300719,0,0,0,0,0,0,0,0,0,30600209,0,0,0,0,0,0,0,0,0,0,0,0,0,0,0,0,-3170160,0,0,0,40810909,0,0
8,272,448.376540094614,0,1,1840575.46290459,1840576.50994605,11,1,1,19,19,125544355,64022437,86896567,199446003,20810909,0,41210519,10910309,0,21102009,0,31510609,0,41500319,0,0,11611109,10911009,0,0,0,0,-1071101,11610509,0,0,12011519,41401419,0,0,20802019,31810719,41401209,0,21710509,31611309,0,31700019,20211119,21001119
8,273,517.500130226836,1,0,1840578.12164362,1840579.16868008,11,1,1,4,9,84333977,20301609,86534666,40901519,31400009,20611409,0,-1111140,31211419,0,0,0,0,0,0,20301609,0,0,0,0,0,0,0,21711719,11811119,41211619,0,0,0,11800209,0,0,0,0,40901519,0,0,0,0,0
8,274,513.70480004698,0,0,1840580.87451524,1840581.92154169,11,1,0,12,3,0,24250759,22823328,0,0,0,0,0,0,0,0,0,0,0,0,-4040040,0,0,0,20210719,0,0,0,0,11011609,11811719,0,0,0,0,0,0,0,0,0,0,0,0,0,0
8,275,435.030328575522,1,0,1840583.63921786,1840584.68616809,11,1,1,28,0,0,0,0,0,0,0,0,0,0,0,0,0,0,0,0,0,0,0,0,0,0,0,0,0,0,0,0,0,0,0,0,-30100301,0,0,0,0,0,0,0,0
8,276,381.371774943545,1,0,1840586.15671819,1840587.20375272,11,0,1,16,9,21001419,63991189,73931847,63923637,21001419,0,0,0,0,0,0,0,0,0,20200009,40600019,0,0,0,-3191161,0,0,22010119,0,0,0,31011519,0,0,20910209,0,11911309,0,41101909,0,10910419,0,0,0,0
8,277,484.242197824642,1,0,1840588.60371214,1840589.65073782,11,1,1,33,31,206451302,210718902,218747423,202167403,22001609,20910209,40511909,0,31211319,20101119,11301919,30111209,30302009,10800909,11100119,41901109,32002019,21111119,41300809,21001009,31501809,0,41411919,41401009,0,21910319,22000619,41411619,20401719,30210219,0,20201319,30400409,31510209,31411719,11311609,-3030101,31901209,21000709,21400119
8,278,648.445755941793,0,0,1840591.15658384,1840592.20360913,11,1,0,29,19,63722457,108036175,114035875,219377325,0,0,21000619,31611719,0,11110119,0,0,0,21502019,31710919,0,10911709,0,0,0,11900219,32011309,0,0,30412019,0,30800509,20211119,11801909,20810319,0,42010609,-2031031,0,41010419,0,30801519,30801209,32011919,40710619
8,279,436.690665083006,1,0,1840593.92127953,1840594.96823668,11,1,1,23,31,192359931,169525684,208009162,195927412,21411319,31600109,10000509,22011819,21212009,11301419,11810419,31802009,31210319,21802009,21402019,21000019,31410009,0,0,0,31910109,42001519,11111209,20901509,30300219,30401519,-3181150,30201809,10410619,30201119,41300009,11001519,0,30401609,20301709,40410219,10710519,30000619,11900109,41201109
8,280,546.020347857848,1,0,1840596.43878755,1840597.48580938,11,0,1,32,31,250660811,167357313,279160122,201245824,20511609,40401809,11510709,40400619,11411909,21412009,42010909,31100319,31900919,30710009,21102019,20711319,31210209,31610619,0,0,20511919,11501219,0,40710419,30101619,41111209,41601019,21811809,40700819,21911809,41211419,40810009,11301809,0,10400509,-3000141,41511519,31501309,21210119,41510409
8,281,413.706185761839,0,0,1840599.10930293,1840600.15632745,11,0,0,26,3,20411409,30201019,32581719,0,20411409,0,0,0,0,0,0,0,0,30201019,0,0,0,0,0,0,0,0,0,30410519,0,0,0,0,0,-2171200,0,0,0,0,0,0,0,0,0,0
8,282,797.942265635356,0,0,1840601.67393557,1840602.7209624,11,0,0,5,31,191617514,254047941,177636941,173825994,21000419,31201809,32010909,0,-3191011,21700319,10610019,41901109,30001919,21811919,21610809,21600809,41610019,41601719,41500219,11710319,21101709,31500419,10500019,10101019,11300619,31710309,31400919,10110609,10811919,30300309,31401219,41210809,30711719,20300419,0,30200319,20501409,0,30901319,0
8,283,524.539526319131,0,0,1840604.55620796,1840605.60323287,11,1,0,6,3,35382438,20501609,0,0,11512019,0,0,0,0,-3170010,20700409,0,0,0,0,0,0,0,0,0,0,20501609,0,0,0,0,0,0,0,0,0,0,0,0,0,0,0,0,0,0
8,284,437.248088652268,0,0,1840607.17966533,1840608.226691,11,0,0,20,3,20210919,11610509,3170190,20411209,0,0,0,0,0,20210919,0,0,0,0,0,0,0,0,0,0,0,11610509,0,-3170190,0,0,0,0,0,0,0,0,0,0,0,0,0,0,20411209,0
8,285,505.252212285995,0,0,1840609.73253471,1840610.77956462,11,1,0,18,9,11311109,106023147,51702128,82233157,0,0,0,0,0,0,0,0,11311109,41202009,0,0,20110409,40610709,0,0,0,-4100020,40001119,0,11701009,0,0,0,0,0,0,0,0,20010219,0,40411819,0,0,21811119,0
8,286,463.167125126347,0,0,1840612.42657967,1840613.47360188,11,0,0,34,9,63912647,61223228,71201228,65412749,31001119,0,0,11610919,0,21300609,0,0,0,40611909,0,0,0,0,0,0,0,20611319,40200209,0,0,31001019,0,0,0,0,0,20101619,0,41110019,0,0,0,-4201111,0,0
8,287,415.364597691223,1,0,1840619.02639235,1840620.07342534,12,0,1,16,9,12001509,23210759,72833347,123844456,12001509,0,0,0,0,0,0,0,0,0,0,0,0,0,21010719,-2200040,0,0,0,21711119,0,40910719,10211509,0,0,0,0,11410819,0,41811909,0,0,40511309,0,30110419,0
8,288,385.097812162712,0,0,1840621.61455572,1840622.66157947,12,0,0,20,19,124716355,146912375,86297096,84223766,0,10801309,40211009,12000609,40802009,0,0,0,20901419,0,11600419,0,31400419,0,0,31300009,31400909,41210619,21510419,-1051121,20611909,11811319,0,11302009,20010319,0,0,31110219,20601519,0,0,0,0,21910009,10602019,0
8,289,391.392693854868,1,0,1840624.22625253,1840625.2732759,12,1,1,28,0,0,0,0,0,0,0,0,0,0,0,0,0,0,0,0,0,0,0,0,0,0,0,0,0,0,0,0,0,0,0,0,-30100301,0,0,0,0,0,0,0,0
8,290,333.61197845079,1,0,1840626.83794433,1840627.88496809,12,0,1,23,0,0,0,0,0,0,0,0,0,0,0,0,0,0,0,0,0,0,0,0,0,0,0,0,0,0,0,-31601291,0,0,0,0,0,0,0,0,0,0,0,0,0
8,291,495.320219313726,0,0,1840629.41433791,1840630.46136513,12,1,0,23,31,192359931,169525684,208009162,195927412,21411319,31600109,10000509,22011819,21212009,11301419,11810419,31802009,31210319,21802009,21402019,21000019,31410009,0,0,0,31910109,42001519,11111209,20901509,30300219,30401519,-3181150,30201809,10410619,30201119,41300009,11001519,0,30401609,20301709,40410219,10710519,30000619,11900109,41201109
8,292,469.10822764039,0,0,1840632.00250514,1840633.04952812,12,1,0,33,31,206451302,210718902,218747423,202167403,22001609,20910209,40511909,0,31211319,20101119,11301919,30111209,30302009,10800909,11100119,41901109,32002019,21111119,41300809,21001009,31501809,0,41411919,41401009,0,21910319,22000619,41411619,20401719,30210219,0,20201319,30400409,31510209,31411719,11311609,-3030101,31901209,21000709,21400119
8,293,509.092197753489,1,0,1840634.64948747,1840635.69651006,12,0,1,9,31,179586884,126626622,166259041,178946212,22010919,20912009,0,30110019,20501909,0,41200209,40710819,-4141000,20400219,11200819,21101519,21410519,11300809,0,20110909,10401009,10700819,21111909,20811919,30900819,20200319,10310019,10011319,30311509,10601019,12000209,20900809,31711609,41610319,0,40800619,10600019,10401509,10910519,12010809
8,294,388.009271817282,1,0,1840637.34353397,1840638.39055271,12,1,1,15,9,63422957,13620959,10910309,115623946,0,0,31910619,0,20901519,0,0,0,10610819,0,10500919,0,0,0,-3120040,0,0,0,0,0,0,10910309,0,0,0,0,0,22000719,0,0,40110209,0,21901509,0,31611509,0
8,295,408.839894458652,1,0,1840639.82581999,1840640.87284412,12,1,1,30,3,21300719,30600209,0,43981069,0,0,21300719,0,0,0,0,0,0,0,0,0,30600209,0,0,0,0,0,0,0,0,0,0,0,0,0,0,0,0,-3170160,0,0,0,40810909,0,0
8,296,654.980853432789,0,0,1840642.48464102,1840643.53158817,12,1,0,4,9,84333977,20301609,86534666,40901519,31400009,20611409,0,-1111140,31211419,0,0,0,0,0,0,20301609,0,0,0,0,0,0,0,21711719,11811119,41211619,0,0,0,11800209,0,0,0,0,40901519,0,0,0,0,0
8,297,500.967596890405,1,0,1840645.23743334,1840646.28445478,12,1,1,19,19,125544355,64022437,86896567,199446003,20810909,0,41210519,10910309,0,21102009,0,31510609,0,41500319,0,0,11611109,10911009,0,0,0,0,-1071101,11610509,0,0,12011519,41401419,0,0,20802019,31810719,41401209,0,21710509,31611309,0,31700019,20211119,21001119
8,298,385.523579083383,0,0,1840647.86088339,1840648.90792023,12,0,0,34,9,23111528,72021247,0,120532227,0,12010619,0,0,0,0,0,0,11100909,10901019,0,0,40910109,0,20210119,0,0,0,0,0,0,0,0,0,0,0,0,0,0,31911219,31200219,0,0,-4010061,41700409,11710319
8,299,491.741622332484,0,0,1840650.47257981,1840651.51965669,12,0,0,11,31,186179142,240404354,206259012,208148322,11712019,30111119,0,20011819,30611109,10610119,30211819,41610919,11300219,0,-3070151,41710319,31100719,40101109,40400019,11810809,40510909,31700319,30510909,21701709,11111719,10410619,20200319,0,30701409,41110719,40511609,40310719,0,10101509,21902019,41400919,40710819,21411209,11710709,20600419
8,300,623.425603378564,0,0,1840653.04898301,1840654.09600907,12,1,0,6,3,35382438,20501609,0,0,11512019,0,0,0,0,-3170010,20700409,0,0,0,0,0,0,0,0,0,0,20501609,0,0,0,0,0,0,0,0,0,0,0,0,0,0,0,0,0,0
8,301,839.620064012706,1,0,1840655.8489061,1840656.89592715,12,1,1,18,9,11311109,106023147,51702128,82233157,0,0,0,0,0,0,0,0,11311109,41202009,0,0,20110409,40610709,0,0,0,-4100020,40001119,0,11701009,0,0,0,0,0,0,0,0,20010219,0,40411819,0,0,21811119,0
8,302,483.262472087517,0,0,1840658.83704892,1840659.88407998,12,0,0,31,31,271651331,159726893,228640682,229275264,41501919,10611919,40301509,10310819,42001319,31901009,31210609,32011309,31800919,0,11400609,30400009,11600519,41300909,0,22011719,31311809,11701319,31612009,40601809,20801109,11011409,30901309,20701409,31101509,41910119,0,40310509,11310509,21601819,-3040051,40800119,40012019,0,41600219,30600019
8,303,493.599059060216,0,0,1840661.55462693,1840662.60164952,12,1,0,12,3,0,24250759,22823328,0,0,0,0,0,0,0,0,0,0,0,0,-4040040,0,0,0,20210719,0,0,0,0,11011609,11811719,0,0,0,0,0,0,0,0,0,0,0,0,0,0
8,304,446.996069978923,0,0,1840664.22514346,1840665.27216375,12,0,0,3,9,46833647,0,81901737,94414047,21001519,11410419,-4010200,0,10411509,0,0,0,0,0,0,0,0,0,0,0,0,0,0,20600009,21100219,0,0,0,0,40201509,0,0,21702019,0,0,0,31301219,0,0,41410809
8,305,534.076933981851,1,0,1840666.91917572,1840667.96620409,12,0,1,26,3,0,0,66140589,30310719,0,0,0,0,0,0,0,0,0,0,0,0,0,0,0,0,0,0,0,0,31110209,0,0,31000309,0,-4030071,0,0,30310719,0,0,0,0,0,0,0
8,306,506.442511454225,1,0,1840669.54262615,1840670.58966299,12,1,1,7,19,67323448,144504574,125523485,112125465,0,0,11301719,41201609,10810009,0,-4010111,0,0,21900719,30201309,11600209,0,30200909,40200609,10400819,0,0,0,0,0,30910119,0,32001019,20900219,30511919,11200209,30510219,31001909,30300109,10001319,0,0,0,0,10311909
8,307,666.80223448202,1,0,1840672.20139637,1840673.24841897,12,1,1,1,31,189815304,177639302,268745422,184558442,-2071001,31511509,0,41110509,21100119,20900619,11000109,31910819,30210619,31001309,20001609,0,32011009,30510719,21301219,11500909,20711119,10601409,41600009,40011419,31810109,40401819,0,30210219,12010719,41600209,31100919,20500719,20111719,10900709,10210519,41411319,10811119,30200819,40411519,0
8,308,373.585939640179,0,0,1840675.0836603,1840676.13068443,12,0,0,21,3,0,0,22752200,52012018,0,0,0,0,0,0,0,0,0,0,0,0,0,0,0,0,0,0,21711009,0,-1041191,0,0,0,0,0,0,0,0,0,0,20410509,31601509,0,0,0
8,309,472.370001953095,0,0,1840677.51889177,1840678.56592976,12,0,0,27,3,10111409,21501519,4120051,11110409,0,10111409,0,0,0,0,0,0,0,0,0,0,0,0,0,21501519,0,0,0,0,0,0,0,0,0,0,-4120051,0,11110409,0,0,0,0,0,0,0
8,310,505.873154150322,1,0,1840680.18941177,1840681.2364232,12,0,1,32,19,126923775,147554594,105745775,117284168,21500519,0,41411009,11510919,0,0,21801119,30700209,0,11210219,21111019,11711009,41611919,30100309,0,31810119,0,0,31210319,31210619,0,11911719,20411409,0,0,0,11001709,42011309,30701119,0,0,-4160021,0,0,0,40411719
8,311,584.765513893217,1,0,1840682.78933801,1840683.8363506,12,0,1,5,19,141792085,96232356,163914465,136643785,31510009,0,31600019,21200919,-4080020,21800509,0,0,31600609,21110019,22010309,0,21800919,0,0,0,0,31311109,30310019,0,40701709,31300919,0,0,0,40600709,21001109,41700219,0,20910219,0,0,10612019,31610009,0,31811319
8,312,407.478672452271,1,1,1840685.53042789,1840686.57745049,12,1,0,29,19,63722457,108036175,114035875,219377325,0,0,21000619,31611719,0,11110119,0,0,0,21502019,31710919,0,10911709,0,0,0,11900219,32011309,0,0,30412019,0,30800509,20211119,11801909,20810319,0,42010609,-2031031,0,41010419,0,30801519,30801209,32011919,40710619
8,313,783.633266575634,0,0,1840702.85935163,1840703.90637653,13,1,0,12,3,0,24250759,22823328,0,0,0,0,0,0,0,0,0,0,0,0,-4040040,0,0,0,20210719,0,0,0,0,11011609,11811719,0,0,0,0,0,0,0,0,0,0,0,0,0,0
8,314,417.797165922821,0,0,1840705.82402338,1840706.87100401,13,1,0,15,9,63422957,13620959,10910309,115623946,0,0,31910619,0,20901519,0,0,0,10610819,0,10500919,0,0,0,-3120040,0,0,0,0,0,0,10910309,0,0,0,0,0,22000719,0,0,40110209,0,21901509,0,31611509,0
8,315,492.596235591918,1,0,1840708.40037653,1840709.44740644,13,0,1,3,9,73432829,61720838,62900628,112933437,0,0,-2020201,0,0,0,40200619,0,31212009,0,31310219,0,0,0,0,0,30410619,0,0,0,0,0,21800619,0,0,0,41100009,0,0,41612019,0,0,0,30610209,0,40711209
8,316,767.484154319391,0,0,1840711.15323275,1840712.20026767,13,1,0,30,3,21300719,30600209,0,43981069,0,0,21300719,0,0,0,0,0,0,0,0,0,30600209,0,0,0,0,0,0,0,0,0,0,0,0,0,0,0,0,-3170160,0,0,0,40810909,0,0
8,317,473.332404159009,1,0,1840714.14139674,1840715.18840856,13,1,1,7,19,67323448,144504574,125523485,112125465,0,0,11301719,41201609,10810009,0,-4010111,0,0,21900719,30201309,11600209,0,30200909,40200609,10400819,0,0,0,0,0,30910119,0,32001019,20900219,30511919,11200209,30510219,31001909,30300109,10001319,0,0,0,0,10311909
8,318,366.323265945539,1,0,1840716.78837984,1840717.83541245,13,0,1,21,19,92416976,174629583,175747244,61311828,0,0,30401819,0,10301319,0,0,10202019,41511819,10301219,21211409,30401709,40201709,41500309,20511819,10501409,0,0,20900109,31500619,-1121070,30211209,30001519,0,20011409,0,42001309,0,0,0,0,0,41010109,0,20301719,0
8,319,493.952453136444,1,0,1840719.41183875,1840720.4588702,13,1,1,6,3,35382438,20501609,0,0,11512019,0,0,0,0,-3170010,20700409,0,0,0,0,0,0,0,0,0,0,20501609,0,0,0,0,0,0,0,0,0,0,0,0,0,0,0,0,0,0
8,320,395.942547358572,1,0,1840722.11764811,1840723.16466686,13,0,1,11,19,104646575,118093916,126213685,137427165,0,10111519,0,11100719,0,30211409,0,41311619,11911309,21801009,-2181070,0,41500009,0,0,10711419,41900409,0,0,0,21311619,21301319,40200219,0,0,31500219,11900309,41601309,0,21910809,0,22002019,0,0,30311819,21601209
8,321,488.508720183745,1,0,1840724.58816703,1840725.63518501,13,1,1,19,19,125544355,64022437,86896567,199446003,20810909,0,41210519,10910309,0,21102009,0,31510609,0,41500319,0,0,11611109,10911009,0,0,0,0,-1071101,11610509,0,0,12011519,41401419,0,0,20802019,31810719,41401209,0,21710509,31611309,0,31700019,20211119,21001119
8,322,500.02444232814,0,0,1840727.25867856,1840728.30569885,13,1,0,18,9,11311109,106023147,51702128,82233157,0,0,0,0,0,0,0,0,11311109,41202009,0,0,20110409,40610709,0,0,0,-4100020,40001119,0,11701009,0,0,0,0,0,0,0,0,20010219,0,40411819,0,0,21811119,0
8,323,440.89520862326,0,0,1840729.84684271,1840730.89386376,13,1,0,28,0,0,0,0,0,0,0,0,0,0,0,0,0,0,0,0,0,0,0,0,0,0,0,0,0,0,0,0,0,0,0,0,-30100301,0,0,0,0,0,0,0,0
8,324,582.094269804657,0,0,1840732.51734885,1840733.56437645,13,1,0,4,9,84333977,20301609,86534666,40901519,31400009,20611409,0,-1111140,31211419,0,0,0,0,0,0,20301609,0,0,0,0,0,0,0,21711719,11811119,41211619,0,0,0,11800209,0,0,0,0,40901519,0,0,0,0,0
8,325,541.127879172564,0,0,1840735.25845837,1840736.30547788,13,0,0,31,3,11200809,0,10200109,16000719,0,0,0,0,0,0,0,0,11200809,0,0,0,0,0,0,0,0,0,0,0,0,10200109,0,0,0,0,0,0,0,0,-4200000,0,11800719,0,0,0
8,326,375.186992343515,1,0,1840737.90544146,1840738.95246098,13,1,1,23,31,192359931,169525684,208009162,195927412,21411319,31600109,10000509,22011819,21212009,11301419,11810419,31802009,31210319,21802009,21402019,21000019,31410009,0,0,0,31910109,42001519,11111209,20901509,30300219,30401519,-3181150,30201809,10410619,30201119,41300009,11001519,0,30401609,20301709,40410219,10710519,30000619,11900109,41201109
8,327,578.055259305984,0,0,1840740.35242965,1840741.39945301,13,1,0,29,19,63722457,108036175,114035875,219377325,0,0,21000619,31611719,0,11110119,0,0,0,21502019,31710919,0,10911709,0,0,0,11900219,32011309,0,0,30412019,0,30800509,20211119,11801909,20810319,0,42010609,-2031031,0,41010419,0,30801519,30801209,32011919,40710619
8,328,478.544775629416,0,0,1840743.05823863,1840744.1052593,13,0,0,20,31,260648021,258037161,115925805,258270292,11900919,40301919,40810809,41000209,31111519,40810709,32011309,10700219,12000409,40100819,22001019,30310519,40102019,21010819,10301119,10810009,41900019,41500819,0,-1191040,0,20510519,31501609,20400119,0,10811909,31510609,41710009,40511609,31501709,0,11411609,40310819,20401909,41611819,30810809
8,329,537.673624465242,1,0,1840745.63464337,1840746.68166135,13,0,1,32,9,166535765,0,40701109,87343288,41700119,41211919,0,31311109,0,11511709,0,0,40800909,0,0,0,0,0,0,0,0,0,0,0,0,0,0,0,0,40701109,0,41911909,0,31111219,0,-4010151,0,10310009,0,0
8,330,383.703483501449,1,0,1840748.32868949,1840749.37572248,13,1,1,33,31,206451302,210718902,218747423,202167403,22001609,20910209,40511909,0,31211319,20101119,11301919,30111209,30302009,10800909,11100119,41901109,32002019,21111119,41300809,21001009,31501809,0,41411919,41401009,0,21910319,22000619,41411619,20401719,30210219,0,20201319,30400409,31510209,31411719,11311609,-3030101,31901209,21000709,21400119
8,331,421.076263533905,1,0,1840750.7991984,1840751.84622523,13,0,1,34,31,245639102,218237203,226560431,200578563,21400209,30001309,40000409,40211819,21310519,41501719,0,30401909,20811209,20810019,41201609,41711919,20401119,12000719,0,40611709,41500109,0,31311509,11201219,21902019,20510509,11411219,40211119,40011009,30000619,20001209,20410509,41411209,41210419,31212019,0,21501719,-4021060,30501509,10310119
8,332,426.124256569892,0,0,1840753.29324459,1840754.34026565,13,0,0,34,0,0,0,0,0,0,0,0,0,0,0,0,0,0,0,0,0,0,0,0,0,0,0,0,0,0,0,0,0,0,0,0,0,0,0,0,0,0,-31310991,0,0
8,333,376.218302641064,1,0,1840755.79905866,1840756.84609049,13,0,1,27,3,0,40200809,71230208,0,0,0,0,0,0,0,0,0,0,0,0,0,0,40200809,0,0,0,0,0,0,0,0,0,30010109,40100019,0,-1120080,0,0,0,0,0,0,0,0,0
8,334,859.429385047406,0,0,1840758.30487195,1840759.35189955,13,1,0,1,31,189815304,177639302,268745422,184558442,-2071001,31511509,0,41110509,21100119,20900619,11000109,31910819,30210619,31001309,20001609,0,32011009,30510719,21301219,11500909,20711119,10601409,41600009,40011419,31810109,40401819,0,30210219,12010719,41600209,31100919,20500719,20111719,10900709,10210519,41411319,10811119,30200819,40411519,0
8,335,436.707988148555,1,0,1840761.25773618,1840762.30475954,13,0,1,26,19,176128804,111744065,115973958,97336355,30900809,0,0,0,41401419,30600919,20812019,41502019,10911619,20710919,0,10200009,0,30111319,40210409,10511409,0,0,30111819,0,0,40910809,41901219,0,0,-3050111,0,0,0,31110409,0,0,11010909,21501009,22002019,11712009
8,336,537.549281958491,0,0,1840763.81059748,1840764.8576193,13,0,0,16,31,127646304,169347892,207629621,267927102,0,30811719,10811519,0,0,31710719,11900419,11211319,31200609,10010909,30800119,10700219,10611619,21901619,41510819,-2101060,21400709,20310819,10100309,31501619,30200809,30800119,20902009,10610519,40411609,21400809,11701819,31611819,20000109,21110709,41100319,41300119,31101909,0,41401109,40301009
8,337,460.10245080106,1,0,1840766.42229621,1840767.46931419,13,0,1,9,9,52912419,11100309,42602728,84135566,10800309,0,0,0,0,0,40001009,0,-2111101,0,0,0,0,0,0,11100309,0,0,0,11901109,0,0,0,0,30701619,0,0,10901609,0,0,31610819,0,0,0,20211719,21411419
8,338,504.291349556297,0,0,1840769.13986075,1840770.18688642,13,0,0,5,3,44000079,0,10901119,12000219,0,0,0,0,-2190060,41810019,0,0,0,0,0,0,0,0,0,0,0,0,0,0,0,10901119,0,0,0,0,0,12000219,0,0,0,0,0,0,0,0
8,339,305.013998411596,1,0,1840775.7161423,1840776.76317491,14,1,1,28,0,0,0,0,0,0,0,0,0,0,0,0,0,0,0,0,0,0,0,0,0,0,0,0,0,0,0,0,0,0,0,0,-30100301,0,0,0,0,0,0,0,0
8,340,370.453127194196,1,0,1840778.09255328,1840779.1395778,14,0,1,21,9,123703456,72122738,45232928,40002019,10600219,40901109,0,40801219,0,0,0,0,31400909,0,0,0,0,41811719,30311019,0,0,0,0,0,-3011110,0,0,21910709,20311109,0,0,0,0,0,0,40002019,0,0,0,0
8,341,423.27285069041,1,1,1840780.52777782,1840781.57480735,14,1,0,4,9,84333977,20301609,86534666,40901519,31400009,20611409,0,-1111140,31211419,0,0,0,0,0,0,20301609,0,0,0,0,0,0,0,21711719,11811119,41211619,0,0,0,11800209,0,0,0,0,40901519,0,0,0,0,0
8,342,428.22883813642,0,0,1840783.11594466,1840784.16296379,14,1,0,7,19,67323448,144504574,125523485,112125465,0,0,11301719,41201609,10810009,0,-4010111,0,0,21900719,30201309,11600209,0,30200909,40200609,10400819,0,0,0,0,0,30910119,0,32001019,20900219,30511919,11200209,30510219,31001909,30300109,10001319,0,0,0,0,10311909
8,343,565.652202116326,1,0,1840785.78645773,1840786.83348187,14,1,1,1,31,189815304,177639302,268745422,184558442,-2071001,31511509,0,41110509,21100119,20900619,11000109,31910819,30210619,31001309,20001609,0,32011009,30510719,21301219,11500909,20711119,10601409,41600009,40011419,31810109,40401819,0,30210219,12010719,41600209,31100919,20500719,20111719,10900709,10210519,41411319,10811119,30200819,40411519,0
8,344,539.730855729431,0,0,1840788.44520793,1840789.49226479,14,1,0,18,9,11311109,106023147,51702128,82233157,0,0,0,0,0,0,0,0,11311109,41202009,0,0,20110409,40610709,0,0,0,-4100020,40001119,0,11701009,0,0,0,0,0,0,0,0,20010219,0,40411819,0,0,21811119,0
8,345,411.731721134856,1,0,1840791.13925212,1840792.18629897,14,0,1,32,0,0,0,0,0,0,0,0,0,0,0,0,0,0,0,0,0,0,0,0,0,0,0,0,0,0,0,0,0,0,0,0,0,0,0,0,-20401801,0,0,0,0
8,346,395.717730047181,0,0,1840793.7863076,1840794.833284,14,0,0,16,31,221038011,187467154,216047422,220238512,21310919,11611509,31301519,40000209,20102009,21800209,41800209,11810309,21301119,0,40111419,0,21611419,40800719,30302009,-1130060,21901309,31610219,41801909,10710819,40200819,30211819,30600509,10411319,10610109,0,41500119,21600819,21800309,30801709,30700319,11111919,41701809,0,41010819,21510809
8,347,515.601117629558,1,0,1840796.3743959,1840797.42142081,14,1,1,12,3,0,24250759,22823328,0,0,0,0,0,0,0,0,0,0,0,0,-4040040,0,0,0,20210719,0,0,0,0,11011609,11811719,0,0,0,0,0,0,0,0,0,0,0,0,0,0
8,348,371.278098551556,1,0,1840799.10373332,1840800.15076169,14,0,1,11,9,0,24420590,41904038,158054974,0,0,0,0,0,0,0,0,0,0,-3020081,0,21400509,0,0,0,0,0,0,31802019,0,10102019,0,0,0,0,0,0,20000409,20811009,32010309,0,0,31511409,31710719,22011119
8,349,504.28249547258,1,0,1840801.56247512,1840802.60951928,14,1,1,6,3,35382438,20501609,0,0,11512019,0,0,0,0,-3170010,20700409,0,0,0,0,0,0,0,0,0,0,20501609,0,0,0,0,0,0,0,0,0,0,0,0,0,0,0,0,0,0
8,350,496.82156718336,0,0,1840804.28005698,1840805.32714656,14,1,0,30,3,21300719,30600209,0,43981069,0,0,21300719,0,0,0,0,0,0,0,0,0,30600209,0,0,0,0,0,0,0,0,0,0,0,0,0,0,0,0,-3170160,0,0,0,40810909,0,0
8,351,382.967053214088,0,0,1840806.89175418,1840807.93877485,14,0,0,26,9,62012428,84034356,46762098,21810919,0,0,31811019,0,0,30201409,0,0,0,0,0,11011509,0,0,40510219,20512009,12000619,0,0,0,0,0,0,21800019,0,-3050070,21912009,0,0,0,0,21810919,0,0,0,0
