sub_id,Trial,RT,Resp,Error,Fix_onset,Disp_onset,block,repeat,tid,tloc,d_setsize,quad1,quad2,quad3,quad4,loc1,loc2,loc3,loc4,loc5,loc6,loc7,loc8,loc9,loc10,loc11,loc12,loc13,loc14,loc15,loc16,loc17,loc18,loc19,loc20,loc21,loc22,loc23,loc24,loc25,loc26,loc27,loc28,loc29,loc30,loc31,loc32,loc33,loc34,loc35,loc36
9,1,3772.09013374522,1,0,2195787.89165032,2195788.93872026,1,1,1,23,9,94222237,0,16092210,123525365,31110609,41201609,0,0,21910019,0,0,0,0,0,0,0,0,0,0,0,0,0,0,0,0,0,-4091001,0,0,0,12001209,0,0,0,0,10601919,31500009,40011719,30511409,10900309
9,2,1075.03593200818,0,0,2195793.90350249,2195794.95056089,1,1,0,24,3,0,0,108244058,0,0,0,0,0,0,0,0,0,0,0,0,0,0,0,0,0,0,0,31101619,0,41110319,0,0,-4031011,0,32001109,0,0,0,0,0,0,0,0,0,0
9,3,1145.61390457675,1,0,2195797.12706203,2195798.17413659,1,0,1,30,9,63112447,10611909,62122418,97090898,21510319,10502009,0,31100119,0,0,0,0,0,0,0,0,0,0,0,0,0,10611909,0,0,0,0,0,41011309,0,21111109,0,21510519,0,-2070051,0,0,31810109,0,0,41700219
9,4,1213.75276474282,1,0,2195800.38593326,2195801.4329932,1,0,1,36,19,194065783,125858094,41401719,106906726,0,20011509,0,11011509,10410319,40510509,40511009,30000609,41610319,10211419,11311919,0,41111819,10411109,21401719,0,0,31410109,0,0,0,0,0,0,0,41401719,0,0,10110909,10411419,20311809,41900519,21011009,0,0,-3161061
9,5,1052.17810533941,1,0,2195803.84477862,2195804.89186204,1,1,1,20,19,174335674,73210637,137627406,84335465,20710009,0,41610509,0,0,30000709,30001609,12011219,40001619,0,0,0,0,40800009,0,21610009,10800619,0,0,-1101131,11102019,0,0,20610909,41400509,41911819,21501019,0,0,11110309,11400919,0,11201819,30410409,0,20212009
9,6,1082.11536426097,1,0,2195807.05664189,2195808.10366218,1,1,1,29,31,218758421,209969211,238449522,158075676,41511119,21601009,40201909,20610119,10711109,10510619,20210509,21500119,31901909,21900519,30711009,41110609,30901209,21911519,21811909,11011209,20511019,10100209,30400619,21410419,20311609,31511919,0,41700219,41212019,21801409,30101309,30700509,-3161001,21600719,41001119,40601519,0,21010809,0,0
9,7,1207.41438260302,0,0,2195810.24486663,2195811.29194158,1,1,0,10,9,122815176,2181200,64613847,43312128,20100419,0,30312019,40902019,0,0,0,0,31500719,-2181200,0,0,0,0,0,0,0,0,41100909,11511319,0,12001619,0,0,0,0,0,0,0,0,0,31910909,0,0,0,11401219
9,8,1056.20056204498,0,0,2195813.68021128,2195814.72727122,1,0,0,28,31,127828193,266838012,248169841,137739323,31601009,20810409,0,10501709,11111719,21601709,0,21300119,10901519,40501509,10501409,31300819,41111119,32001909,0,40100619,41010309,30310319,10000319,30801419,40811009,41611619,20710419,30711919,21811119,41000309,10711709,-2200050,21001609,11102009,11410009,41501809,30310209,10202009,0,10011619
9,9,1437.57253233343,0,0,2195816.99789454,2195818.04496217,1,1,0,3,19,165109424,93524765,82213627,95424546,30200619,10311409,-2160101,20801119,0,30000219,31112019,10412019,30111919,0,30311709,10200109,20400819,0,0,0,11702019,20910109,31501209,10400709,40311709,0,0,0,0,0,0,0,10610609,21911409,0,21501819,0,0,41400709,0
9,10,1237.64074733481,1,0,2195820.65675753,2195821.70383325,1,0,1,1,3,12981190,10001819,11911709,0,-2180071,0,0,0,0,10801119,0,0,0,0,0,0,0,0,0,10001819,0,0,11911709,0,0,0,0,0,0,0,0,0,0,0,0,0,0,0,0,0
9,11,1166.26821551472,0,0,2195824.10386698,2195825.15099621,1,1,0,11,19,73133556,126082586,157048503,103525656,40100919,0,11710609,0,10010509,0,0,0,11311519,0,-3050030,0,41910319,10301709,0,30010309,40810219,0,0,40500419,20901409,30110609,0,20911019,21911819,11011809,11701419,0,11900509,0,40511919,20111209,0,0,31002019,0
9,12,1228.08524640277,0,0,2195827.49214361,2195828.53920739,1,0,0,8,9,76112798,72112547,51820828,41500119,0,20610219,0,20700119,0,0,30801419,-4001041,0,40210619,0,0,0,0,0,10600009,0,21301919,10410019,0,41410809,0,0,0,0,0,0,0,0,41500119,0,0,0,0,0,0
9,13,1112.28167498484,0,0,2195830.856684,2195831.90395405,1,0,0,16,3,20200419,4040160,31613128,0,0,0,0,0,0,0,0,0,20200419,0,0,0,0,0,0,-4040160,0,0,0,0,0,0,0,0,10812019,20801109,0,0,0,0,0,0,0,0,0,0
9,14,1291.34087637067,1,0,2195834.15104587,2195835.19811081,1,1,1,32,31,227251651,189028422,208224193,197036703,40510819,11501909,31811909,20701119,40000419,11011119,20000719,31401919,20311719,0,41701409,21401909,30501119,11310509,20500019,11301319,41510819,10801319,0,11800309,21610109,0,41000209,11411019,40600019,40201109,41601419,31301219,30101119,42000419,40300009,-1021090,11400219,0,20111609,20801019
9,15,1213.38089229539,1,0,2195837.66874291,2195838.71580015,1,0,1,4,19,126995847,206644474,106644365,115323656,20811919,0,0,-3160181,41911919,40301619,0,0,20810209,40710709,10811209,41511609,0,40610219,0,0,41300509,31700219,40510709,21600509,0,0,21311209,11410319,11811619,0,0,30901019,30610119,0,0,0,0,32001009,0,21811509
9,16,965.298960451037,0,0,2195841.02172131,2195842.06878163,1,1,0,17,31,209951621,210319933,199430541,136826704,30300609,11501609,42011919,21411809,11301619,10811519,42001219,10511309,30100009,31101909,41611809,20801809,11310419,0,40410809,41300519,-2081150,21701509,31600519,21701609,20711319,10901809,41801919,10601009,21100519,10411219,30600619,21601019,11210419,41802009,0,0,11401119,10501419,0,40310719
9,17,907.562130596489,0,0,2195844.12763485,2195845.17470942,1,1,0,22,0,0,0,0,0,0,0,0,0,0,0,0,0,0,0,0,0,0,0,0,0,0,0,0,0,0,-40901901,0,0,0,0,0,0,0,0,0,0,0,0,0,0
9,18,1089.81727808714,0,0,2195847.25708567,2195848.30421336,1,1,0,31,3,0,31700109,0,46192549,0,0,0,0,0,0,0,0,0,0,0,0,0,0,31700109,0,0,0,0,0,0,0,0,0,0,0,0,0,0,0,-4081121,0,20411119,0,21700309,0
9,19,1240.88673805818,0,0,2195850.59830583,2195851.64537578,1,0,0,12,9,93004337,64992919,32712618,63503428,0,31001409,30501809,0,0,0,0,31501119,0,41811219,20111519,-3070181,0,0,0,0,0,0,11200909,0,21511709,0,0,0,0,0,0,0,0,0,0,0,41601619,0,0,21901809
9,20,1451.65478950366,1,0,2195853.90423315,2195854.95129732,1,0,1,33,31,279770112,199946293,230441321,168808894,40110519,40311719,40211609,42001309,31311519,12012019,0,42010509,31800909,30911019,41900419,31411519,21510209,0,30911809,22000509,0,21300809,41311909,30400109,11301909,41501919,31110419,11600009,30601619,11601419,21012009,12001609,31701719,20001909,0,11310109,-2081011,40010509,40101809,11600219
9,21,1177.64997109771,1,0,2195857.50427873,2195858.55134059,1,1,1,2,9,95322227,104232837,54022038,42000209,0,-3190090,0,0,31310119,30111809,30710209,0,0,21211519,0,0,0,0,0,0,41711209,41310109,0,42010619,0,0,0,0,0,12011419,0,0,42000209,0,0,0,0,0,0,0
9,22,1262.41336995736,1,0,2195860.84555124,2195861.89255228,1,0,1,6,31,166117034,120328293,237656231,230629522,10200209,10710109,41200419,31001819,10101019,-1201041,40800909,0,20901509,21902009,21711919,11201019,0,20900209,0,22011009,11201409,11400719,20200119,40310919,11900609,41211919,40711019,31301019,21300209,10410209,20310209,0,41901719,20601009,31501109,41300719,21901319,31111109,31710819,10601719
9,23,1083.75683799386,1,0,2195864.25729586,2195865.3043531,1,0,1,33,0,0,0,0,0,0,0,0,0,0,0,0,0,0,0,0,0,0,0,0,0,0,0,0,0,0,0,0,0,0,0,0,0,0,0,0,0,-40601991,0,0,0
9,24,1010.12188987806,1,0,2195867.53968359,2195868.58673775,1,0,1,13,19,165536804,136693667,81313437,176547094,31600419,21401619,31700419,0,0,40411909,10012019,30410419,0,20810519,30210819,41910719,-2051101,0,0,0,0,41710509,0,0,0,0,0,0,30001809,10500219,40811409,20700509,41201809,0,0,0,40810819,20811919,31311919,21710119
9,25,1020.72371495888,0,0,2195870.76324274,2195871.81032654,1,1,0,34,3,41100319,21700219,10210019,4090101,0,0,0,0,0,0,0,41100319,0,0,0,0,0,0,0,0,21700219,0,0,10210019,0,0,0,0,0,0,0,0,0,0,0,0,0,-4090101,0,0
9,26,1132.67459720373,0,0,2195874.02213514,2195875.06918469,1,0,0,18,3,40710019,4191130,42611338,0,0,0,0,0,40710019,0,0,0,0,0,0,0,0,0,0,0,0,-4191130,0,0,0,10911319,0,0,0,31700019,0,0,0,0,0,0,0,0,0,0
9,27,1255.48561289907,0,0,2195903.39895341,2195904.44601874,2,1,0,10,9,122815176,2181200,64613847,43312128,20100419,0,30312019,40902019,0,0,0,0,31500719,-2181200,0,0,0,0,0,0,0,0,41100909,11511319,0,12001619,0,0,0,0,0,0,0,0,0,31910909,0,0,0,11401219
9,28,818.375145085156,0,0,2195906.79899214,2195907.84605592,2,1,0,23,9,94222237,0,16092210,123525365,31110609,41201609,0,0,21910019,0,0,0,0,0,0,0,0,0,0,0,0,0,0,0,0,0,-4091001,0,0,0,12001209,0,0,0,0,10601919,31500009,40011719,30511409,10900309
9,29,604.418077506125,0,0,2195909.70490652,2195910.75197801,2,0,0,8,31,157219633,219127702,196838122,177535422,20110519,10411209,21611609,11201009,0,30112009,20011709,-2050160,41711409,11700319,41211409,41401409,11501909,10811419,31200109,40901019,0,30400109,20101019,41611609,10710209,40800819,10900219,0,10201019,41701819,20811409,11810809,20000019,41501419,30210419,20100509,11010419,0,31400009,11501819
9,30,956.416371744126,0,0,2195912.44612884,2195913.49320225,2,0,0,6,31,147417123,187465503,247750311,229727902,10911219,40601209,10400309,20700109,20401819,-2201120,31100019,0,11101319,11012019,0,40610209,41510119,0,40210719,11910109,11011609,31200719,30700119,31211809,41811619,10611809,40801519,10200109,30901109,10801009,40711209,32000009,21800519,30601609,21700819,0,40601519,41801609,11111109,30110709
9,31,1004.69740480185,1,0,2195915.62268964,2195916.66969876,2,0,1,1,3,32372080,0,41510719,41910309,-2070071,0,0,0,0,0,30302009,0,0,0,0,0,0,0,0,0,0,0,0,0,0,0,0,41510719,0,0,0,0,0,0,41910309,0,0,0,0,0
9,32,803.138005547225,1,0,2195918.84619721,2195919.89326292,2,0,1,12,31,184958822,229557422,245448531,136436794,11401009,40011319,11201119,0,30110119,30811819,30100909,20610919,10711609,31010609,20210109,-4010130,40411009,11902019,30212009,40400409,21300009,30101119,41500409,20701709,20511119,30100619,40310319,40500219,20911719,10411809,20500609,21700119,32001709,10701619,10512019,0,0,41010619,0,20510709
9,33,1243.03020117804,0,0,2195921.74034988,2195922.78747526,2,0,0,30,19,66634855,91923537,131634856,231908404,11701509,10600919,0,0,10710409,21811109,0,11810909,0,0,41202009,0,0,20310909,0,0,0,30410619,40311609,0,0,0,40210609,10910619,0,0,40202019,0,41300519,-4160121,40301609,21401209,32011219,31011109,30611909,31110709
9,34,1150.42745647952,1,0,2195925.21098698,2195926.25804615,2,0,1,4,9,105844197,42822128,71802318,32602228,0,40801609,40100809,-3030070,0,0,21911709,0,0,0,0,0,0,31911109,0,0,10911019,0,0,0,0,0,0,0,41601609,30200709,0,21201209,0,0,0,0,11401019,0,0,0
9,35,926.964932586998,1,0,2195928.59926015,2195929.64632355,2,1,1,11,19,73133556,126082586,157048503,103525656,40100919,0,11710609,0,10010509,0,0,0,11311519,0,-3050030,0,41910319,10301709,0,30010309,40810219,0,0,40500419,20901409,30110609,0,20911019,21911819,11011809,11701419,0,11900509,0,40511919,20111209,0,0,31002019,0
9,36,1152.02273475006,1,0,2195931.64640285,2195932.69341929,2,0,1,36,9,91914537,41112928,102501537,42842760,0,0,0,31212009,30501419,0,30201109,0,0,0,30201409,0,0,0,10911519,0,0,0,30601119,0,0,41200009,0,0,30700409,0,0,0,0,0,0,0,40811719,0,0,-2031041
9,37,1428.19565301761,1,0,2195934.8699235,2195935.91699076,2,1,1,32,31,227251651,189028422,208224193,197036703,40510819,11501909,31811909,20701119,40000419,11011119,20000719,31401919,20311719,0,41701409,21401909,30501119,11310509,20500019,11301319,41510819,10801319,0,11800309,21610109,0,41000209,11411019,40600019,40201109,41601419,31301219,30101119,42000419,40300009,-1021090,11400219,0,20111609,20801019
9,38,1026.7241015099,0,0,2195938.5405536,2195939.58762701,2,1,0,24,3,0,0,108244058,0,0,0,0,0,0,0,0,0,0,0,0,0,0,0,0,0,0,0,31101619,0,41110319,0,0,-4031011,0,32001109,0,0,0,0,0,0,0,0,0,0
9,39,1075.96984738484,1,0,2195941.7053142,2195942.75241571,2,1,1,20,19,174335674,73210637,137627406,84335465,20710009,0,41610509,0,0,30000709,30001609,12011219,40001619,0,0,0,0,40800009,0,21610009,10800619,0,0,-1101131,11102019,0,0,20610909,41400509,41911819,21501019,0,0,11110309,11400919,0,11201819,30410409,0,20212009
9,40,880.189481656998,1,0,2195944.92887566,2195945.97593598,2,1,1,31,3,0,31700109,0,46192549,0,0,0,0,0,0,0,0,0,0,0,0,0,0,31700109,0,0,0,0,0,0,0,0,0,0,0,0,0,0,0,-4081121,0,20411119,0,21700309,0
9,41,643.720666877925,1,0,2195947.85832194,2195948.90538919,2,0,1,29,0,0,0,0,0,0,0,0,0,0,0,0,0,0,0,0,0,0,0,0,0,0,0,0,0,0,0,0,0,0,0,0,0,-21100301,0,0,0,0,0,0,0
9,42,880.76884765178,0,0,2195950.56424063,2195951.61130288,2,0,0,33,3,0,0,62321438,13872219,0,0,0,0,0,0,0,0,0,0,0,0,0,0,0,0,0,0,0,30811119,31510319,0,0,0,0,0,0,0,0,0,0,0,-2171100,0,11701119,0
9,43,873.716747853905,0,0,2195953.51721688,2195954.56427605,2,1,0,2,9,95322227,104232837,54022038,42000209,0,-3190090,0,0,31310119,30111809,30710209,0,0,21211519,0,0,0,0,0,0,41711209,41310109,0,42010619,0,0,0,0,0,12011419,0,0,42000209,0,0,0,0,0,0,0
9,44,704.655752517283,0,0,2195956.56429645,2195957.61137679,2,0,0,16,19,84035066,160165113,83222537,175824675,0,0,20910619,30402009,11310419,0,21412019,0,0,20710309,11800519,11010909,21001409,0,20410909,-4120120,40610319,30500619,10510109,0,0,0,30801409,41911019,0,0,0,0,31401809,21910409,0,0,41710819,0,40200619,40601019
9,45,1089.44771578535,0,0,2195959.45846145,2195960.5055337,2,0,0,18,19,134212775,96012057,103533046,166756673,0,41200109,40400719,0,0,11000309,10111019,0,31500619,10600909,41911009,41410009,0,0,0,0,0,-2090130,11811609,0,0,30100219,0,0,0,40410609,21210609,20710409,20201109,0,30211009,0,12011509,21710819,31710309,30201509
9,46,840.168939903378,1,0,2195962.75264245,2195963.79968622,2,1,1,22,0,0,0,0,0,0,0,0,0,0,0,0,0,0,0,0,0,0,0,0,0,0,0,0,0,0,-40901901,0,0,0,0,0,0,0,0,0,0,0,0,0,0
9,47,925.540192518383,1,0,2195965.82323467,2195966.87031385,2,1,1,29,31,218758421,209969211,238449522,158075676,41511119,21601009,40201909,20610119,10711109,10510619,20210509,21500119,31901909,21900519,30711009,41110609,30901209,21911519,21811909,11011209,20511019,10100209,30400619,21410419,20311609,31511919,0,41700219,41212019,21801409,30101309,30700509,-3161001,21600719,41001119,40601519,0,21010809,0,0
9,48,945.604357868433,0,0,2195968.91740036,2195969.96447069,2,1,0,3,19,165109424,93524765,82213627,95424546,30200619,10311409,-2160101,20801119,0,30000219,31112019,10412019,30111919,0,30311709,10200109,20400819,0,0,0,11702019,20910109,31501209,10400709,40311709,0,0,0,0,0,0,0,10610609,21911409,0,21501819,0,0,41400709,0
9,49,1308.24297294021,0,0,2195971.96449802,2195973.01156681,2,0,0,13,9,84012757,75785067,11401719,42513518,0,0,31801419,40810819,0,0,0,0,11400519,0,10201819,0,-4080120,20301319,41201809,0,0,0,0,0,11401719,0,0,0,0,0,0,0,31911909,0,0,0,0,0,0,10601609
9,50,1001.90451322123,1,0,2195975.49397679,2195976.54107869,2,0,1,28,3,0,51411438,11511109,1031160,0,0,0,0,0,0,0,0,0,0,0,0,0,0,31100119,0,20311319,0,0,0,0,0,0,0,11511109,0,0,-1031160,0,0,0,0,0,0,0,0
9,51,899.221951607615,0,0,2195978.6116378,2195979.65871005,2,1,0,34,3,41100319,21700219,10210019,4090101,0,0,0,0,0,0,0,41100319,0,0,0,0,0,0,0,0,21700219,0,0,10210019,0,0,0,0,0,0,0,0,0,0,0,0,0,-4090101,0,0
9,52,1001.39328511432,1,0,2195981.57637037,2195982.62345032,2,1,1,17,31,209951621,210319933,199430541,136826704,30300609,11501609,42011919,21411809,11301619,10811519,42001219,10511309,30100009,31101909,41611809,20801809,11310419,0,40410809,41300519,-2081150,21701509,31600519,21701609,20711319,10901809,41801919,10601009,21100519,10411219,30600619,21601019,11210419,41802009,0,0,11401119,10501419,0,40310719
9,53,760.38270117715,1,0,2196009.76507246,2196010.81203115,3,0,1,18,31,216946712,150977093,239552541,167426013,40711719,0,21010409,30201019,11102019,11100209,31000409,31210519,40610409,41610719,40311309,0,11510719,10610619,21900709,11801209,10110609,-3121200,41401219,20801209,11601919,31801719,10410809,31811409,31111619,30411919,30200719,30511019,30601609,0,21200819,11910819,41500919,10700709,21000119,0
9,54,628.063534386456,0,0,2196012.60029069,2196013.64735525,3,0,0,33,3,30410019,0,0,63503399,0,0,0,0,30410019,0,0,0,0,0,0,0,0,0,0,0,0,0,0,0,0,0,0,0,0,0,0,0,41210319,0,0,0,-1191171,21101909,0,0
9,55,718.575555831194,0,0,2196015.37679621,2196016.42385192,3,1,0,10,9,122815176,2181200,64613847,43312128,20100419,0,30312019,40902019,0,0,0,0,31500719,-2181200,0,0,0,0,0,0,0,0,41100909,11511319,0,12001619,0,0,0,0,0,0,0,0,0,31910909,0,0,0,11401219
9,56,1021.74193644896,0,0,2196018.28271406,2196019.3297844,3,0,0,1,9,34932619,50911728,133234856,60822828,-4121200,0,0,0,30811419,0,0,0,0,0,0,0,0,0,0,40310719,10601009,0,41411619,0,0,0,0,0,41401309,40311009,10110919,0,0,0,20711819,0,0,0,40111009,0
9,57,868.801950942725,1,0,2196021.38865032,2196022.43570178,3,1,1,32,31,227251651,189028422,208224193,197036703,40510819,11501909,31811909,20701119,40000419,11011119,20000719,31401919,20311719,0,41701409,21401909,30501119,11310509,20500019,11301319,41510819,10801319,0,11800309,21610109,0,41000209,11411019,40600019,40201109,41601419,31301219,30101119,42000419,40300009,-1021090,11400219,0,20111609,20801019
9,58,691.789972130209,1,0,2196024.40043628,2196025.44749968,3,0,1,30,19,94833156,93214646,154536065,146479675,40410819,21700709,0,21810009,0,0,0,10911619,0,10601509,0,0,0,0,31000309,30311209,21301619,0,11411719,0,30400709,41400509,0,31311119,40012009,0,0,40711709,11601109,-1041011,0,20311909,20001809,41400209,11411919,0
9,59,531.168090645224,1,0,2196027.31815665,2196028.36517309,3,0,1,30,0,0,0,0,0,0,0,0,0,0,0,0,0,0,0,0,0,0,0,0,0,0,0,0,0,0,0,0,0,0,0,0,0,0,-41000091,0,0,0,0,0,0
9,60,606.056471355259,0,0,2196030.10638462,2196031.1534615,3,1,0,24,3,0,0,108244058,0,0,0,0,0,0,0,0,0,0,0,0,0,0,0,0,0,0,0,31101619,0,41110319,0,0,-4031011,0,32001109,0,0,0,0,0,0,0,0,0,0
9,61,779.321240726858,0,0,2196032.82406772,2196033.87112381,3,0,0,16,31,183835012,241960302,249368131,186033584,31210619,10100419,20011319,20300509,0,20200109,40610919,10700409,30700709,31710319,40310209,10111219,41712019,31701519,21611819,-2000160,22001219,40801819,20411019,31511109,40711019,41510209,30602019,11710819,11310909,21500619,40100409,21210409,0,20310319,40900119,41801809,30010819,0,0,31800109
9,62,508.592825382948,1,0,2196035.80057394,2196036.84764081,3,1,1,23,9,94222237,0,16092210,123525365,31110609,41201609,0,0,21910019,0,0,0,0,0,0,0,0,0,0,0,0,0,0,0,0,0,-4091001,0,0,0,12001209,0,0,0,0,10601919,31500009,40011719,30511409,10900309
9,63,599.551785737276,1,0,2196038.40060913,2196039.44767253,3,0,1,12,19,142515095,117437776,136035875,122723056,0,30101119,0,30701219,21201419,0,0,30500519,30010819,41610209,0,-2101101,20201919,31401119,0,10111919,12011509,0,20401719,0,0,0,41711919,0,22010209,41510909,10401119,21901209,0,0,0,0,0,40501509,30310019,30010319
9,64,582.344801165164,0,0,2196041.2477061,2196042.2947645,3,0,0,8,9,14551330,51601918,70801918,93033856,11400209,0,0,0,0,0,0,-3151121,0,0,0,0,0,10000109,41601809,0,0,0,0,0,0,0,0,40100509,30701409,0,0,0,0,0,41310719,0,10110419,20011309,21601409,0
9,65,703.471997287124,1,0,2196044.00067703,2196045.04774236,3,1,1,20,19,174335674,73210637,137627406,84335465,20710009,0,41610509,0,0,30000709,30001609,12011219,40001619,0,0,0,0,40800009,0,21610009,10800619,0,0,-1101131,11102019,0,0,20610909,41400509,41911819,21501019,0,0,11110309,11400919,0,11201819,30410409,0,20212009
9,66,618.876056279987,1,0,2196046.88284895,2196047.93014564,3,0,1,13,3,0,12442070,0,41923038,0,0,0,0,0,0,0,0,0,0,0,0,-1140061,0,11302009,0,0,0,0,0,0,0,0,0,0,0,0,11111819,0,30811219,0,0,0,0,0,0
9,67,506.52673933655,1,0,2196049.6125132,2196050.65957699,3,0,1,28,3,21010219,0,0,82022328,0,0,0,0,0,0,21010219,0,0,0,0,0,0,0,0,0,0,0,0,0,0,0,0,0,0,0,0,-1100090,0,0,40711919,0,40210319,0,0,0
9,68,759.8025649786,1,0,2196052.28319911,2196053.33021324,3,1,1,2,9,95322227,104232837,54022038,42000209,0,-3190090,0,0,31310119,30111809,30710209,0,0,21211519,0,0,0,0,0,0,41711209,41310109,0,42010619,0,0,0,0,0,12011419,0,0,42000209,0,0,0,0,0,0,0
9,69,883.611784316599,0,0,2196055.27140006,2196056.31846577,3,0,0,36,31,196350712,205539012,195037782,171287173,31810309,40801519,21811919,10410919,40211619,20700609,0,10601809,20002009,20800209,11101819,0,30510119,40411709,20400719,20501619,21100909,40711909,0,40511409,31500409,20701709,10301109,40410209,11001019,10200909,30411009,41701219,30601109,11511219,0,11410609,31301519,20900619,20710809,-3150070
9,70,637.652527075261,1,0,2196058.27144356,2196059.31851158,3,0,1,4,9,86363927,40411528,52612328,62212328,10801609,0,31601209,-2051090,0,0,0,41910019,0,0,0,0,0,0,10300309,0,0,30111219,0,31011509,0,0,0,0,0,21600819,0,0,20510419,0,41701909,0,0,0,0,0
9,71,684.60313603282,1,0,2196061.02441527,2196062.07147944,3,1,1,31,3,0,31700109,0,46192549,0,0,0,0,0,0,0,0,0,0,0,0,0,0,31700109,0,0,0,0,0,0,0,0,0,0,0,0,0,0,0,-4081121,0,20411119,0,21700309,0
9,72,894.570082891732,0,0,2196063.88326933,2196064.93034351,3,0,0,6,19,76863516,208348622,125202357,85423646,12010009,10701319,0,0,20910019,-2041050,0,31201119,0,31201909,0,31111709,41910809,10300119,40800019,20800619,21311419,10912019,0,0,0,41801619,0,0,41600219,41800519,0,0,21701409,21510719,0,0,0,0,30801009,11410509
9,73,621.596190612763,0,0,2196066.98919288,2196068.03626013,3,1,0,34,3,41100319,21700219,10210019,4090101,0,0,0,0,0,0,0,41100319,0,0,0,0,0,0,0,0,21700219,0,0,10210019,0,0,0,0,0,0,0,0,0,0,0,0,0,-4090101,0,0
9,74,784.164434298873,0,0,2196069.70687175,2196070.75393169,3,1,0,29,31,218758421,209969211,238449522,158075676,41511119,21601009,40201909,20610119,10711109,10510619,20210509,21500119,31901909,21900519,30711009,41110609,30901209,21911519,21811909,11011209,20511019,10100209,30400619,21410419,20311609,31511919,0,41700219,41212019,21801409,30101309,30700509,-3161001,21600719,41001119,40601519,0,21010809,0,0
9,75,686.582220252603,0,0,2196072.74220231,2196073.78927996,3,1,0,11,19,73133556,126082586,157048503,103525656,40100919,0,11710609,0,10010509,0,0,0,11311519,0,-3050030,0,41910319,10301709,0,30010309,40810219,0,0,40500419,20901409,30110609,0,20911019,21911819,11011809,11701419,0,11900509,0,40511919,20111209,0,0,31002019,0
9,76,477.278560400009,1,0,2196075.68341916,2196076.73048987,3,1,1,17,31,209951621,210319933,199430541,136826704,30300609,11501609,42011919,21411809,11301619,10811519,42001219,10511309,30100009,31101909,41611809,20801809,11310419,0,40410809,41300519,-2081150,21701509,31600519,21701609,20711319,10901809,41801919,10601009,21100519,10411219,30600619,21601019,11210419,41802009,0,0,11401119,10501419,0,40310719
9,77,595.54896177724,0,0,2196078.40110149,2196079.44816566,3,1,0,22,0,0,0,0,0,0,0,0,0,0,0,0,0,0,0,0,0,0,0,0,0,0,0,0,0,0,-40901901,0,0,0,0,0,0,0,0,0,0,0,0,0,0
9,78,719.214206095785,0,0,2196081.0834883,2196082.13055439,3,1,0,3,19,165109424,93524765,82213627,95424546,30200619,10311409,-2160101,20801119,0,30000219,31112019,10412019,30111919,0,30311709,10200109,20400819,0,0,0,11702019,20910109,31501209,10400709,40311709,0,0,0,0,0,0,0,10610609,21911409,0,21501819,0,0,41400709,0
9,79,919.739600270987,0,0,2196107.57791984,2196108.62499132,4,0,0,36,9,104335946,82924137,11511009,35121090,0,0,0,21211319,31500809,0,31611909,0,20011909,30400609,0,0,41712019,0,0,0,10811509,0,0,0,0,0,11511009,0,0,0,0,0,0,31011009,0,0,0,0,0,-4110081
9,80,716.371654067189,0,0,2196110.62501981,2196111.67209207,4,0,0,30,31,151137241,145848023,248554512,223132094,31811919,10000119,31500009,12010119,21910909,10500419,11101919,11601409,10700419,30111919,21101219,11110319,31801019,0,11112019,0,30301509,10310019,41710809,30701019,10000209,0,41310109,41411109,10200119,31210619,42010519,41111309,21611709,-4161001,0,21410609,40611909,40911519,11812019,41502019
9,81,546.432562638074,0,0,2196113.48387965,2196114.53094959,4,1,0,10,9,122815176,2181200,64613847,43312128,20100419,0,30312019,40902019,0,0,0,0,31500719,-2181200,0,0,0,0,0,0,0,0,41100909,11511319,0,12001619,0,0,0,0,0,0,0,0,0,31910909,0,0,0,11401219
9,82,658.553982619196,0,0,2196116.13097516,2196117.17804318,4,0,0,13,3,40011809,4191041,32212118,0,0,0,0,0,0,0,40011809,0,0,0,0,0,-4191041,0,0,0,0,0,0,0,0,20900709,0,0,11311409,0,0,0,0,0,0,0,0,0,0,0
9,83,531.64005279541,0,0,2196119.03689185,2196120.08395718,4,1,0,11,19,73133556,126082586,157048503,103525656,40100919,0,11710609,0,10010509,0,0,0,11311519,0,-3050030,0,41910319,10301709,0,30010309,40810219,0,0,40500419,20901409,30110609,0,20911019,21911819,11011809,11701419,0,11900509,0,40511919,20111209,0,0,31002019,0
9,84,680.514465551823,1,0,2196121.68398043,2196122.73105115,4,1,1,31,3,0,31700109,0,46192549,0,0,0,0,0,0,0,0,0,0,0,0,0,0,31700109,0,0,0,0,0,0,0,0,0,0,0,0,0,0,0,-4081121,0,20411119,0,21700309,0
9,85,998.315137345344,1,0,2196124.58994448,2196125.63696861,4,0,1,18,3,31912438,4161050,0,20200009,11301019,20611419,0,0,0,0,0,0,0,0,0,0,0,0,0,0,0,-4161050,0,0,0,0,0,0,0,0,0,0,0,0,0,0,0,0,20200009,0
9,86,488.892063032836,1,0,2196127.66053284,2196128.70758855,4,0,1,12,0,0,0,0,0,0,0,0,0,0,0,0,0,0,0,0,-21210091,0,0,0,0,0,0,0,0,0,0,0,0,0,0,0,0,0,0,0,0,0,0,0,0
9,87,909.18936021626,1,0,2196130.22525864,2196131.28409646,4,1,1,17,31,209951621,210319933,199430541,136826704,30300609,11501609,42011919,21411809,11301619,10811519,42001219,10511309,30100009,31101909,41611809,20801809,11310419,0,40410809,41300519,-2081150,21701509,31600519,21701609,20711319,10901809,41801919,10601009,21100519,10411219,30600619,21601019,11210419,41802009,0,0,11401119,10501419,0,40310719
9,88,539.233793038875,0,0,2196133.23705307,2196134.28413611,4,1,0,20,19,174335674,73210637,137627406,84335465,20710009,0,41610509,0,0,30000709,30001609,12011219,40001619,0,0,0,0,40800009,0,21610009,10800619,0,0,-1101131,11102019,0,0,20610909,41400509,41911819,21501019,0,0,11110309,11400919,0,11201819,30410409,0,20212009
9,89,799.650643952191,0,0,2196135.91945335,2196136.96651945,4,0,0,8,9,54451747,42011409,63924237,52013218,0,20200209,21310019,11800509,0,0,0,-1141010,0,0,0,0,0,42011409,0,0,0,0,0,0,0,11801719,0,21910909,30211609,0,0,42001209,0,0,0,0,10012009,0,0,0
9,90,741.140042431653,1,0,2196138.77830126,2196139.83721183,4,0,1,6,31,178815144,246548112,206647531,178034493,40610719,10310319,30111219,20400819,20710009,-4160131,11911419,40600509,0,40501919,20100119,30011109,42000419,11301809,40610309,20111719,41910709,0,11811009,21300119,30010219,10911819,20200519,40311809,20400519,10400409,41301109,0,31410219,31400509,31901119,40910709,11210409,11100909,20100619,0
9,91,603.56808360666,1,0,2196141.71950809,2196142.76658843,4,0,1,28,19,136533575,103533966,72032357,169330254,0,31910519,10801019,21710219,41811309,0,30300509,0,0,11410019,0,0,20901219,41111909,30110819,0,0,0,10610519,0,40410719,0,0,21011119,0,0,0,-3100141,20401319,20401509,21301209,20011519,31801319,31211919,0,21101319
9,92,622.024266980588,0,0,2196144.49602632,2196145.54308664,4,1,0,32,31,227251651,189028422,208224193,197036703,40510819,11501909,31811909,20701119,40000419,11011119,20000719,31401919,20311719,0,41701409,21401909,30501119,11310509,20500019,11301319,41510819,10801319,0,11800309,21610109,0,41000209,11411019,40600019,40201109,41601419,31301219,30101119,42000419,40300009,-1021090,11400219,0,20111609,20801019
9,93,467.644912656397,1,0,2196147.34311636,2196148.3901763,4,1,1,23,9,94222237,0,16092210,123525365,31110609,41201609,0,0,21910019,0,0,0,0,0,0,0,0,0,0,0,0,0,0,0,0,0,-4091001,0,0,0,12001209,0,0,0,0,10601919,31500009,40011719,30511409,10900309
9,94,735.091536305845,1,0,2196149.89609046,2196150.94315732,4,0,1,12,3,20410009,25791799,0,20811819,0,0,0,0,0,0,0,0,20410009,0,0,-4091090,0,0,0,21700709,0,0,0,0,0,0,0,0,0,0,0,20811819,0,0,0,0,0,0,0,0
9,95,711.114627309144,0,0,2196152.84906747,2196153.89618939,4,1,0,34,3,41100319,21700219,10210019,4090101,0,0,0,0,0,0,0,41100319,0,0,0,0,0,0,0,0,21700219,0,0,10210019,0,0,0,0,0,0,0,0,0,0,0,0,0,-4090101,0,0
9,96,827.710448298603,1,0,2196155.79032359,2196156.83734618,4,0,1,1,19,23282338,157915184,102132837,198269302,-2171020,0,0,0,0,10500609,0,0,10610709,0,10401009,0,40811319,21400219,21800519,31900809,31601309,0,40210609,0,0,31211509,0,0,0,0,30710719,41601909,21611509,30801609,41110209,0,11012019,21710019,20011909,10410119
9,97,613.051211927086,0,0,2196158.80208568,2196159.8491564,4,1,0,24,3,0,0,108244058,0,0,0,0,0,0,0,0,0,0,0,0,0,0,0,0,0,0,0,31101619,0,41110319,0,0,-4031011,0,32001109,0,0,0,0,0,0,0,0,0,0
9,98,764.693493954837,0,0,2196161.49623112,2196162.54329645,4,1,0,3,19,165109424,93524765,82213627,95424546,30200619,10311409,-2160101,20801119,0,30000219,31112019,10412019,30111919,0,30311709,10200109,20400819,0,0,0,11702019,20910109,31501209,10400709,40311709,0,0,0,0,0,0,0,10610609,21911409,0,21501819,0,0,41400709,0
9,99,609.024520032108,0,0,2196164.36685421,2196165.41392416,4,0,0,16,31,196748183,189479153,230247322,217648912,30101109,11511409,0,11011409,41100719,40401609,0,31211009,31410919,11211419,41101019,11101319,41210109,31101709,10810219,-1030041,20611909,21301409,0,41701909,31310219,31101319,20800519,21600309,31610919,41510119,10612009,41700909,30211319,20110709,31810909,0,41701319,30001419,11211119,10901209
9,100,637.465436011553,1,0,2196167.19049974,2196168.23748346,4,0,1,4,19,69333466,22811328,144949003,136715674,0,0,0,-4010200,11211509,12011019,30900719,11200019,0,0,0,12000609,0,10810719,0,0,0,0,11200009,31901519,10201919,10811009,30711709,0,10111319,40011519,0,0,31701419,21311409,10600409,0,11101719,0,40600609,21400109
9,101,679.960891604424,1,0,2196170.07280794,2196171.11987481,4,1,1,2,9,95322227,104232837,54022038,42000209,0,-3190090,0,0,31310119,30111809,30710209,0,0,21211519,0,0,0,0,0,0,41711209,41310109,0,42010619,0,0,0,0,0,12011419,0,0,42000209,0,0,0,0,0,0,0
9,102,607.135131955147,0,0,2196172.93167278,2196173.97873734,4,0,0,33,9,30211038,31822038,31712009,105105317,10010019,0,20201019,0,0,0,0,0,0,0,0,0,11211219,0,0,20610819,0,0,31712009,0,0,0,0,0,0,0,0,42000719,0,0,20001119,11910419,-1191141,0,30001919,0
9,103,500.316549558192,1,0,2196175.68463987,2196176.73170905,4,1,1,29,31,218758421,209969211,238449522,158075676,41511119,21601009,40201909,20610119,10711109,10510619,20210509,21500119,31901909,21900519,30711009,41110609,30901209,21911519,21811909,11011209,20511019,10100209,30400619,21410419,20311609,31511919,0,41700219,41212019,21801409,30101309,30700509,-3161001,21600719,41001119,40601519,0,21010809,0,0
9,104,577.1574517712,1,0,2196178.39055857,2196179.43762389,4,1,1,22,0,0,0,0,0,0,0,0,0,0,0,0,0,0,0,0,0,0,0,0,0,0,0,0,0,0,-40901901,0,0,0,0,0,0,0,0,0,0,0,0,0,0
9,105,895.337310619652,0,0,2196211.87332156,2196212.9203788,5,1,0,31,3,0,31700109,0,46192549,0,0,0,0,0,0,0,0,0,0,0,0,0,0,31700109,0,0,0,0,0,0,0,0,0,0,0,0,0,0,0,-4081121,0,20411119,0,21700309,0
9,106,645.512274932116,0,0,2196214.89692621,2196215.94394957,5,1,0,20,19,174335674,73210637,137627406,84335465,20710009,0,41610509,0,0,30000709,30001609,12011219,40001619,0,0,0,0,40800009,0,21610009,10800619,0,0,-1101131,11102019,0,0,20610909,41400509,41911819,21501019,0,0,11110309,11400919,0,11201819,30410409,0,20212009
9,107,850.694157648832,0,0,2196217.66163037,2196218.70870147,5,0,0,18,19,52823337,157637195,157224585,136445894,0,0,0,0,11401709,0,11110409,0,30311219,30810509,30311419,0,20802019,31911819,0,40710419,0,-3091010,0,0,40000619,21710519,0,21901019,31911709,0,41700719,0,0,20412009,30900319,21300919,11011819,10910219,0,41910609
9,108,710.920991841704,1,0,2196220.61466205,2196221.66166771,5,0,1,33,3,0,0,101922447,4200040,0,0,0,0,0,0,0,0,0,0,0,0,0,0,0,0,0,0,30110219,0,0,0,41311509,0,0,30500719,0,0,0,0,0,0,-4200040,0,0,0
9,109,635.681142099202,0,0,2196223.52053101,2196224.56763637,5,0,0,36,3,41021618,0,0,21421080,0,0,0,30111409,0,0,0,0,10910209,0,0,0,0,0,0,0,0,0,0,0,0,0,0,0,0,0,0,0,0,0,0,0,20311019,0,0,-1110061
9,110,533.877060748637,0,0,2196226.33232167,2196227.37937661,5,1,0,34,3,41100319,21700219,10210019,4090101,0,0,0,0,0,0,0,41100319,0,0,0,0,0,0,0,0,21700219,0,0,10210019,0,0,0,0,0,0,0,0,0,0,0,0,0,-4090101,0,0
9,111,719.482908956707,1,0,2196229.06176264,2196230.10883066,5,1,1,32,31,227251651,189028422,208224193,197036703,40510819,11501909,31811909,20701119,40000419,11011119,20000719,31401919,20311719,0,41701409,21401909,30501119,11310509,20500019,11301319,41510819,10801319,0,11800309,21610109,0,41000209,11411019,40600019,40201109,41601419,31301219,30101119,42000419,40300009,-1021090,11400219,0,20111609,20801019
9,112,828.059993218631,1,0,2196231.89709867,2196232.94415861,5,0,1,4,31,150718663,249235602,208356882,167635293,21611219,11511109,20500109,-2060151,11311509,40101019,21511419,10510919,11601209,40602009,42000619,31600509,31500309,12010109,40200309,20010819,0,31310919,0,41200609,20611209,21901709,20110809,12010409,10401019,42010609,40110509,41011519,10401109,20400309,20700719,11910009,31910019,0,0,31301609
9,113,531.504546292126,1,0,2196234.86184048,2196235.90889079,5,1,1,22,0,0,0,0,0,0,0,0,0,0,0,0,0,0,0,0,0,0,0,0,0,0,0,0,0,0,-40901901,0,0,0,0,0,0,0,0,0,0,0,0,0,0
9,114,576.47953601554,0,0,2196237.47362891,2196238.5206977,5,0,0,28,31,239553522,210056802,199266441,126844664,0,30210319,21410619,21111219,10710409,31610009,41800609,41900219,40800119,0,21810719,30511419,11801709,11810609,40400209,31810309,41611019,20300809,21510019,30012009,10711019,41310619,11410309,41500119,20111309,10900319,11800719,-1200070,10301219,30110209,20410019,0,10811609,12000919,42010619,0
9,115,543.586161453277,0,0,2196240.12072442,2196241.16779051,5,1,0,10,9,122815176,2181200,64613847,43312128,20100419,0,30312019,40902019,0,0,0,0,31500719,-2181200,0,0,0,0,0,0,0,0,41100909,11511319,0,12001619,0,0,0,0,0,0,0,0,0,31910909,0,0,0,11401219
9,116,543.549589812756,1,0,2196242.87370113,2196243.92076761,5,0,1,8,9,1170091,165015775,81302438,61822718,0,0,0,0,0,0,0,-1170091,0,31201419,31801909,30000009,0,0,41600919,30411519,0,0,0,0,40001819,0,0,0,0,41300619,0,0,0,0,0,21111909,0,0,0,40710809
9,117,605.240353848785,1,0,2196245.56784849,2196246.61491651,5,0,1,1,9,117364227,31900309,50813038,83733047,-3050090,40411009,0,31901709,0,0,0,0,42001419,0,31900309,0,0,0,0,0,0,0,0,30011819,0,0,20801219,0,0,0,0,0,0,0,31410419,0,10511509,41811119,0,0
9,118,538.376870099455,1,0,2196248.37965339,2196249.42671872,5,1,1,24,3,0,0,108244058,0,0,0,0,0,0,0,0,0,0,0,0,0,0,0,0,0,0,0,31101619,0,41110319,0,0,-4031011,0,32001109,0,0,0,0,0,0,0,0,0,0
9,119,529.87693157047,0,0,2196251.10909513,2196252.15615892,5,1,0,3,19,165109424,93524765,82213627,95424546,30200619,10311409,-2160101,20801119,0,30000219,31112019,10412019,30111919,0,30311709,10200109,20400819,0,0,0,11702019,20910109,31501209,10400709,40311709,0,0,0,0,0,0,0,10610609,21911409,0,21501819,0,0,41400709,0
9,120,522.091481368989,1,0,2196253.81501806,2196254.86206953,5,1,1,29,31,218758421,209969211,238449522,158075676,41511119,21601009,40201909,20610119,10711109,10510619,20210509,21500119,31901909,21900519,30711009,41110609,30901209,21911519,21811909,11011209,20511019,10100209,30400619,21410419,20311609,31511919,0,41700219,41212019,21801409,30101309,30700509,-3161001,21600719,41001119,40601519,0,21010809,0,0
9,121,731.278882361948,1,0,2196256.53269077,2196257.57975687,5,1,1,11,19,73133556,126082586,157048503,103525656,40100919,0,11710609,0,10010509,0,0,0,11311519,0,-3050030,0,41910319,10301709,0,30010309,40810219,0,0,40500419,20901409,30110609,0,20911019,21911819,11011809,11701419,0,11900509,0,40511919,20111209,0,0,31002019,0
9,122,512.170267291367,1,0,2196259.33272011,2196260.37978928,5,0,1,30,3,22810728,0,11510619,2121070,0,0,0,11500709,11310019,0,0,0,0,0,0,0,0,0,0,0,0,0,0,0,0,0,0,0,0,11510619,0,0,0,-2121070,0,0,0,0,0,0
9,123,736.971685197204,0,0,2196262.02686939,2196263.07393434,5,0,0,6,31,147418984,207559122,227446703,256331021,21411409,40012009,10701609,10200309,41510519,-1061011,0,11410809,11111309,30511219,40111619,30811619,11310309,21200919,11911619,0,20500909,41200909,31900719,20900909,30710719,31110109,41101809,0,40811719,30910719,0,10501909,30311919,12001209,21911109,40000319,20700709,40001709,40101319,40800819
9,124,918.085808400065,1,0,2196264.93279379,2196265.97985681,5,0,1,13,19,145537175,108564967,104712456,137145584,30811619,20601609,0,0,0,0,41701009,22011219,30411719,22010919,31401909,0,-3030021,10811809,0,0,0,41310309,0,0,0,11700309,0,0,41000519,40701309,11310319,0,0,20600819,21200709,0,10711719,11910919,31910809,40810609
9,125,684.928042814136,0,0,2196267.92108636,2196268.96818864,5,1,0,2,9,95322227,104232837,54022038,42000209,0,-3190090,0,0,31310119,30111809,30710209,0,0,21211519,0,0,0,0,0,0,41711209,41310109,0,42010619,0,0,0,0,0,12011419,0,0,42000209,0,0,0,0,0,0,0
9,126,737.635742872953,0,0,2196270.7563912,2196271.80349503,5,1,0,23,9,94222237,0,16092210,123525365,31110609,41201609,0,0,21910019,0,0,0,0,0,0,0,0,0,0,0,0,0,0,0,0,0,-4091001,0,0,0,12001209,0,0,0,0,10601919,31500009,40011719,30511409,10900309
9,127,488.658391404897,1,0,2196273.67407962,2196274.72113879,5,0,1,20,0,0,0,0,0,0,0,0,0,0,0,0,0,0,0,0,0,0,0,0,0,0,0,0,-41000591,0,0,0,0,0,0,0,0,0,0,0,0,0,0,0,0
9,128,625.393060501665,0,0,2196276.40355485,2196277.45060439,5,0,0,12,9,21501909,97104607,20801919,123212537,0,0,21501909,0,0,0,0,0,0,30711509,11800109,-3091071,0,0,0,31000809,0,20501109,0,0,0,20801919,0,0,0,0,0,40210319,0,0,0,0,41800609,41201609,0,0
9,129,541.535859461874,1,0,2196279.121201,2196280.16826555,5,1,1,17,31,209951621,210319933,199430541,136826704,30300609,11501609,42011919,21411809,11301619,10811519,42001219,10511309,30100009,31101909,41611809,20801809,11310419,0,40410809,41300519,-2081150,21701509,31600519,21701609,20711319,10901809,41801919,10601009,21100519,10411219,30600619,21601019,11210419,41802009,0,0,11401119,10501419,0,40310719
9,130,532.607844565064,0,0,2196281.7330002,2196282.78008401,5,0,0,16,19,115623865,75203847,207227723,94913236,0,21401909,21600209,30400319,0,31810409,0,10411019,0,20511719,20911509,0,0,0,30610509,-3170110,0,0,40401219,21610319,31302019,0,0,10201219,30810319,31102019,41800609,11400309,0,11411309,31500509,0,0,0,0,40601109
9,131,747.87724390626,0,0,2196315.42752598,2196316.47459708,6,1,0,34,3,41100319,21700219,10210019,4090101,0,0,0,0,0,0,0,41100319,0,0,0,0,0,0,0,0,21700219,0,0,10210019,0,0,0,0,0,0,0,0,0,0,0,0,0,-4090101,0,0
9,132,689.220357686281,1,0,2196318.25108837,2196319.29815947,6,0,1,16,31,197247621,210861542,127026294,168347402,11311219,40611519,11500109,31900209,20500709,30510409,20301119,20511419,10100909,30700619,20601909,11600819,20111119,11901419,40911719,-4111200,30211619,40711119,0,20900109,41601819,21901009,20911219,0,0,10310619,11401519,30600609,31712019,11300419,0,41411109,20001809,11910209,10310909,11100319
9,133,506.539443507791,0,0,2196321.16877332,2196322.21584057,6,1,0,22,0,0,0,0,0,0,0,0,0,0,0,0,0,0,0,0,0,0,0,0,0,0,0,0,0,0,-40901901,0,0,0,0,0,0,0,0,0,0,0,0,0,0
9,134,523.334519937634,0,0,2196323.85115743,2196324.89822199,6,0,0,28,19,161425175,187426483,113133647,128284307,0,0,40001119,30011509,30900919,0,0,30110319,30401309,0,40100109,0,21100409,31201609,31601809,31701419,11511019,20210109,31211519,40710809,41211319,0,0,0,0,0,0,-1160151,11711819,41401819,42010309,0,0,0,0,32000209
9,135,714.09153053537,1,0,2196326.49824947,2196327.54531133,6,1,1,2,9,95322227,104232837,54022038,42000209,0,-3190090,0,0,31310119,30111809,30710209,0,0,21211519,0,0,0,0,0,0,41711209,41310109,0,42010619,0,0,0,0,0,12011419,0,0,42000209,0,0,0,0,0,0,0
9,136,783.840297255665,1,0,2196329.3923956,2196330.43947094,6,1,1,20,19,174335674,73210637,137627406,84335465,20710009,0,41610509,0,0,30000709,30001609,12011219,40001619,0,0,0,0,40800009,0,21610009,10800619,0,0,-1101131,11102019,0,0,20610909,41400509,41911819,21501019,0,0,11110309,11400919,0,11201819,30410409,0,20212009
9,137,618.646619841456,1,0,2196332.28657368,2196333.33363054,6,0,1,33,19,168244703,115125256,154118004,55822478,0,10700919,21600309,11711609,0,31210119,11700219,40410509,40911019,0,41211619,20201709,0,0,0,31910209,21801719,0,0,40200619,11501619,20501019,31702019,40111319,10101409,0,0,11300509,0,0,0,0,-4110060,0,40411909,0
9,138,702.328663319349,0,0,2196335.07482822,2196336.121892,6,1,0,17,31,209951621,210319933,199430541,136826704,30300609,11501609,42011919,21411809,11301619,10811519,42001219,10511309,30100009,31101909,41611809,20801809,11310419,0,40410809,41300519,-2081150,21701509,31600519,21701609,20711319,10901809,41801919,10601009,21100519,10411219,30600619,21601019,11210419,41802009,0,0,11401119,10501419,0,40310719
9,139,476.799669209868,1,0,2196337.89818829,2196338.94545785,6,1,1,11,19,73133556,126082586,157048503,103525656,40100919,0,11710609,0,10010509,0,0,0,11311519,0,-3050030,0,41910319,10301709,0,30010309,40810219,0,0,40500419,20901409,30110609,0,20911019,21911819,11011809,11701419,0,11900509,0,40511919,20111209,0,0,31002019,0
9,140,729.390264023095,0,0,2196340.56901184,2196341.61607216,6,0,0,36,31,268649212,228759211,190846921,137785746,0,31611309,30201109,41901119,41401009,31310119,31411509,40301419,20511619,21100909,11801719,41111409,21200609,30011719,40700109,10211609,31410619,21210509,11701309,42010519,21001209,20910019,10111409,21700919,10900309,11801119,40710109,11511509,31101319,0,41210719,0,41111809,11800219,0,-1050171
9,141,545.638388488442,0,0,2196343.54551344,2196344.59258646,6,0,0,34,0,0,0,0,0,0,0,0,0,0,0,0,0,0,0,0,0,0,0,0,0,0,0,0,0,0,0,0,0,0,0,0,0,0,0,0,0,0,-41210291,0,0
9,142,622.713732067496,1,0,2196346.15731765,2196347.20438644,6,1,1,29,31,218758421,209969211,238449522,158075676,41511119,21601009,40201909,20610119,10711109,10510619,20210509,21500119,31901909,21900519,30711009,41110609,30901209,21911519,21811909,11011209,20511019,10100209,30400619,21410419,20311609,31511919,0,41700219,41212019,21801409,30101309,30700509,-3161001,21600719,41001119,40601519,0,21010809,0,0
9,143,535.329518839717,0,0,2196348.88675669,2196349.93381086,6,1,0,24,3,0,0,108244058,0,0,0,0,0,0,0,0,0,0,0,0,0,0,0,0,0,0,0,31101619,0,41110319,0,0,-4031011,0,32001109,0,0,0,0,0,0,0,0,0,0
9,144,601.97203559801,0,0,2196351.61620459,2196352.66326376,6,1,0,31,3,0,31700109,0,46192549,0,0,0,0,0,0,0,0,0,0,0,0,0,0,31700109,0,0,0,0,0,0,0,0,0,0,0,0,0,0,0,-4081121,0,20411119,0,21700309,0
9,145,706.645615398884,0,0,2196354.35740188,2196355.40447876,6,0,0,30,3,40000319,22000519,0,33890620,0,0,0,0,0,0,0,40000319,0,0,0,22000519,0,0,0,0,0,0,0,0,0,0,0,0,0,0,0,0,0,-2080011,0,0,0,0,31810609,0
9,146,504.690090660006,0,0,2196357.15744315,2196358.20451348,6,0,0,8,9,35333879,20311309,104636585,10900409,21701609,0,0,0,10511209,0,0,-3121061,0,0,0,0,0,0,0,20311309,0,0,0,30611719,0,0,11411519,40911619,0,11001519,10700209,0,0,0,0,0,0,10900409,0,0
9,147,609.570009633899,1,0,2196359.91042101,2196360.95748557,6,1,1,10,9,122815176,2181200,64613847,43312128,20100419,0,30312019,40902019,0,0,0,0,31500719,-2181200,0,0,0,0,0,0,0,0,41100909,11511319,0,12001619,0,0,0,0,0,0,0,0,0,31910909,0,0,0,11401219
9,148,519.47066700086,0,0,2196362.75751683,2196363.8045837,6,0,0,18,3,21211119,2191121,42000519,20111619,21211119,0,0,0,0,0,0,0,0,0,0,0,0,0,0,0,0,-2191121,0,0,0,42000519,0,0,0,0,0,0,0,0,0,20111619,0,0,0,0
9,149,516.931849066168,1,0,2196365.42813538,2196366.47520263,6,1,1,23,9,94222237,0,16092210,123525365,31110609,41201609,0,0,21910019,0,0,0,0,0,0,0,0,0,0,0,0,0,0,0,0,0,-4091001,0,0,0,12001209,0,0,0,0,10601919,31500009,40011719,30511409,10900309
9,150,701.05521241203,1,0,2196368.13410566,2196369.18111247,6,0,1,4,3,13300760,31701709,31110009,0,0,0,0,-3190051,0,0,10110709,0,0,0,0,0,0,0,0,0,0,31701709,0,0,0,0,0,0,0,31110009,0,0,0,0,0,0,0,0,0,0
9,151,860.149568878114,1,0,2196371.00466793,2196372.05174134,6,0,1,1,9,47132499,102734466,20000809,51410918,-4130071,0,11900619,0,0,0,31101809,0,0,0,40701019,0,0,30011419,10910909,21111119,0,0,0,0,0,20000809,0,0,0,0,0,21000909,0,0,30410009,0,0,0,0,0
9,152,591.654311865568,0,0,2196373.9694005,2196375.01646967,6,1,0,3,19,165109424,93524765,82213627,95424546,30200619,10311409,-2160101,20801119,0,30000219,31112019,10412019,30111919,0,30311709,10200109,20400819,0,0,0,11702019,20910109,31501209,10400709,40311709,0,0,0,0,0,0,0,10610609,21911409,0,21501819,0,0,41400709,0
9,153,501.943009439856,1,0,2196376.7459245,2196377.79299907,6,0,1,12,19,186345784,127435845,144026975,84112637,30201819,41410409,32010819,0,21211609,0,21100309,40410819,0,10711709,40500919,-3200170,11311519,0,40110819,0,0,21600709,0,0,20711719,0,0,20600709,30301809,41701019,30711719,0,21301419,0,0,0,0,41110009,21701209,0
9,154,571.478122845292,1,0,2196379.38128024,2196380.42831708,6,0,1,6,9,46633548,73234047,41711028,41813418,0,10600809,0,31901609,0,-4131130,0,0,0,21311219,0,0,0,0,11311519,40611309,0,0,0,0,0,20600409,0,0,21110619,0,0,20111909,0,0,0,0,0,0,0,21701509
9,155,874.037035275251,1,0,2196382.20481336,2196383.25187754,6,1,1,32,31,227251651,189028422,208224193,197036703,40510819,11501909,31811909,20701119,40000419,11011119,20000719,31401919,20311719,0,41701409,21401909,30501119,11310509,20500019,11301319,41510819,10801319,0,11800309,21610109,0,41000209,11411019,40600019,40201109,41601419,31301219,30101119,42000419,40300009,-1021090,11400219,0,20111609,20801019
9,156,586.453874129802,0,0,2196385.32250093,2196386.36955779,6,0,0,13,31,175068822,194347494,219338741,187634403,0,11410409,40411719,10701809,11000609,20611119,30410919,10410319,40111919,40501909,31511819,11600209,-4100201,41510809,31702009,11410519,22010019,0,31012019,20611919,31400119,10301509,40400019,11501009,40801109,11800319,21510719,41111609,11401419,41610609,40500119,20300209,0,10910219,21800219,0
9,157,1226.72902885824,1,0,2196421.08763394,2196422.13470543,7,0,1,36,31,173949003,227959012,248090831,179337684,20601819,10101509,0,20110809,30511819,0,31900919,30711519,30010609,31100919,30911509,40910219,10111909,30500919,31310809,0,21801609,31311119,11000609,31211819,20111719,11110819,30510519,31710609,41411519,40211809,30811409,11011819,0,21511409,40200309,10111309,41711209,21810419,30900019,-2081191
9,158,529.542400501668,1,0,2196424.38179031,2196425.42887527,7,1,1,17,31,209951621,210319933,199430541,136826704,30300609,11501609,42011919,21411809,11301619,10811519,42001219,10511309,30100009,31101909,41611809,20801809,11310419,0,40410809,41300519,-2081150,21701509,31600519,21701609,20711319,10901809,41801919,10601009,21100519,10411219,30600619,21601019,11210419,41802009,0,0,11401119,10501419,0,40310719
9,159,535.918509121984,1,0,2196427.14652989,2196428.19363025,7,0,1,30,19,84644276,186134594,81931447,148078025,0,0,22010219,0,0,31010919,11412019,0,20211119,21801409,40000909,0,41710419,11210419,0,30201119,0,41210319,0,30410519,0,21310009,0,30210919,0,0,0,10711919,20100919,-3151141,20000209,0,41110209,11901619,41102009,0
9,160,528.499847277999,0,0,2196429.82891785,2196430.87579,7,1,0,24,3,0,0,108244058,0,0,0,0,0,0,0,0,0,0,0,0,0,0,0,0,0,0,0,31101619,0,41110319,0,0,-4031011,0,32001109,0,0,0,0,0,0,0,0,0,0
9,161,521.028603892773,0,0,2196432.60546187,2196433.65248716,7,1,0,20,19,174335674,73210637,137627406,84335465,20710009,0,41610509,0,0,30000709,30001609,12011219,40001619,0,0,0,0,40800009,0,21610009,10800619,0,0,-1101131,11102019,0,0,20610909,41400509,41911819,21501019,0,0,11110309,11400919,0,11201819,30410409,0,20212009
9,162,580.408061854541,1,0,2196435.28780479,2196436.33487165,7,0,1,4,31,196914215,235548821,246956811,168544903,20211609,40311109,21210109,-3080041,40500219,0,0,41000719,30600409,20610919,30200919,10010119,20101519,41701709,40911109,20201909,11110609,40700009,30301109,41910509,21210209,20201609,30111009,11100109,31600719,20410019,40111519,21400309,30510009,0,0,31712019,31700009,11511619,10100019,31610919
9,163,464.782342780381,0,0,2196437.95842372,2196439.00549136,7,1,0,22,0,0,0,0,0,0,0,0,0,0,0,0,0,0,0,0,0,0,0,0,0,0,0,0,0,0,-40901901,0,0,0,0,0,0,0,0,0,0,0,0,0,0
9,164,432.451781816781,1,0,2196440.53493163,2196441.58199657,7,0,1,33,9,83210637,41812838,32812738,63081228,31600109,0,40400119,0,0,0,11210409,0,0,10610919,0,0,0,0,0,0,0,31201919,0,0,21301519,11511219,0,0,0,0,0,0,40600519,0,0,0,-1180200,0,0,21300509
9,165,482.751550618559,1,0,2196443.05261058,2196444.09967244,7,0,1,4,0,0,0,0,0,0,0,0,-10612001,0,0,0,0,0,0,0,0,0,0,0,0,0,0,0,0,0,0,0,0,0,0,0,0,0,0,0,0,0,0,0,0
9,166,403.106977231801,0,0,2196445.68793821,2196446.7349943,7,1,0,2,9,95322227,104232837,54022038,42000209,0,-3190090,0,0,31310119,30111809,30710209,0,0,21211519,0,0,0,0,0,0,41711209,41310109,0,42010619,0,0,0,0,0,12011419,0,0,42000209,0,0,0,0,0,0,0
9,167,448.568942025304,1,0,2196448.29973858,2196449.34679159,7,1,1,29,31,218758421,209969211,238449522,158075676,41511119,21601009,40201909,20610119,10711109,10510619,20210509,21500119,31901909,21900519,30711009,41110609,30901209,21911519,21811909,11011209,20511019,10100209,30400619,21410419,20311609,31511919,0,41700219,41212019,21801409,30101309,30700509,-3161001,21600719,41001119,40601519,0,21010809,0,0
9,168,440.841620322317,1,0,2196450.97035674,2196452.01741937,7,0,1,16,19,192526194,197058275,113114456,84012637,0,30201219,40400809,30101519,0,0,40301519,30810909,20710219,40210219,0,40210609,20001819,0,21401119,-3131171,30101819,42001519,0,0,30711419,0,21001909,0,30300519,31100609,0,10500809,0,0,0,0,0,0,31500709,42011119
9,169,528.873338364065,0,0,2196453.535091,2196454.58216519,7,0,0,1,9,75482257,73012038,103423147,21911709,-2170120,0,0,0,40601719,0,21700109,0,11010309,0,0,0,0,0,41910819,0,0,31101219,0,41211319,0,21301109,40910719,0,0,0,0,0,0,0,0,0,0,21911709,0,0
9,170,508.777991402894,0,0,2196456.32335401,2196457.37041933,7,1,0,10,9,122815176,2181200,64613847,43312128,20100419,0,30312019,40902019,0,0,0,0,31500719,-2181200,0,0,0,0,0,0,0,0,41100909,11511319,0,12001619,0,0,0,0,0,0,0,0,0,31910909,0,0,0,11401219
9,171,504.594620782882,0,0,2196459.07634766,2196460.12339643,7,0,0,6,3,3090121,63021518,21010409,0,0,0,0,0,0,-3090121,0,0,0,0,0,21610209,0,0,0,41411309,0,0,0,0,0,0,0,0,21010409,0,0,0,0,0,0,0,0,0,0,0
9,172,495.204652659595,1,0,2196461.80577284,2196462.85284009,7,0,1,28,3,0,0,52413438,24631210,0,0,0,0,0,0,0,0,0,0,0,0,0,0,0,0,0,0,0,31602019,0,0,20811419,0,0,0,0,-3120191,0,0,0,21511019,0,0,0,0
9,173,501.610788051039,0,0,2196464.42933799,2196465.47640332,7,1,0,34,3,41100319,21700219,10210019,4090101,0,0,0,0,0,0,0,41100319,0,0,0,0,0,0,0,0,21700219,0,0,10210019,0,0,0,0,0,0,0,0,0,0,0,0,0,-4090101,0,0
9,174,471.223509404808,1,0,2196467.11172557,2196468.15890022,7,1,1,23,9,94222237,0,16092210,123525365,31110609,41201609,0,0,21910019,0,0,0,0,0,0,0,0,0,0,0,0,0,0,0,0,0,-4091001,0,0,0,12001209,0,0,0,0,10601919,31500009,40011719,30511409,10900309
9,175,720.888016279787,1,0,2196469.69998249,2196470.74708169,7,1,1,32,31,227251651,189028422,208224193,197036703,40510819,11501909,31811909,20701119,40000419,11011119,20000719,31401919,20311719,0,41701409,21401909,30501119,11310509,20500019,11301319,41510819,10801319,0,11800309,21610109,0,41000209,11411019,40600019,40201109,41601419,31301219,30101119,42000419,40300009,-1021090,11400219,0,20111609,20801019
9,176,509.264966472983,1,0,2196472.47649186,2196473.52355834,7,1,1,11,19,73133556,126082586,157048503,103525656,40100919,0,11710609,0,10010509,0,0,0,11311519,0,-3050030,0,41910319,10301709,0,30010309,40810219,0,0,40500419,20901409,30110609,0,20911019,21911819,11011809,11701419,0,11900509,0,40511919,20111209,0,0,31002019,0
9,177,495.285494718701,0,0,2196475.22947011,2196476.27653621,7,0,0,8,3,1160000,0,0,82333537,0,0,0,0,0,0,0,-1160000,0,0,0,0,0,0,0,0,0,0,0,0,0,0,0,0,0,0,0,21910409,0,0,0,40211109,0,20212019,0,0
9,178,774.269782938063,0,0,2196477.81773435,2196478.86479813,7,0,0,12,19,105125865,127717055,186324775,103425866,0,10810809,11700419,10500919,31611809,0,0,40501909,0,40001819,11711509,-1180000,0,41411609,21900209,0,0,11511909,0,41201509,0,41601119,30510319,0,0,32000819,41011009,30201219,0,32000719,0,0,10911909,0,30312019,0
9,179,786.815660540015,1,0,2196480.74718294,2196481.7942498,7,1,1,31,3,0,31700109,0,46192549,0,0,0,0,0,0,0,0,0,0,0,0,0,0,31700109,0,0,0,0,0,0,0,0,0,0,0,0,0,0,0,-4081121,0,20411119,0,21700309,0
9,180,589.730661828071,0,0,2196483.75926147,2196484.80604693,7,0,0,13,9,84212147,44531250,30700309,135535366,0,0,41900709,0,11901219,0,0,30410219,0,0,0,40410209,-4121041,0,0,0,0,0,0,0,30700309,0,0,0,0,0,0,0,41711009,41611719,0,0,41610619,0,0,10602019
9,181,588.166180532426,0,0,2196486.53548136,2196487.58254129,7,0,0,18,31,268437202,170569282,125058323,149227322,41600819,30810709,20001909,42001319,41210409,30310019,31101609,31400409,0,11811919,30900019,10210909,30001919,21901009,11810909,31110809,20700709,-2121080,10311419,0,40311619,10511219,31000409,0,11411419,10810219,10702019,21200519,22010119,31401309,21901619,0,10401019,10500509,10710719,21101509
9,182,500.199136324227,0,0,2196489.2414039,2196490.28846654,7,1,0,3,19,165109424,93524765,82213627,95424546,30200619,10311409,-2160101,20801119,0,30000219,31112019,10412019,30111919,0,30311709,10200109,20400819,0,0,0,11702019,20910109,31501209,10400709,40311709,0,0,0,0,0,0,0,10610609,21911409,0,21501819,0,0,41400709,0
9,183,659.887872170657,0,0,2196516.05348175,2196517.10061329,8,1,0,29,31,218758421,209969211,238449522,158075676,41511119,21601009,40201909,20610119,10711109,10510619,20210509,21500119,31901909,21900519,30711009,41110609,30901209,21911519,21811909,11011209,20511019,10100209,30400619,21410419,20311609,31511919,0,41700219,41212019,21801409,30101309,30700509,-3161001,21600719,41001119,40601519,0,21010809,0,0
9,184,816.62703724578,1,0,2196518.82998919,2196519.87705876,8,1,1,2,9,95322227,104232837,54022038,42000209,0,-3190090,0,0,31310119,30111809,30710209,0,0,21211519,0,0,0,0,0,0,41711209,41310109,0,42010619,0,0,0,0,0,12011419,0,0,42000209,0,0,0,0,0,0,0
9,185,458.327317610383,1,0,2196521.81826867,2196522.86532168,8,1,1,10,9,122815176,2181200,64613847,43312128,20100419,0,30312019,40902019,0,0,0,0,31500719,-2181200,0,0,0,0,0,0,0,0,41100909,11511319,0,12001619,0,0,0,0,0,0,0,0,0,31910909,0,0,0,11401219
9,186,678.335586097091,0,0,2196524.52417967,2196525.57124615,8,1,0,31,3,0,31700109,0,46192549,0,0,0,0,0,0,0,0,0,0,0,0,0,0,31700109,0,0,0,0,0,0,0,0,0,0,0,0,0,0,0,-4081121,0,20411119,0,21700309,0
9,187,630.021831020713,0,0,2196527.32421632,2196528.37126201,8,0,0,6,9,23432879,42511028,41812018,103821646,0,0,0,0,0,-3131060,20301819,0,0,0,21810009,20701019,0,0,0,0,0,0,0,0,0,10300709,31511309,0,0,0,0,21510009,31710309,40200719,0,0,0,0,0,10400609
9,188,583.177471533418,1,0,2196530.03012655,2196531.07719111,8,0,1,18,19,126636474,146437615,92533437,135126065,20601309,11411619,0,30511319,0,0,21611209,31300209,11200809,20711219,21301509,40411709,0,0,40511119,0,21311019,-2191040,0,0,41311609,0,0,0,10010209,41211619,0,0,0,10001509,21311809,0,21310409,0,40601119,41901219
9,189,694.535128772259,1,0,2196532.80663554,2196533.85369586,8,0,1,31,0,0,0,0,0,0,0,0,0,0,0,0,0,0,0,0,0,0,0,0,0,0,0,0,0,0,0,0,0,0,0,0,0,0,0,-10710391,0,0,0,0,0
9,190,619.795728009194,1,0,2196535.7596141,2196536.80667095,8,0,1,4,3,23581440,40400219,30710309,0,0,0,0,-3171131,0,0,20410309,0,0,0,0,0,0,40400219,0,0,0,0,0,30710309,0,0,0,0,0,0,0,0,0,0,0,0,0,0,0,0
9,191,599.72193883732,0,0,2196538.46554126,2196539.51258965,8,1,0,24,3,0,0,108244058,0,0,0,0,0,0,0,0,0,0,0,0,0,0,0,0,0,0,0,31101619,0,41110319,0,0,-4031011,0,32001109,0,0,0,0,0,0,0,0,0,0
9,192,593.216868583113,0,0,2196541.30085496,2196542.34792183,8,1,0,11,19,73133556,126082586,157048503,103525656,40100919,0,11710609,0,10010509,0,0,0,11311519,0,-3050030,0,41910319,10301709,0,30010309,40810219,0,0,40500419,20901409,30110609,0,20911019,21911819,11011809,11701419,0,11900509,0,40511919,20111209,0,0,31002019,0
9,193,491.35080864653,1,0,2196543.9597041,2196545.00684334,8,0,1,8,9,47782308,74302647,83511737,11201609,0,0,0,21601209,22010009,0,0,-4171090,0,0,0,0,0,41701209,0,21100419,11501019,0,0,0,0,0,0,0,21701209,31310009,30500519,0,11201609,0,0,0,0,0,0,0
9,194,549.511095974594,1,0,2196546.66562357,2196547.71269159,8,0,1,36,3,0,0,41710619,35542218,0,0,0,0,0,0,0,0,0,0,0,0,0,0,0,0,0,0,0,0,41710619,0,0,0,0,0,0,0,0,0,0,21001009,11501119,0,0,-3040090
9,195,511.649030260742,1,0,2196549.32449426,2196550.37154304,8,1,1,23,9,94222237,0,16092210,123525365,31110609,41201609,0,0,21910019,0,0,0,0,0,0,0,0,0,0,0,0,0,0,0,0,0,-4091001,0,0,0,12001209,0,0,0,0,10601919,31500009,40011719,30511409,10900309
9,196,687.160816509277,1,0,2196552.05391598,2196553.1009867,8,1,1,32,31,227251651,189028422,208224193,197036703,40510819,11501909,31811909,20701119,40000419,11011119,20000719,31401919,20311719,0,41701409,21401909,30501119,11310509,20500019,11301319,41510819,10801319,0,11800309,21610109,0,41000209,11411019,40600019,40201109,41601419,31301219,30101119,42000419,40300009,-1021090,11400219,0,20111609,20801019
9,197,1125.30605914071,0,0,2196554.85402385,2196555.90101873,8,1,0,3,19,165109424,93524765,82213627,95424546,30200619,10311409,-2160101,20801119,0,30000219,31112019,10412019,30111919,0,30311709,10200109,20400819,0,0,0,11702019,20910109,31501209,10400709,40311709,0,0,0,0,0,0,0,10610609,21911409,0,21501819,0,0,41400709,0
9,198,640.136680100113,0,0,2196558.1010506,2196559.14812286,8,1,0,20,19,174335674,73210637,137627406,84335465,20710009,0,41610509,0,0,30000709,30001609,12011219,40001619,0,0,0,0,40800009,0,21610009,10800619,0,0,-1101131,11102019,0,0,20610909,41400509,41911819,21501019,0,0,11110309,11400919,0,11201819,30410409,0,20212009
9,199,555.842163506895,0,0,2196560.94814526,2196561.9952179,8,0,0,1,3,3191141,31001019,0,63311318,-3191141,0,0,0,0,0,0,0,0,0,0,0,0,0,31001019,0,0,0,0,0,0,0,0,0,0,0,0,0,42000509,0,0,0,0,21310809,0,0
9,200,508.988564833999,1,0,2196563.60700287,2196564.65407281,8,1,1,17,31,209951621,210319933,199430541,136826704,30300609,11501609,42011919,21411809,11301619,10811519,42001219,10511309,30100009,31101909,41611809,20801809,11310419,0,40410809,41300519,-2081150,21701509,31600519,21701609,20711319,10901809,41801919,10601009,21100519,10411219,30600619,21601019,11210419,41802009,0,0,11401119,10501419,0,40310719
9,201,698.076384607702,1,0,2196566.21879977,2196567.26586625,8,0,1,33,31,214457592,226414703,255650602,272646772,0,10010419,30310319,40500009,40101009,11811909,30011409,11301309,40411209,40401119,0,0,21900309,30900319,40900709,41600109,20410419,30301719,30711709,10301709,0,41602009,41510019,40410709,40510709,10401919,40201819,31700319,30901609,12001709,41210219,40900619,-2200050,41611019,41010009,31111219
9,202,521.610664669424,0,0,2196569.10118957,2196570.14825182,8,0,0,28,31,231926022,188450302,181338941,108615315,31900109,21200619,0,41701609,41310219,41610509,31901419,11200119,11101419,40511719,31900709,20411609,0,10110809,11700719,41501009,21002019,11311709,22000519,21211509,21401119,21700509,10900419,20901419,11511519,21201719,30510209,-4101121,10200319,0,21401319,0,10811419,30800109,10400809,20900219
9,203,817.527460865676,1,0,2196571.79533385,2196572.84240072,8,0,1,13,31,211359812,171177692,210915822,147157913,31100619,0,30611119,21611809,42001809,10610609,22011319,22011219,31401309,22011709,21400109,20010319,-3011080,30800319,10810919,20811209,21011409,21310619,21401219,21000809,32000819,20601119,31000109,11510619,41900709,0,31500419,30411709,31811119,11310819,10911619,31701119,0,10100219,20911309,0
9,204,569.396253675222,0,0,2196574.84245115,2196575.88950223,8,1,0,34,3,41100319,21700219,10210019,4090101,0,0,0,0,0,0,0,41100319,0,0,0,0,0,0,0,0,21700219,0,0,10210019,0,0,0,0,0,0,0,0,0,0,0,0,0,-4090101,0,0
9,205,634.800351690501,0,0,2196577.51303659,2196578.56014003,8,0,0,30,19,146545975,168427084,145028294,51383239,21210809,0,0,41511719,20501419,31910809,0,31411219,0,0,11510709,11702019,41410809,20600119,41701609,41501819,0,0,41011819,0,30500009,20701319,0,30902019,11801509,10111619,0,0,0,-1170121,10001509,0,40211609,0,0,0
9,206,773.459440097213,1,0,2196580.34838802,2196581.39544411,8,0,1,12,19,125742955,116897435,74422146,94315856,0,31010609,10511709,31810009,0,0,0,21900509,30510119,21411019,10001809,-3150051,0,20601819,0,10510909,20310119,30911709,11900119,0,0,10501309,11310409,40710309,0,0,0,41200719,20311709,11901909,0,0,0,20901519,0,0
9,207,491.511336993426,0,0,2196583.20724093,2196584.25430895,8,0,0,16,9,52002218,105403597,30600009,103524147,0,0,0,0,0,0,31001309,21000909,0,0,0,0,32011219,31411019,0,-1081050,40900309,0,30600009,0,0,0,0,0,0,0,0,0,41501509,0,0,41011519,21011119,0,0,0
9,208,594.078026246279,0,0,2196585.83080377,2196586.87791799,8,1,0,22,0,0,0,0,0,0,0,0,0,0,0,0,0,0,0,0,0,0,0,0,0,0,0,0,0,0,-40901901,0,0,0,0,0,0,0,0,0,0,0,0,0,0
9,209,789.635499473661,0,0,2196610.78403025,2196611.83110597,9,1,0,3,19,165109424,93524765,82213627,95424546,30200619,10311409,-2160101,20801119,0,30000219,31112019,10412019,30111919,0,30311709,10200109,20400819,0,0,0,11702019,20910109,31501209,10400709,40311709,0,0,0,0,0,0,0,10610609,21911409,0,21501819,0,0,41400709,0
9,210,635.329287964851,0,0,2196613.83120606,2196614.87820324,9,1,0,2,9,95322227,104232837,54022038,42000209,0,-3190090,0,0,31310119,30111809,30710209,0,0,21211519,0,0,0,0,0,0,41711209,41310109,0,42010619,0,0,0,0,0,12011419,0,0,42000209,0,0,0,0,0,0,0
9,211,500.926712527871,1,0,2196616.56058581,2196617.60764806,9,0,1,6,19,104222626,84224446,83933165,194525884,0,30311709,0,11010409,0,-2100180,0,40600009,20200319,0,0,0,0,30510409,21511119,20600909,11602009,0,0,30800019,0,11510919,20510809,0,10810909,10300509,0,0,30100419,0,20110619,42001309,40201109,32012019,0,30100409
9,212,605.982943903655,0,0,2196619.2194388,2196620.26650182,9,0,0,18,9,94912576,56113668,33302628,20911209,21411419,11100819,0,21700319,0,0,40700019,0,0,0,21700619,31401909,0,0,0,0,0,-3011140,0,0,0,21501219,0,0,0,0,11801409,0,0,0,20911209,0,0,0,0,0
9,213,518.636071588844,1,0,2196621.99594471,2196623.0430058,9,1,1,17,31,209951621,210319933,199430541,136826704,30300609,11501609,42011919,21411809,11301619,10811519,42001219,10511309,30100009,31101909,41611809,20801809,11310419,0,40410809,41300519,-2081150,21701509,31600519,21701609,20711319,10901809,41801919,10601009,21100519,10411219,30600619,21601019,11210419,41802009,0,0,11401119,10501419,0,40310719
9,214,805.816948413849,1,0,2196624.77244561,2196625.81955175,9,0,1,36,19,103934065,105124875,94024546,178837165,11301319,0,0,40510509,0,21800109,10211219,0,20110909,30010719,11801509,0,11900119,20301219,0,0,31111309,0,0,41410209,20401009,0,0,21311719,0,10901609,0,0,41210219,40801309,0,40201309,0,21611419,31911809,-3101100
9,215,447.747820522636,0,0,2196627.76070046,2196628.80778234,9,0,0,28,31,118343773,200270132,208865122,175868662,11100609,10410709,0,21910509,11910109,11800109,0,20901019,30310709,30811009,31711019,21711019,21700419,20311819,21411609,0,30811519,21801719,30410819,20811709,12001219,0,31610019,11410209,40300509,40310319,22010319,-1091060,40111109,10000509,10911819,20111819,10010609,41510009,11910009,30211719
9,216,674.748519901186,0,0,2196630.27839211,2196631.32550671,9,0,0,12,31,287050021,136716124,153844603,278349321,31001809,10101719,30110719,41311509,41410019,41201009,31511509,20401009,40000719,0,10311019,-1190130,30600119,11600709,40110519,0,12001909,30901719,30900709,0,30210909,30700419,0,10610619,20710219,20001109,10710619,41111119,30800409,30300709,21100609,21311219,10911319,40611919,41200509,41001509
9,217,731.302749831229,0,0,2196633.10195757,2196634.14902521,9,0,0,1,3,4140071,31310409,0,31121528,-4140071,0,0,0,0,0,0,0,0,0,0,0,0,0,31310409,0,0,0,0,0,0,0,0,0,0,0,0,0,20311209,0,0,0,0,10810319,0,0
9,218,537.781334947795,1,0,2196636.01963713,2196637.06670592,9,0,1,8,9,41181049,32910228,32912818,123424966,0,40001019,0,0,0,0,0,-1180030,0,0,0,21210109,0,0,0,11700119,0,0,0,11801409,0,0,0,0,0,0,21111409,30101709,0,0,0,0,31501219,21110519,40711519,0
9,219,523.678675293922,0,0,2196638.72553966,2196639.77263656,9,1,0,29,31,218758421,209969211,238449522,158075676,41511119,21601009,40201909,20610119,10711109,10510619,20210509,21500119,31901909,21900519,30711009,41110609,30901209,21911519,21811909,11011209,20511019,10100209,30400619,21410419,20311609,31511919,0,41700219,41212019,21801409,30101309,30700509,-3161001,21600719,41001119,40601519,0,21010809,0,0
9,220,681.985016446561,0,0,2196641.39617669,2196642.44323201,9,1,0,34,3,41100319,21700219,10210019,4090101,0,0,0,0,0,0,0,41100319,0,0,0,0,0,0,0,0,21700219,0,0,10210019,0,0,0,0,0,0,0,0,0,0,0,0,0,-4090101,0,0
9,221,468.734737019986,0,0,2196644.1844805,2196645.23149924,9,0,0,16,31,257336793,200216564,238549512,170336821,41200519,0,0,41112009,30701009,41701219,30510609,31800309,40311119,21100309,21910509,0,30310319,30100209,21701309,-3071181,41810909,30211819,30111419,10911619,31100509,31311509,40610509,0,21100819,41901309,31501819,11300019,21910909,30710009,31600219,20811909,10800509,11801909,10000119,21401219
9,222,692.615328356624,0,0,2196646.72565169,2196647.77272086,9,0,0,4,9,23671659,62322328,82900338,105614166,0,0,0,-2071140,0,0,0,0,21600519,0,31211109,0,0,0,0,0,31111219,0,0,0,0,0,0,42000319,0,40900019,0,0,21501319,0,0,0,0,31912009,10900419,41300419
9,223,594.461447093636,0,0,2196649.63157031,2196650.67862408,9,1,0,20,19,174335674,73210637,137627406,84335465,20710009,0,41610509,0,0,30000709,30001609,12011219,40001619,0,0,0,0,40800009,0,21610009,10800619,0,0,-1101131,11102019,0,0,20610909,41400509,41911819,21501019,0,0,11110309,11400919,0,11201819,30410409,0,20212009
9,224,611.581430770457,0,0,2196652.38453816,2196653.43160926,9,0,0,30,3,0,0,62210438,46120069,0,0,0,0,0,0,0,0,0,0,0,0,0,0,0,0,0,0,0,0,0,0,40300419,21910019,0,0,0,0,42000019,-4120050,0,0,0,0,0,0
9,225,692.128352355212,1,0,2196655.16104523,2196656.20810055,9,1,1,31,3,0,31700109,0,46192549,0,0,0,0,0,0,0,0,0,0,0,0,0,0,31700109,0,0,0,0,0,0,0,0,0,0,0,0,0,0,0,-4081121,0,20411119,0,21700309,0
9,226,552.527264691889,1,0,2196658.0904892,2196659.13755683,9,1,1,10,9,122815176,2181200,64613847,43312128,20100419,0,30312019,40902019,0,0,0,0,31500719,-2181200,0,0,0,0,0,0,0,0,41100909,11511319,0,12001619,0,0,0,0,0,0,0,0,0,31910909,0,0,0,11401219
9,227,542.337348219007,1,0,2196660.73757893,2196661.78464695,9,0,1,36,0,0,0,0,0,0,0,0,0,0,0,0,0,0,0,0,0,0,0,0,0,0,0,0,0,0,0,0,0,0,0,0,0,0,0,0,0,0,0,0,-11111801
9,228,541.501597966999,1,0,2196663.49054486,2196664.53762135,9,1,1,23,9,94222237,0,16092210,123525365,31110609,41201609,0,0,21910019,0,0,0,0,0,0,0,0,0,0,0,0,0,0,0,0,0,-4091001,0,0,0,12001209,0,0,0,0,10601919,31500009,40011719,30511409,10900309
9,229,586.271787527949,1,0,2196666.1376446,2196667.18471378,9,1,1,24,3,0,0,108244058,0,0,0,0,0,0,0,0,0,0,0,0,0,0,0,0,0,0,0,31101619,0,41110319,0,0,-4031011,0,32001109,0,0,0,0,0,0,0,0,0,0
9,230,710.765467956662,1,0,2196668.86713485,2196669.91416283,9,1,1,32,31,227251651,189028422,208224193,197036703,40510819,11501909,31811909,20701119,40000419,11011119,20000719,31401919,20311719,0,41701409,21401909,30501119,11310509,20500019,11301319,41510819,10801319,0,11800309,21610109,0,41000209,11411019,40600019,40201109,41601419,31301219,30101119,42000419,40300009,-1021090,11400219,0,20111609,20801019
9,231,495.080695487559,1,0,2196671.77300573,2196672.82008415,9,1,1,11,19,73133556,126082586,157048503,103525656,40100919,0,11710609,0,10010509,0,0,0,11311519,0,-3050030,0,41910319,10301709,0,30010309,40810219,0,0,40500419,20901409,30110609,0,20911019,21911819,11011809,11701419,0,11900509,0,40511919,20111209,0,0,31002019,0
9,232,931.781564373523,1,0,2196674.42010124,2196675.46716464,9,0,1,13,19,113832856,135665617,187064993,74325456,21500519,0,40911319,0,10610609,0,0,0,40810409,0,10501709,0,-3150171,40300809,0,40801619,0,40911309,11210319,30710409,0,20201609,30810109,21511419,0,31010609,41610519,30911909,0,21100919,0,11201009,0,0,0,11111619
9,233,557.362759485841,0,0,2196677.60837294,2196678.65543558,9,1,0,22,0,0,0,0,0,0,0,0,0,0,0,0,0,0,0,0,0,0,0,0,0,0,0,0,0,0,-40901901,0,0,0,0,0,0,0,0,0,0,0,0,0,0
9,234,628.686786163598,1,0,2196680.37313947,2196681.42018016,9,0,1,33,3,40810119,0,21511209,21851139,0,0,0,0,40810119,0,0,0,0,0,0,0,0,0,0,0,0,0,21511209,0,0,0,0,0,0,0,0,0,0,0,0,0,-1051020,0,20800119,0
9,235,561.218528077006,1,0,2196703.77338492,2196704.82046064,10,0,1,13,31,118754492,197200034,239838202,176050622,11500819,10510309,20510319,12011009,20900709,22010309,11000409,0,10310609,40711719,30312019,11311809,-1020131,41011709,0,30311919,11610519,30910209,41300019,31900609,0,20001009,21011819,41011609,31610719,41801009,11201409,0,31201009,40601419,10511719,11411209,30711719,10300219,11211919,30101409
9,236,566.428204998374,0,0,2196706.4910711,2196707.53813489,10,1,0,11,19,73133556,126082586,157048503,103525656,40100919,0,11710609,0,10010509,0,0,0,11311519,0,-3050030,0,41910319,10301709,0,30010309,40810219,0,0,40500419,20901409,30110609,0,20911019,21911819,11011809,11701419,0,11900509,0,40511919,20111209,0,0,31002019,0
9,237,550.205565057695,1,0,2196709.18521885,2196710.23228918,10,1,1,2,9,95322227,104232837,54022038,42000209,0,-3190090,0,0,31310119,30111809,30710209,0,0,21211519,0,0,0,0,0,0,41711209,41310109,0,42010619,0,0,0,0,0,12011419,0,0,42000209,0,0,0,0,0,0,0
9,238,671.07175802812,0,0,2196711.87936814,2196712.92662633,10,0,0,6,31,186835874,188859531,228137783,201419132,20300209,20610719,31800819,21011909,40000619,-2090171,0,11010319,40011109,10011119,31101219,31301509,10110509,20701319,21600009,31111019,21111109,11811719,0,20500209,41510209,41211419,30802009,20411709,41701209,32001019,0,31601619,0,21200909,41601219,11300419,21911519,31201609,20901819,21700019
9,239,519.948018714786,1,0,2196714.72646434,2196715.77352735,10,1,1,22,0,0,0,0,0,0,0,0,0,0,0,0,0,0,0,0,0,0,0,0,0,0,0,0,0,0,-40901901,0,0,0,0,0,0,0,0,0,0,0,0,0,0
9,240,540.866412222385,0,0,2196717.42064558,2196718.46768319,10,0,0,4,9,24781620,40300109,114706565,82811418,0,0,0,-3171111,0,0,21610509,0,0,0,0,0,0,0,40300109,0,0,0,0,21901719,40100609,30401709,11100509,11202019,0,0,0,0,0,41210509,41600909,0,0,0,0,0
9,241,438.659662380815,1,0,2196720.06774724,2196721.11477446,10,1,1,17,31,209951621,210319933,199430541,136826704,30300609,11501609,42011919,21411809,11301619,10811519,42001219,10511309,30100009,31101909,41611809,20801809,11310419,0,40410809,41300519,-2081150,21701509,31600519,21701609,20711319,10901809,41801919,10601009,21100519,10411219,30600619,21601019,11210419,41802009,0,0,11401119,10501419,0,40310719
9,242,732.07190213725,1,0,2196722.6442336,2196723.69127198,10,1,1,34,3,41100319,21700219,10210019,4090101,0,0,0,0,0,0,0,41100319,0,0,0,0,0,0,0,0,21700219,0,0,10210019,0,0,0,0,0,0,0,0,0,0,0,0,0,-4090101,0,0
9,243,959.36940703541,0,0,2196725.55012489,2196726.59718482,10,0,0,36,19,165435965,84433256,95224985,128005245,31810509,0,0,0,11011819,40701909,40111709,41800019,0,21210909,21210509,10300519,31711319,0,0,0,0,0,40400709,11100819,0,0,22000819,0,11311119,10411519,0,0,31110519,0,0,11410519,40100909,11402009,31901119,-2080170
9,244,629.577586427331,1,0,2196728.71486277,2196729.76193387,10,1,1,31,3,0,31700109,0,46192549,0,0,0,0,0,0,0,0,0,0,0,0,0,0,31700109,0,0,0,0,0,0,0,0,0,0,0,0,0,0,0,-4081121,0,20411119,0,21700309,0
9,245,514.049261808395,1,0,2196731.53847635,2196732.58550126,10,1,1,10,9,122815176,2181200,64613847,43312128,20100419,0,30312019,40902019,0,0,0,0,31500719,-2181200,0,0,0,0,0,0,0,0,41100909,11511319,0,12001619,0,0,0,0,0,0,0,0,0,31910909,0,0,0,11401219
9,246,617.389337159693,0,0,2196734.16198415,2196735.2090591,10,1,0,32,31,227251651,189028422,208224193,197036703,40510819,11501909,31811909,20701119,40000419,11011119,20000719,31401919,20311719,0,41701409,21401909,30501119,11310509,20500019,11301319,41510819,10801319,0,11800309,21610109,0,41000209,11411019,40600019,40201109,41601419,31301219,30101119,42000419,40300009,-1021090,11400219,0,20111609,20801019
9,247,746.73968506977,0,0,2196736.97386181,2196738.02085399,10,1,0,3,19,165109424,93524765,82213627,95424546,30200619,10311409,-2160101,20801119,0,30000219,31112019,10412019,30111919,0,30311709,10200109,20400819,0,0,0,11702019,20910109,31501209,10400709,40311709,0,0,0,0,0,0,0,10610609,21911409,0,21501819,0,0,41400709,0
9,248,860.309327486902,0,0,2196739.8208841,2196740.86794558,10,0,0,1,9,118483947,31110909,63922847,31710519,-4160101,0,21211809,0,42001709,30510319,20600009,0,0,0,0,0,0,0,31110909,0,0,0,0,0,30711319,0,0,11301519,0,21910009,0,0,31710519,0,0,0,0,0,0,0
9,249,756.831051316112,1,0,2196742.89156447,2196743.9385709,10,0,1,18,19,114525995,65625367,126605394,112616556,30901519,0,10811919,11700319,21101019,0,0,0,40011219,0,0,11210609,31501719,0,10111809,0,10801209,-2000021,10500109,0,0,11101719,31900619,20800609,30802019,21500319,0,0,20202009,0,0,0,40111919,0,31001109,21301519
9,250,547.877321019769,0,0,2196745.70330586,2196746.75035425,10,0,0,30,3,31200409,30912019,0,25850389,0,0,31200409,0,0,0,0,0,0,0,0,0,0,0,0,0,30912019,0,0,0,0,0,0,0,0,0,0,0,0,-4140070,0,0,21710319,0,0,0
9,251,598.368030972779,0,0,2196748.3856865,2196749.43275183,10,0,0,25,0,0,0,0,0,0,0,0,0,0,0,0,0,0,0,0,0,0,0,0,0,0,0,0,0,0,0,0,0,-30701701,0,0,0,0,0,0,0,0,0,0,0
9,252,502.388024237007,1,0,2196751.07985658,2196752.12690304,10,0,1,16,31,186067212,180498954,228955792,210318902,10211109,20700419,30500209,31410619,10811909,41510619,20311719,20610609,0,20711919,41700209,41211019,20801519,10810519,31201919,-2050041,0,12011809,21302009,41110809,41400509,21010219,21510109,0,31800419,20611409,30210309,40401909,30801919,11600719,0,21100009,41500819,11701609,21501209,31710709
9,253,665.248838718981,0,0,2196753.6798729,2196754.72693284,10,1,0,24,3,0,0,108244058,0,0,0,0,0,0,0,0,0,0,0,0,0,0,0,0,0,0,0,31101619,0,41110319,0,0,-4031011,0,32001109,0,0,0,0,0,0,0,0,0,0
9,254,464.155241847038,1,0,2196756.42107558,2196757.46814052,10,0,1,28,3,21810009,11200509,0,43030469,0,0,0,0,21810009,0,0,0,0,0,0,11200509,0,0,0,0,0,0,0,0,0,0,0,0,0,0,0,-2120050,0,40910419,0,0,0,0,0,0
9,255,887.570337858051,1,0,2196759.10345468,2196760.15052848,10,0,1,8,9,57356318,52201928,53114037,20111019,0,30901809,11801509,0,0,0,10501909,-4151091,0,31400009,0,0,0,0,20801919,0,0,0,0,20610409,0,0,0,21201909,11301719,0,0,0,0,0,0,0,0,20111019,0,0
9,256,745.932806283236,1,0,2196762.11532187,2196763.16233331,10,0,1,12,3,112932237,2040200,0,0,0,41610309,40111719,31210209,0,0,0,0,0,0,0,-2040200,0,0,0,0,0,0,0,0,0,0,0,0,0,0,0,0,0,0,0,0,0,0,0,0
9,257,492.424079682678,0,0,2196764.95058707,2196765.99765394,10,1,0,23,9,94222237,0,16092210,123525365,31110609,41201609,0,0,21910019,0,0,0,0,0,0,0,0,0,0,0,0,0,0,0,0,0,-4091001,0,0,0,12001209,0,0,0,0,10601919,31500009,40011719,30511409,10900309
9,258,561.076092999429,0,0,2196767.49180792,2196768.53888172,10,1,0,29,31,218758421,209969211,238449522,158075676,41511119,21601009,40201909,20610119,10711109,10510619,20210509,21500119,31901909,21900519,30711009,41110609,30901209,21911519,21811909,11011209,20511019,10100209,30400619,21410419,20311609,31511919,0,41700219,41212019,21801409,30101309,30700509,-3161001,21600719,41001119,40601519,0,21010809,0,0
9,259,584.108692128211,0,0,2196770.19771276,2196771.24477655,10,0,0,33,19,83524727,173942065,104435095,167184825,0,10701309,41011909,0,0,0,31811509,0,0,40700819,31010509,40210009,0,21110409,0,0,0,40910319,0,10110219,30911519,0,0,31011919,0,10401119,22000319,31210219,40812009,31910309,0,10410409,-1041041,0,41200119,10600719
9,260,462.344385217875,1,0,2196773.00952921,2196774.05657837,10,1,1,20,19,174335674,73210637,137627406,84335465,20710009,0,41610509,0,0,30000709,30001609,12011219,40001619,0,0,0,0,40800009,0,21610009,10800619,0,0,-1101131,11102019,0,0,20610909,41400509,41911819,21501019,0,0,11110309,11400919,0,11201819,30410409,0,20212009
9,261,716.825138311833,0,0,2196794.5980071,2196795.64506511,11,1,0,17,31,209951621,210319933,199430541,136826704,30300609,11501609,42011919,21411809,11301619,10811519,42001219,10511309,30100009,31101909,41611809,20801809,11310419,0,40410809,41300519,-2081150,21701509,31600519,21701609,20711319,10901809,41801919,10601009,21100519,10411219,30600619,21601019,11210419,41802009,0,0,11401119,10501419,0,40310719
9,262,622.87580082193,0,0,2196797.56273967,2196798.60984311,11,1,0,34,3,41100319,21700219,10210019,4090101,0,0,0,0,0,0,0,41100319,0,0,0,0,0,0,0,0,21700219,0,0,10210019,0,0,0,0,0,0,0,0,0,0,0,0,0,-4090101,0,0
9,263,494.353503920138,0,0,2196800.28044356,2196801.3274985,11,0,0,28,9,61822918,71421957,82112628,76332279,0,0,0,0,0,0,31710909,0,30112009,0,0,0,0,0,30210319,21210119,0,20001519,0,40801009,41311619,0,0,0,0,0,0,-4121151,0,0,41110919,0,0,31100209,0,0
9,264,439.371069893241,1,0,2196802.89222006,2196803.93928192,11,1,1,22,0,0,0,0,0,0,0,0,0,0,0,0,0,0,0,0,0,0,0,0,0,0,0,0,0,0,-40901901,0,0,0,0,0,0,0,0,0,0,0,0,0,0
9,265,564.454125240445,1,0,2196805.53930671,2196806.58637319,11,1,1,29,31,218758421,209969211,238449522,158075676,41511119,21601009,40201909,20610119,10711109,10510619,20210509,21500119,31901909,21900519,30711009,41110609,30901209,21911519,21811909,11011209,20511019,10100209,30400619,21410419,20311609,31511919,0,41700219,41212019,21801409,30101309,30700509,-3161001,21600719,41001119,40601519,0,21010809,0,0
9,266,652.638672385365,1,0,2196808.20992719,2196809.25699752,11,1,1,20,19,174335674,73210637,137627406,84335465,20710009,0,41610509,0,0,30000709,30001609,12011219,40001619,0,0,0,0,40800009,0,21610009,10800619,0,0,-1101131,11102019,0,0,20610909,41400509,41911819,21501019,0,0,11110309,11400919,0,11201819,30410409,0,20212009
9,267,515.583716332912,1,0,2196810.95113872,2196811.99822984,11,0,1,18,19,203355903,86563838,143823756,114725075,40111119,41510809,30611609,40301319,10110219,0,0,20500109,20210719,40510409,11011319,30900919,0,0,0,0,0,-4141191,0,0,40511009,0,41500919,0,0,41500109,20311719,0,20201419,0,30501619,11011319,21800309,31210409,0,0
9,268,529.416518285871,0,0,2196813.64528493,2196814.69235526,11,0,0,4,31,222040043,289149241,167837383,156139183,41201719,21711009,41510909,-3091141,10012019,31101009,20300119,31601309,21510809,30812019,41510609,30000309,30011019,30100019,32001609,32010519,30801719,31901419,40000919,31311809,11810109,0,30800909,31911109,10800809,11201719,0,10511609,10000519,20601209,0,31601819,31701209,40911109,0,10811709
9,269,555.749773047864,0,0,2196816.42179314,2196817.46885578,11,1,0,24,3,0,0,108244058,0,0,0,0,0,0,0,0,0,0,0,0,0,0,0,0,0,0,0,31101619,0,41110319,0,0,-4031011,0,32001109,0,0,0,0,0,0,0,0,0,0
9,270,604.250234551728,0,0,2196819.10417725,2196820.15124451,11,0,0,33,31,185775802,196639512,177635893,188230293,22010219,20010319,30310209,10810609,11710219,40211409,20711309,30001509,0,0,20100219,10010919,30901309,21411109,41300809,30512019,30901409,11501719,30701319,30000209,0,20510009,11901009,0,41301219,11210909,32011219,21610719,20311709,11111309,30501319,20200709,-1071181,30701019,21211519,31510809
9,271,792.652053758502,0,0,2196821.88068162,2196822.9277431,11,1,0,31,3,0,31700109,0,46192549,0,0,0,0,0,0,0,0,0,0,0,0,0,0,31700109,0,0,0,0,0,0,0,0,0,0,0,0,0,0,0,-4081121,0,20411119,0,21700309,0
9,272,437.833920586854,1,0,2196824.78659486,2196825.83366288,11,0,1,16,3,10111609,35112420,20111509,0,0,0,0,0,0,10111609,0,0,0,0,0,31911409,0,0,0,-3201011,0,0,0,0,0,20111509,0,0,0,0,0,0,0,0,0,0,0,0,0,0
9,273,546.493771485984,1,0,2196827.31603436,2196828.36310508,11,0,1,1,3,42641309,21801809,10910609,0,-1141200,0,0,41500109,0,0,0,0,0,0,0,0,0,0,0,0,21801809,0,0,0,10910609,0,0,0,0,0,0,0,0,0,0,0,0,0,0,0
9,274,627.990777138621,1,0,2196830.05724743,2196831.10431738,11,1,1,32,31,227251651,189028422,208224193,197036703,40510819,11501909,31811909,20701119,40000419,11011119,20000719,31401919,20311719,0,41701409,21401909,30501119,11310509,20500019,11301319,41510819,10801319,0,11800309,21610109,0,41000209,11411019,40600019,40201109,41601419,31301219,30101119,42000419,40300009,-1021090,11400219,0,20111609,20801019
9,275,525.423318147659,1,0,2196832.92787283,2196833.97493393,11,0,1,13,19,92603936,107893606,115037665,136035274,0,0,41601309,20000209,20601809,10400609,0,0,0,0,0,21201419,-3080050,0,10901109,31701019,0,41010009,30301319,21301409,0,0,0,0,20611709,31011319,11811909,0,41500409,0,10310009,31802009,20501919,21510219,10410709,0
9,276,584.116776008159,0,0,2196835.56319162,2196836.61026041,11,0,0,8,3,31660699,0,0,51611518,0,0,0,30610519,0,0,0,-1050180,0,0,0,0,0,0,0,0,0,0,0,0,0,0,0,0,0,0,0,0,0,0,0,30411009,0,21200509,0,0
9,277,532.339911907911,1,0,2196838.28087126,2196839.32794621,11,0,1,19,0,0,0,0,0,0,0,0,0,0,0,0,0,0,0,0,0,0,0,0,0,0,0,-30009991,0,0,0,0,0,0,0,0,0,0,0,0,0,0,0,0,0
9,278,840.560209471732,0,0,2196840.97502285,2196842.02188362,11,0,0,6,31,230068613,210155923,296678401,176149693,21811309,30010009,11311719,40000709,20210919,-4091201,40510719,40210109,21911919,31500119,0,41911119,11901019,31811809,0,20410919,31810319,40810619,40511119,40210709,41401409,21510809,21210509,30711209,30810609,40211209,30100819,0,41311719,0,20001919,40501909,12011309,30311019,10901609,21110209
9,279,670.98990175873,0,0,2196843.89270318,2196844.93957243,11,1,0,11,19,73133556,126082586,157048503,103525656,40100919,0,11710609,0,10010509,0,0,0,11311519,0,-3050030,0,41910319,10301709,0,30010309,40810219,0,0,40500419,20901409,30110609,0,20911019,21911819,11011809,11701419,0,11900509,0,40511919,20111209,0,0,31002019,0
9,280,544.493514578789,0,0,2196846.79862912,2196847.84569329,11,1,0,3,19,165109424,93524765,82213627,95424546,30200619,10311409,-2160101,20801119,0,30000219,31112019,10412019,30111919,0,30311709,10200109,20400819,0,0,0,11702019,20910109,31501209,10400709,40311709,0,0,0,0,0,0,0,10610609,21911409,0,21501819,0,0,41400709,0
9,281,470.068626571447,1,0,2196849.42219196,2196850.46925306,11,1,1,23,9,94222237,0,16092210,123525365,31110609,41201609,0,0,21910019,0,0,0,0,0,0,0,0,0,0,0,0,0,0,0,0,0,-4091001,0,0,0,12001209,0,0,0,0,10601919,31500009,40011719,30511409,10900309
9,282,598.383044358343,0,0,2196851.99868679,2196853.04575211,11,0,0,12,9,21912009,54382658,83514357,83814237,21912009,0,0,0,0,0,0,0,0,0,40501409,-2180030,11701219,0,0,0,0,0,31501519,0,0,40911219,0,0,0,0,11101619,0,0,41501509,10710809,31601919,0,0,0,0
9,283,473.308073356748,0,0,2196854.75165618,2196855.79872844,11,1,0,10,9,122815176,2181200,64613847,43312128,20100419,0,30312019,40902019,0,0,0,0,31500719,-2181200,0,0,0,0,0,0,0,0,41100909,11511319,0,12001619,0,0,0,0,0,0,0,0,0,31910909,0,0,0,11401219
9,284,694.175960030407,1,0,2196857.44580893,2196858.49287311,11,0,1,30,9,81402628,82010428,63922338,102612877,0,0,0,0,41102009,0,0,0,40300619,0,0,0,0,0,40800319,0,0,41210109,0,0,0,0,22010419,0,0,0,41911919,0,20011019,-2080120,40110919,0,0,40410819,0,0
9,285,504.569983109832,1,0,2196860.26936593,2196861.31643857,11,1,1,2,9,95322227,104232837,54022038,42000209,0,-3190090,0,0,31310119,30111809,30710209,0,0,21211519,0,0,0,0,0,0,41711209,41310109,0,42010619,0,0,0,0,0,12011419,0,0,42000209,0,0,0,0,0,0,0
9,286,791.317779105157,1,0,2196862.95175928,2196863.99882114,11,0,1,36,19,52002618,238525092,141616145,98535246,0,20701409,0,0,0,0,31301209,0,0,40400219,31201109,21700009,31800609,30010509,0,20101509,22000309,41310819,20001309,0,30011109,31001309,0,20300709,0,40301709,0,0,30510309,41410219,0,11611619,0,11901909,0,-3101190
9,287,675.933045335114,1,0,2196888.65794629,2196889.70507244,12,0,1,33,19,175425474,149034184,112531946,78274388,12001909,21101309,40300619,31200609,0,40110919,0,30710109,0,21400509,32010209,31910719,10300819,41601019,0,0,11810909,0,31510109,20100009,0,30410919,0,0,0,0,30510909,40811509,0,11512019,0,0,-4050051,0,0,21900809
9,288,1101.49622382596,0,0,2196891.54033417,2196892.58739835,12,0,0,6,31,199017694,256250121,176847903,229338922,31200719,0,21411819,10410209,31010509,-1051191,41010019,31711719,31211509,20411309,30901119,20011009,40410809,10600609,41900119,30301709,20301419,41412019,0,21701719,11011209,40211019,0,10911119,21100619,30110509,41801709,0,20801619,41611109,11001319,40311819,11000619,41101409,31600419,31910609
9,289,631.938936654478,0,0,2196894.76390795,2196895.8109752,12,0,0,28,3,0,31402009,0,86001748,0,0,0,0,0,0,0,0,0,0,0,0,0,31402009,0,0,0,0,0,0,0,0,0,0,0,0,0,-2101110,42000119,0,0,41900519,0,0,0,0
9,290,446.72690378502,1,0,2196897.51688543,2196898.56398733,12,1,1,11,19,73133556,126082586,157048503,103525656,40100919,0,11710609,0,10010509,0,0,0,11311519,0,-3050030,0,41910319,10301709,0,30010309,40810219,0,0,40500419,20901409,30110609,0,20911019,21911819,11011809,11701419,0,11900509,0,40511919,20111209,0,0,31002019,0
9,291,574.708330444992,1,0,2196900.11695603,2196901.1639717,12,1,1,17,31,209951621,210319933,199430541,136826704,30300609,11501609,42011919,21411809,11301619,10811519,42001219,10511309,30100009,31101909,41611809,20801809,11310419,0,40410809,41300519,-2081150,21701509,31600519,21701609,20711319,10901809,41801919,10601009,21100519,10411219,30600619,21601019,11210419,41802009,0,0,11401119,10501419,0,40310719
9,292,1348.73432153836,0,0,2196902.8699235,2196903.91694187,12,1,0,34,3,41100319,21700219,10210019,4090101,0,0,0,0,0,0,0,41100319,0,0,0,0,0,0,0,0,21700219,0,0,10210019,0,0,0,0,0,0,0,0,0,0,0,0,0,-4090101,0,0
9,293,685.437730979174,1,0,2196906.39933106,2196907.44638676,12,0,1,30,9,62012347,73310728,40011619,82934478,0,0,0,0,10200409,0,0,41111219,10700719,0,0,31500019,0,0,0,41810709,0,0,0,40011619,0,0,0,0,0,0,0,30610119,0,-1011131,0,41011309,10301919,0,0,0
9,294,467.157167382538,1,0,2196909.19937079,2196910.24642764,12,0,1,10,0,0,0,0,0,0,0,0,0,0,0,0,0,0,-40210001,0,0,0,0,0,0,0,0,0,0,0,0,0,0,0,0,0,0,0,0,0,0,0,0,0,0
9,295,453.926443587989,1,0,2196911.89351815,2196912.94058232,12,1,1,10,9,122815176,2181200,64613847,43312128,20100419,0,30312019,40902019,0,0,0,0,31500719,-2181200,0,0,0,0,0,0,0,0,41100909,11511319,0,12001619,0,0,0,0,0,0,0,0,0,31910909,0,0,0,11401219
9,296,389.302662573755,1,0,2196914.50531158,2196915.55237806,12,0,1,16,9,40601319,53182669,42322747,82833237,0,0,0,0,0,0,0,0,40601319,0,10111409,0,0,41001219,0,-2070041,0,0,0,0,0,0,0,10911219,0,11211309,20200219,0,31411009,0,20311219,0,0,0,31111009,0
9,297,368.452021852136,0,0,2196917.07003738,2196918.1171131,12,1,0,20,19,174335674,73210637,137627406,84335465,20710009,0,41610509,0,0,30000709,30001609,12011219,40001619,0,0,0,0,40800009,0,21610009,10800619,0,0,-1101131,11102019,0,0,20610909,41400509,41911819,21501019,0,0,11110309,11400919,0,11201819,30410409,0,20212009
9,298,513.021801132709,1,0,2196919.64654221,2196920.69363641,12,0,1,18,3,31111619,3180010,62212218,0,0,0,0,0,0,0,31111619,0,0,0,0,0,0,0,0,0,0,-3180010,0,0,0,0,31001409,0,0,0,31210809,0,0,0,0,0,0,0,0,0
9,299,467.105582356453,1,0,2196922.36422955,2196923.4112968,12,0,1,4,9,64263359,62102028,72834136,40210509,0,0,40211909,-4041041,0,0,20010409,0,0,0,20401219,0,0,0,0,0,41700809,0,0,0,21410509,11311309,20001709,20110609,0,0,0,0,0,0,0,0,0,40210509,0,0
9,300,459.265082608908,0,0,2196925.02307907,2196926.07013593,12,1,0,23,9,94222237,0,16092210,123525365,31110609,41201609,0,0,21910019,0,0,0,0,0,0,0,0,0,0,0,0,0,0,0,0,0,-4091001,0,0,0,12001209,0,0,0,0,10601919,31500009,40011719,30511409,10900309
9,301,631.312990095466,0,0,2196927.67017227,2196928.7172399,12,1,0,2,9,95322227,104232837,54022038,42000209,0,-3190090,0,0,31310119,30111809,30710209,0,0,21211519,0,0,0,0,0,0,41711209,41310109,0,42010619,0,0,0,0,0,12011419,0,0,42000209,0,0,0,0,0,0,0
9,302,661.261412780732,0,0,2196930.36432348,2196931.41137841,12,0,0,36,3,41100009,41000419,0,35020149,41100009,0,0,0,0,0,0,0,0,41000419,0,0,0,0,0,0,0,0,0,0,0,0,0,0,0,0,0,0,0,0,0,0,0,30900119,0,-4120030
9,303,543.845240492374,1,0,2196933.21141236,2196934.25851349,12,1,1,31,3,0,31700109,0,46192549,0,0,0,0,0,0,0,0,0,0,0,0,0,0,31700109,0,0,0,0,0,0,0,0,0,0,0,0,0,0,0,-4081121,0,20411119,0,21700309,0
9,304,570.197357796133,0,0,2196935.87027343,2196936.91733876,12,1,0,32,31,227251651,189028422,208224193,197036703,40510819,11501909,31811909,20701119,40000419,11011119,20000719,31401919,20311719,0,41701409,21401909,30501119,11310509,20500019,11301319,41510819,10801319,0,11800309,21610109,0,41000209,11411019,40600019,40201109,41601419,31301219,30101119,42000419,40300009,-1021090,11400219,0,20111609,20801019
9,305,729.925359599292,1,0,2196938.67030893,2196939.7173858,12,0,1,1,19,86962997,164224384,105035085,184923365,-2150160,31200209,42011709,0,11600919,0,0,0,0,0,20000419,0,20810219,10400609,41501319,30800609,0,40711209,0,41202019,11610209,0,10710419,10011019,0,31501419,0,41300309,40510409,31500719,0,0,0,0,30610219,41001709
9,306,542.85743040964,1,0,2196941.51744093,2196942.56446507,12,1,1,3,19,165109424,93524765,82213627,95424546,30200619,10311409,-2160101,20801119,0,30000219,31112019,10412019,30111919,0,30311709,10200109,20400819,0,0,0,11702019,20910109,31501209,10400709,40311709,0,0,0,0,0,0,0,10610609,21911409,0,21501819,0,0,41400709,0
9,307,624.202761333436,1,0,2196944.14095719,2196945.18801944,12,1,1,24,3,0,0,108244058,0,0,0,0,0,0,0,0,0,0,0,0,0,0,0,0,0,0,0,31101619,0,41110319,0,0,-4031011,0,32001109,0,0,0,0,0,0,0,0,0,0
9,308,664.066623430699,0,0,2196946.92922982,2196947.97629207,12,0,0,12,31,258479821,247327822,230148441,175334955,10710119,30611819,41911919,10711709,31100909,31710019,40710909,40800509,20211909,20100609,32010219,-1180200,30311809,40101719,31300119,40000009,10912019,41411119,21200619,20100309,41211219,21201319,21410009,11611819,21811019,41201609,30400519,40410709,40411009,0,0,31200519,41700709,21612009,0,0
9,309,596.259984653443,0,0,2196949.78809928,2196950.83514074,12,1,0,29,31,218758421,209969211,238449522,158075676,41511119,21601009,40201909,20610119,10711109,10510619,20210509,21500119,31901909,21900519,30711009,41110609,30901209,21911519,21811909,11011209,20511019,10100209,30400619,21410419,20311609,31511919,0,41700219,41212019,21801409,30101309,30700509,-3161001,21600719,41001119,40601519,0,21010809,0,0
9,310,776.598411612213,0,0,2196952.6234484,2196953.67047523,12,1,0,22,0,0,0,0,0,0,0,0,0,0,0,0,0,0,0,0,0,0,0,0,0,0,0,0,0,0,-40901901,0,0,0,0,0,0,0,0,0,0,0,0,0,0
9,311,529.883861076087,0,0,2196955.5764285,2196956.62345417,12,0,0,8,19,205846734,83733047,123024965,175325495,40610819,10401209,0,30110209,40411619,41100919,0,-3100050,40111909,0,20111109,0,0,0,0,31910019,0,31711919,0,0,41102009,30001109,11201019,10410509,0,0,30310319,41201919,41310219,0,40501619,0,0,11811219,0,40500519
9,312,501.491835340858,0,0,2196958.31759345,2196959.3646607,12,0,0,13,31,148437264,201156583,267738541,258545992,21800609,0,10911109,20901209,0,31911509,0,21001619,41911209,31101509,11810319,40410119,-3121051,31111019,21401419,11100209,30500019,20600919,40910619,40101619,31011409,20501019,30600619,20900119,20400909,41810719,21501509,0,40810509,32010519,30600519,10700209,40301009,41211809,32010809,30900609
9,313,659.530628472567,1,0,2196979.98843643,2196981.03550522,13,1,1,24,3,0,0,108244058,0,0,0,0,0,0,0,0,0,0,0,0,0,0,0,0,0,0,0,31101619,0,41110319,0,0,-4031011,0,32001109,0,0,0,0,0,0,0,0,0,0
9,314,674.443630967289,1,0,2196982.74141083,2196983.78847962,13,0,1,13,9,22612228,25071099,152923446,52400838,0,0,11301419,0,0,0,11310809,0,0,0,0,20911009,-4160090,0,0,0,0,0,40510509,0,0,0,40410419,30801609,0,41200909,0,0,0,0,0,0,41700319,10700519,0,0
9,315,527.723844628781,0,0,2196985.50615118,2196986.55321728,13,1,0,29,31,218758421,209969211,238449522,158075676,41511119,21601009,40201909,20610119,10711109,10510619,20210509,21500119,31901909,21900519,30711009,41110609,30901209,21911519,21811909,11011209,20511019,10100209,30400619,21410419,20311609,31511919,0,41700219,41212019,21801409,30101309,30700509,-3161001,21600719,41001119,40601519,0,21010809,0,0
9,316,577.073145192117,0,0,2196988.27090269,2196989.31797225,13,1,0,11,19,73133556,126082586,157048503,103525656,40100919,0,11710609,0,10010509,0,0,0,11311519,0,-3050030,0,41910319,10301709,0,30010309,40810219,0,0,40500419,20901409,30110609,0,20911019,21911819,11011809,11701419,0,11900509,0,40511919,20111209,0,0,31002019,0
9,317,978.133173659444,0,0,2196990.98856732,2196992.03562341,13,1,0,32,31,227251651,189028422,208224193,197036703,40510819,11501909,31811909,20701119,40000419,11011119,20000719,31401919,20311719,0,41701409,21401909,30501119,11310509,20500019,11301319,41510819,10801319,0,11800309,21610109,0,41000209,11411019,40600019,40201109,41601419,31301219,30101119,42000419,40300009,-1021090,11400219,0,20111609,20801019
9,318,519.669306464493,1,0,2196994.07096167,2196995.11802315,13,0,1,28,31,190047342,217870212,179135503,210169572,31201319,10701619,12010119,41400519,20110519,0,31811409,21501419,21310419,0,41010619,21701719,40411219,40711719,20900409,21911109,20411609,10811809,21611609,30510009,21901819,0,41300419,21200519,21200419,0,21410709,-3100090,20910209,21511609,20911819,31711409,30811809,11000809,30101709,40110109
9,319,646.090486552566,0,0,2196996.69451681,2196997.7415856,13,0,0,4,31,162806923,186626694,227639131,224227132,10700209,21101719,21700609,-3190021,12000909,30100309,21810819,21600319,20602009,40501119,31910819,0,40802009,0,41000019,0,20401609,12011119,11610809,20501509,11001009,20400809,41501819,40700419,41001119,10411519,30510119,20400419,10711509,40601109,40100319,40600419,0,40202019,10310019,21301319
9,320,590.313492808491,1,0,2196999.55337511,2197000.60044583,13,0,1,1,19,53482478,134634146,84922546,217162102,-1060041,0,0,0,0,21112009,20200019,0,11110409,0,0,20500509,41611409,41010909,0,0,0,31511319,0,31910209,0,0,0,10101709,21410219,0,21500409,0,21711509,40311619,10401609,31201809,41610809,30011719,10001819,31911209
9,321,724.925486836582,1,0,2197002.34164196,2197003.3887019,13,1,1,31,3,0,31700109,0,46192549,0,0,0,0,0,0,0,0,0,0,0,0,0,0,31700109,0,0,0,0,0,0,0,0,0,0,0,0,0,0,0,-4081121,0,20411119,0,21700309,0
9,322,686.271941754967,0,0,2197005.15344379,2197006.20050296,13,1,0,10,9,122815176,2181200,64613847,43312128,20100419,0,30312019,40902019,0,0,0,0,31500719,-2181200,0,0,0,0,0,0,0,0,41100909,11511319,0,12001619,0,0,0,0,0,0,0,0,0,31910909,0,0,0,11401219
9,323,519.847543910146,1,0,2197008.09465447,2197009.14170556,13,0,1,12,3,21200709,54102469,0,0,0,0,0,21200709,0,0,0,0,0,11711609,41210819,-1180041,0,0,0,0,0,0,0,0,0,0,0,0,0,0,0,0,0,0,0,0,0,0,0,0
9,324,493.765668943524,0,0,2197010.69468543,2197011.74175152,13,1,0,23,9,94222237,0,16092210,123525365,31110609,41201609,0,0,21910019,0,0,0,0,0,0,0,0,0,0,0,0,0,0,0,0,0,-4091001,0,0,0,12001209,0,0,0,0,10601919,31500009,40011719,30511409,10900309
9,325,438.511452171952,1,0,2197013.27118256,2197014.3182475,13,0,1,13,0,0,0,0,0,0,0,0,0,0,0,0,0,0,0,0,0,-31911801,0,0,0,0,0,0,0,0,0,0,0,0,0,0,0,0,0,0,0,0,0,0,0
9,326,580.742593389004,0,0,2197015.8476947,2197016.89480623,13,1,0,2,9,95322227,104232837,54022038,42000209,0,-3190090,0,0,31310119,30111809,30710209,0,0,21211519,0,0,0,0,0,0,41711209,41310109,0,42010619,0,0,0,0,0,12011419,0,0,42000209,0,0,0,0,0,0,0
9,327,933.249805588275,0,0,2197018.6241906,2197019.67125516,13,1,0,3,19,165109424,93524765,82213627,95424546,30200619,10311409,-2160101,20801119,0,30000219,31112019,10412019,30111919,0,30311709,10200109,20400819,0,0,0,11702019,20910109,31501209,10400709,40311709,0,0,0,0,0,0,0,10610609,21911409,0,21501819,0,0,41400709,0
9,328,495.822515338659,0,0,2197021.75363604,2197022.80070752,13,0,0,8,9,44220460,41700828,112444256,62721128,0,40100319,0,0,0,0,0,-4120141,0,0,0,0,0,10200709,0,31500119,0,0,0,0,41811919,0,30610909,20011119,0,0,20010309,0,0,0,31710409,31010719,0,0,0,0
9,329,608.781225048006,0,0,2197024.44778494,2197025.49484411,13,0,0,30,19,34302247,218554814,155554174,137153906,0,12001109,0,11200419,0,11100719,0,0,0,41910519,41801019,0,41811219,31011019,31610819,0,30410219,0,20410009,40110219,0,11811409,11910509,0,0,40401419,30910609,21400019,40101709,-4040050,41100809,30511319,0,0,0,0
9,330,434.945558663458,1,0,2197027.27134963,2197028.31841688,13,0,1,16,19,73521347,149176296,135533955,153955474,0,40710119,0,0,0,0,21311109,0,11500119,31100509,0,30201709,0,20401809,21910609,-4161041,41400619,0,0,0,0,40601719,10110909,41100409,11710709,0,32010209,30910709,31111619,0,40011409,10410009,21110609,20401119,0,0
9,331,486.224668566138,0,0,2197029.82432141,2197030.87137904,13,1,0,20,19,174335674,73210637,137627406,84335465,20710009,0,41610509,0,0,30000709,30001609,12011219,40001619,0,0,0,0,40800009,0,21610009,10800619,0,0,-1101131,11102019,0,0,20610909,41400509,41911819,21501019,0,0,11110309,11400919,0,11201819,30410409,0,20212009
9,332,573.072246275842,1,0,2197032.53023049,2197033.5773012,13,1,1,34,3,41100319,21700219,10210019,4090101,0,0,0,0,0,0,0,41100319,0,0,0,0,0,0,0,0,21700219,0,0,10210019,0,0,0,0,0,0,0,0,0,0,0,0,0,-4090101,0,0
9,333,581.740797497332,1,0,2197035.35379326,2197036.40086436,13,0,1,36,3,0,50912828,0,24740609,0,0,0,0,0,0,0,0,0,10511709,0,0,0,0,40401119,0,0,0,0,0,0,0,0,0,0,0,0,21700509,0,0,0,0,0,0,0,-3040100
9,334,529.676751699299,0,0,2197038.16560162,2197039.2126581,13,0,0,33,3,61701628,30000919,0,1061120,0,41701119,0,0,0,0,0,20000509,0,0,0,30000919,0,0,0,0,0,0,0,0,0,0,0,0,0,0,0,0,0,0,0,0,-1061120,0,0,0
9,335,449.187574442476,1,0,2197040.89503759,2197041.94210061,13,0,1,18,9,94324646,44652269,40701119,40611918,0,10810119,31701809,0,31511609,0,0,20301109,0,10210909,0,0,0,31401219,0,0,0,-3040141,0,0,0,0,0,0,0,0,40701119,0,0,0,20011509,0,0,0,0,20600409
9,336,441.715867258608,1,0,2197043.57742901,2197044.62449857,13,1,1,22,0,0,0,0,0,0,0,0,0,0,0,0,0,0,0,0,0,0,0,0,0,0,0,0,0,0,-40901901,0,0,0,0,0,0,0,0,0,0,0,0,0,0
9,337,562.268701847643,1,0,2197046.09509333,2197047.14216135,13,0,1,6,31,137795785,186948132,187929312,278439821,40800619,31300919,0,20600219,10401319,-2080091,0,10611409,22001209,10701519,20910519,40800419,11100219,21001909,21011919,0,20211309,41210319,21600719,0,30800309,10900519,31300519,20402009,10002019,31911309,31011909,20500309,42001519,31600909,30511919,40701409,40000109,21001619,21310219,30811809
9,338,577.844607178122,0,0,2197048.742195,2197049.78927611,13,1,0,17,31,209951621,210319933,199430541,136826704,30300609,11501609,42011919,21411809,11301619,10811519,42001219,10511309,30100009,31101909,41611809,20801809,11310419,0,40410809,41300519,-2081150,21701509,31600519,21701609,20711319,10901809,41801919,10601009,21100519,10411219,30600619,21601019,11210419,41802009,0,0,11401119,10501419,0,40310719
9,339,710.338931065053,0,0,2197068.73066041,2197069.77772689,14,1,0,23,9,94222237,0,16092210,123525365,31110609,41201609,0,0,21910019,0,0,0,0,0,0,0,0,0,0,0,0,0,0,0,0,0,-4091001,0,0,0,12001209,0,0,0,0,10601919,31500009,40011719,30511409,10900309
9,340,624.632377643138,1,0,2197071.60130121,2197072.64833998,14,1,1,32,31,227251651,189028422,208224193,197036703,40510819,11501909,31811909,20701119,40000419,11011119,20000719,31401919,20311719,0,41701409,21401909,30501119,11310509,20500019,11301319,41510819,10801319,0,11800309,21610109,0,41000209,11411019,40600019,40201109,41601419,31301219,30101119,42000419,40300009,-1021090,11400219,0,20111609,20801019
9,341,603.673947975039,0,0,2197074.40131938,2197075.44837662,14,0,0,18,3,0,42823138,0,21801809,0,0,0,0,0,0,0,0,0,0,20100609,0,0,20711509,0,0,0,-2011020,0,0,0,0,0,0,0,0,0,0,0,0,0,0,21801809,0,0,0
9,342,642.702444922179,1,0,2197077.15429378,2197078.20135564,14,0,1,13,19,182922373,107464827,154824066,112714246,30400509,11200309,20200109,0,10710009,0,40101009,30300009,40010419,0,20410019,0,-3121081,30411709,0,11810009,41712009,0,0,0,0,0,41101019,0,41400909,30611119,41711019,0,0,21401219,40601409,20000609,0,0,30711009,0
9,343,650.124107021838,0,0,2197080.03666935,2197081.08374507,14,1,0,10,9,122815176,2181200,64613847,43312128,20100419,0,30312019,40902019,0,0,0,0,31500719,-2181200,0,0,0,0,0,0,0,0,41100909,11511319,0,12001619,0,0,0,0,0,0,0,0,0,31910909,0,0,0,11401219
9,344,830.698900390416,0,0,2197082.81318103,2197083.86024328,14,1,0,24,3,0,0,108244058,0,0,0,0,0,0,0,0,0,0,0,0,0,0,0,0,0,0,0,31101619,0,41110319,0,0,-4031011,0,32001109,0,0,0,0,0,0,0,0,0,0
9,345,486.919522751123,1,0,2197085.87204579,2197086.91910227,14,0,1,1,31,179959712,199248403,244748522,217250822,-3011100,42010709,10311709,10901919,10100519,10410109,41401109,31801519,20011019,40911009,21601819,21811519,32010609,30411809,11700719,40800919,0,0,0,30711109,30310919,30700119,10211019,40200019,30201919,30402009,42011409,40200519,21511719,0,40911909,21411019,41301619,10311009,11201809,30401219
9,346,596.672277897596,1,0,2197088.46030387,2197089.50736766,14,1,1,22,0,0,0,0,0,0,0,0,0,0,0,0,0,0,0,0,0,0,0,0,0,0,0,0,0,0,-40901901,0,0,0,0,0,0,0,0,0,0,0,0,0,0
9,347,460.52698418498,0,0,2197091.154452,2197092.20151502,14,0,0,4,31,157756246,198227332,267749031,270237461,30501319,31510909,0,-3021071,30710819,20901809,0,41110319,0,42011819,31311419,41300609,20100819,10500219,10300419,21701319,21000709,0,30911419,41300519,11900419,30100309,40511909,30311009,41001019,20311609,21400819,11311919,40400609,41210719,21700019,32000419,31200419,20201719,40601419,31610219
9,348,485.596796963364,1,0,2197093.67212902,2197094.71919166,14,0,1,16,19,154945555,67504997,116518155,135633764,20000609,40711309,21011109,0,0,31411009,0,0,41811519,0,0,0,21901919,31101019,0,-3101050,0,11401009,11401809,10601819,0,0,41312009,41902009,0,11300509,0,21710409,0,31000909,21110409,0,21710019,30101909,0,10000109
9,349,530.323871411383,1,0,2197096.30745589,2197097.35452391,14,0,1,17,0,0,0,0,0,0,0,0,0,0,0,0,0,0,0,0,0,0,0,0,0,-32010301,0,0,0,0,0,0,0,0,0,0,0,0,0,0,0,0,0,0,0
9,350,494.094040244818,0,0,2197098.95454447,2197100.00160749,14,1,0,34,3,41100319,21700219,10210019,4090101,0,0,0,0,0,0,0,41100319,0,0,0,0,0,0,0,0,21700219,0,0,10210019,0,0,0,0,0,0,0,0,0,0,0,0,0,-4090101,0,0
9,351,500.152556225657,1,0,2197101.54285143,2197102.58988173,14,1,1,17,31,209951621,210319933,199430541,136826704,30300609,11501609,42011919,21411809,11301619,10811519,42001219,10511309,30100009,31101909,41611809,20801809,11310419,0,40410809,41300519,-2081150,21701509,31600519,21701609,20711319,10901809,41801919,10601009,21100519,10411219,30600619,21601019,11210419,41802009,0,0,11401119,10501419,0,40310719
