sub_id,Trial,RT,Resp,Error,Fix_onset,Disp_onset,q1,q2,block,repeat,tid,tloc,d_setsize,quad1,quad2,quad3,quad4,loc1,loc2,loc3,loc4,loc5,loc6,loc7,loc8,loc9,loc10,loc11,loc12,loc13,loc14,loc15,loc16,loc17,loc18,loc19,loc20,loc21,loc22,loc23,loc24,loc25,loc26,loc27,loc28,loc29,loc30,loc31,loc32,loc33,loc34,loc35,loc36
18,1,1145.31358587556,1,0,1497766.27898654,1497767.32602376,0,NumLock,1,0,1,16,10,98545598,58873219,87423737,32042640,40601409,0,0,0,0,30701409,3141110,21900519,2201151,0,3200111,0,10310019,0,21200409,-3051171,21111509,0,20910509,4001200,0,41611109,0,0,20900919,0,0,0,4001180,0,3080041,0,0,4161010,20800409,0
18,2,1201.00742811337,0,0,1497769.6553825,1497770.70240471,0,NumLock,1,1,0,4,10,78795248,80945228,26362381,105335427,42011709,0,0,-3121120,0,30501419,0,0,3161000,0,30401109,31411319,0,0,4141071,10811619,0,4180110,0,21011109,0,0,2150121,2040011,0,0,1161140,30200609,0,30010119,10011919,0,31911709,3201071,0,0
18,3,728.846265003085,0,0,1497773.10234412,1497774.14937134,0,NumLock,1,0,0,8,0,7281362,2081070,3180150,11172541,0,0,4190050,0,0,0,0,-1061171,2030141,0,0,0,2081070,0,0,0,0,0,0,0,0,0,0,3180150,0,0,0,4111180,0,0,0,0,3050181,0,4011180,0
18,4,1008.59701051377,0,0,1497776.04345279,1497777.09047731,0,NumLock,1,1,0,36,5,5171331,7332180,56631839,88573418,0,0,0,1080151,0,4091180,0,0,0,0,3171060,0,0,4161120,0,0,0,0,30911119,21610509,0,0,1050180,0,0,3060031,0,30400309,32000119,2191031,0,20800809,0,0,0,-3181150
18,5,1249.97330736369,0,0,1497779.14924584,1497780.19627305,0,NumLock,1,1,0,31,5,6133291,36492489,38244028,64782549,0,0,0,1091071,0,4021120,0,1021100,0,0,0,0,3110000,0,0,2071080,31311409,0,0,2151130,0,0,3081070,0,21911409,11100419,0,0,0,0,-4170031,40210809,0,0,0,20401709
18,6,1142.279708758,1,0,1497782.56091732,1497783.60795069,0,NumLock,1,0,1,1,0,9353243,5190132,1111031,6201132,-3121051,0,0,4171131,0,0,0,0,2061061,0,0,0,2160041,0,0,0,3030091,0,0,0,0,0,0,0,0,0,1111031,0,0,3020061,0,0,0,3181071,0,0
18,7,583.030367037281,1,0,1497785.85494934,1497786.90197848,0,NumLock,1,0,1,10,20,122988785,101128117,185546194,86702557,12001009,10701209,11711619,0,21400819,20300319,3121111,40601519,3151180,-2011020,12001319,2100091,10501509,0,1081151,21811509,20410409,31211109,30701009,0,20800909,41900919,40310519,10200319,40601419,0,1031100,0,0,3120090,1060110,30711619,0,30400519,0,21410219
18,8,799.99821446836,0,0,1497788.6431034,1497789.69013408,0,NumLock,1,1,0,27,0,4020101,7051281,7321283,5292191,0,0,0,0,4020101,0,0,0,0,0,0,4001130,0,0,0,0,3050151,0,0,0,0,0,0,3051111,0,1110091,-3160081,0,1121160,0,0,0,4171031,0,0,0
18,9,429.288893006742,0,0,1497791.60774012,1497792.65476541,0,NumLock,1,1,0,22,0,5190160,0,5241270,10413453,0,1060110,0,0,4130050,0,0,0,0,0,0,0,0,0,0,0,0,0,3161070,0,0,-2080200,0,0,0,0,0,0,0,2001141,0,0,0,4131130,1121051,3160131
18,10,1064.68428275548,0,1,1497794.12534246,1497795.17234619,0,NumLock,1,1,1,13,20,103377057,99318196,209577804,78012648,21610709,3011191,10700319,11511609,12011419,21410309,1200141,1110151,20811209,20901909,2080110,30800919,-1111111,12001309,11110919,0,21311919,0,40310909,40900819,11210709,40111019,41111319,0,31912009,0,4021020,10900609,1150131,4151070,20610119,41200719,0,0,0,0
18,11,636.348615167663,0,0,1497797.25464122,1497798.30167382,0,NumLock,1,1,0,15,10,16981770,85293417,101102718,76924469,0,0,3170001,11701619,0,2110150,0,0,0,0,0,0,30500819,0,-1170060,0,11611719,42010819,42010809,4071091,10010409,4000100,41010309,0,0,0,0,10700619,0,1110121,21011309,2010050,41001209,0,1091161,0
18,12,1286.92109067924,1,0,1497800.07810274,1497801.12512765,0,NumLock,1,0,1,19,5,73833738,6161101,17492251,54032888,0,30301609,0,0,1200110,0,41301009,1031010,0,0,0,0,4030030,0,2131071,0,0,0,-3110191,0,0,1140130,0,0,0,3141011,10100919,30100809,0,0,0,21811019,0,2121060,0,0
18,13,1276.59027813934,0,0,1497803.46629699,1497804.51327185,0,NumLock,1,0,0,3,5,19372731,46183211,24931190,68181039,0,0,-3160200,3160111,0,0,0,3041011,10011409,1160011,3121181,41902019,0,0,0,0,0,0,0,0,21901109,0,0,0,3030081,0,0,0,0,0,0,4160110,1020001,32000019,31000909,0
18,14,780.871814116836,0,0,1497806.87791611,1497807.92493986,0,NumLock,1,1,0,7,20,126545326,145147507,110815857,184946413,30100119,2091040,0,20511809,0,0,-3130030,40700709,30011619,21011219,0,4201101,41612019,20200919,2170170,11910819,2031151,42010109,30211209,4130091,0,41911719,0,10800019,2131010,20510709,1121100,10211819,10800019,0,40400419,31610119,40701319,30911609,0,20311109
18,15,708.688169252127,0,0,1497809.8190117,1497810.86609743,0,NumLock,1,0,0,17,5,3161031,29090910,9511424,102833146,0,0,0,0,0,0,0,3161031,0,21810719,0,0,0,4180061,0,0,-3100130,0,2070071,0,0,1130061,0,4020080,1101011,0,1190201,30710409,0,0,30410919,30901209,10810609,0,0,0
18,16,1299.06083457172,0,0,1497812.7248206,1497813.77184205,0,NumLock,1,0,0,6,20,111124458,119967506,130274485,204347796,30401419,30610809,0,4150181,0,-1170090,31710709,11901109,1180141,0,3040041,20311319,11700609,31101719,0,41901909,11911909,0,3040100,11800619,31010619,0,0,21601419,41200309,1121110,20500309,41800909,0,3130011,31700709,2100011,31201209,40601719,12001309,41811919
18,17,619.956592330709,1,0,1497816.21890298,1497817.26586668,0,NumLock,1,1,1,5,20,181807485,69195017,94674568,228747512,1150090,31401719,40010719,11911819,-3131001,41101909,0,11900209,41200019,3060110,10202009,0,0,30612009,0,0,4010080,21310809,3060120,30301819,3021081,41100319,3001050,0,0,11010009,3180170,41300819,20411509,40411019,31410409,31801819,20700309,31301519,11410109,0
18,18,1281.73913108185,1,0,1497818.91288943,1497819.95991626,0,NumLock,1,1,1,20,5,42921920,30661640,16483120,33941708,0,0,41810919,0,0,0,0,0,1111001,4130200,3200000,0,0,0,20211409,3120031,0,0,0,-1030061,0,0,0,3040150,0,1001200,11411709,20800219,0,10111419,0,0,0,3030070,0,0
18,19,797.035939758644,1,0,1497822.37161815,1497823.4186446,0,NumLock,1,0,1,26,0,7251171,1060201,4121130,10301480,3151081,0,0,0,0,0,0,0,4100090,0,0,0,1060201,0,0,0,0,0,0,0,0,0,0,0,0,-4121130,0,0,2070170,0,0,2021170,3050010,3160130,0,0
18,20,1210.57216799818,1,0,1497825.39508768,1497826.44210142,0,NumLock,1,0,1,35,20,116368417,145968265,108074206,84415859,10801819,40511619,11400319,0,3181201,11610619,4011141,3140090,31711609,10911709,40001919,0,41401009,2030191,0,30810209,10611909,10201319,0,0,20210319,21801009,20511419,10600609,31900809,0,3050041,0,11610119,11100619,3021181,41911919,0,4110041,-1051171,11610809
18,21,1428.45660750754,0,0,1497828.73618773,1497829.78318915,0,NumLock,1,1,0,30,10,44462209,72462008,83220409,69152927,2040181,0,21710709,0,0,0,0,20711319,0,0,1070130,4090010,0,31000009,4191031,0,11510719,20600109,0,0,41310119,0,40800219,1110071,0,0,0,0,1200070,-1060140,11010419,0,11111809,3160070,0,41610419
18,22,717.29127666913,1,0,1497832.32429798,1497833.37132635,0,NumLock,1,1,1,25,0,7192242,2031201,10332470,2061061,0,0,3031161,3060071,0,0,0,0,1101010,0,2031201,0,0,0,0,0,0,0,0,0,3170120,3141150,0,0,-4021200,0,0,0,0,0,0,0,2061061,0,0,0
18,23,1258.79314821213,0,0,1497835.14775296,1497836.19483907,0,NumLock,1,0,0,24,10,98182978,70504799,117603477,21901819,0,0,31011209,4070041,0,40700519,0,1091000,21310209,0,40201209,20811109,1061100,0,3170150,0,2070200,3191031,41110609,0,4060150,10110209,40800119,-1121081,0,20401309,0,0,21901819,0,0,0,0,0,0,0
18,24,1043.42904803343,1,0,1497838.52417087,1497839.57115689,0,NumLock,1,0,1,34,10,12851430,161323365,78273339,57103511,0,0,0,0,0,0,2151121,10700309,0,31800119,41510119,21911709,0,30101109,31700109,3170000,0,1130200,30400709,40711319,0,0,3160151,0,4001160,0,0,2070171,0,11501409,1001071,0,0,-1120141,0,41410719
18,25,1054.57058828324,1,0,1497848.37092368,1497849.41795359,0,NumLock,2,1,1,13,20,103377057,99318196,209577804,78012648,21610709,3011191,10700319,11511609,12011419,21410309,1200141,1110151,20811209,20901909,2080110,30800919,-1111111,12001309,11110919,0,21311919,0,40310909,40900819,11210709,40111019,41111319,0,31912009,0,4021020,10900609,1150131,4151070,20610119,41200719,0,0,0,0
18,26,579.435216728598,0,0,1497851.55908028,1497852.60610634,0,NumLock,2,1,0,27,0,4020101,7051281,7321283,5292191,0,0,0,0,4020101,0,0,0,0,0,0,4001130,0,0,0,0,3050151,0,0,0,0,0,0,3051111,0,1110091,-3160081,0,1121160,0,0,0,4171031,0,0,0
18,27,1260.35531959496,0,0,1497854.35908536,1497855.40601826,0,NumLock,2,0,0,24,0,3220180,5262331,4091241,4360272,0,0,0,0,1180170,0,0,2040010,0,0,0,0,1111200,0,0,4151131,0,0,0,0,0,0,0,-2020180,0,2071061,0,0,0,0,0,0,3180171,0,0,1180101
18,28,530.329981585965,1,0,1497857.85302993,1497858.90005791,0,NumLock,2,1,1,22,0,5190160,0,5241270,10413453,0,1060110,0,0,4130050,0,0,0,0,0,0,0,0,0,0,0,0,0,3161070,0,0,-2080200,0,0,0,0,0,0,0,2001141,0,0,0,4131130,1121051,3160131
18,29,1227.1393481642,1,0,1497860.44119369,1497861.4882209,0,NumLock,2,0,1,1,0,9202503,1191121,3200261,3000140,-4000071,0,0,0,3031041,1100190,1071201,0,0,0,0,0,0,0,0,1191121,0,0,0,0,2040120,0,0,0,0,0,1160141,0,0,0,0,0,0,0,0,3000140
18,30,1766.83267275803,1,0,1497863.92345469,1497864.97047536,0,NumLock,2,1,1,31,5,6133291,36492489,38244028,64782549,0,0,0,1091071,0,4021120,0,1021100,0,0,0,0,3110000,0,0,2071080,31311409,0,0,2151130,0,0,3081070,0,21911409,11100419,0,0,0,0,-4170031,40210809,0,0,0,20401709
18,31,926.85132031329,0,0,1497867.81747108,1497868.86453487,0,NumLock,2,0,0,8,20,138695497,165876835,72583730,211660332,11201219,10910009,31611909,40600019,1050141,0,0,-3010191,40312009,41811609,0,20011509,40311609,21411819,0,0,41310219,1020070,0,31610419,0,0,4161120,2150151,2011130,1050001,31600909,21301919,21001919,30710709,1130110,41901519,21901219,30500209,31801119,11411609
18,32,1102.81890048645,1,0,1497870.81738639,1497871.86440552,0,NumLock,2,0,1,6,0,13423572,1070080,2181211,0,1110150,0,3061090,3100121,2031171,-4121040,0,0,0,0,0,0,0,0,1070080,0,0,0,0,0,1051011,0,1130200,0,0,0,0,0,0,0,0,0,0,0,0,0
18,33,607.308699982241,0,0,1497873.9937782,1497875.04080387,0,NumLock,2,1,0,15,10,16981770,85293417,101102718,76924469,0,0,3170001,11701619,0,2110150,0,0,0,0,0,0,30500819,0,-1170060,0,11611719,42010819,42010809,4071091,10010409,4000100,41010309,0,0,0,0,10700619,0,1110121,21011309,2010050,41001209,0,1091161,0
18,34,1432.21305659972,0,0,1497876.73487848,1497877.781903,0,NumLock,2,0,0,26,20,178356274,176726684,95034938,172188116,41010109,0,31210609,1010000,42001819,31301119,10512009,21310609,0,41200919,0,21510409,0,31201009,40302019,0,20800409,21711919,11901319,3110120,0,4010101,40211609,1190120,0,-4100050,30511619,30501009,31301619,1191170,40410809,3120070,20612019,0,3150111,41901309
18,35,782.182991039008,0,0,1497880.22890311,1497881.27592648,0,NumLock,2,1,0,4,10,78795248,80945228,26362381,105335427,42011709,0,0,-3121120,0,30501419,0,0,3161000,0,30401109,31411319,0,0,4141071,10811619,0,4180110,0,21011109,0,0,2150121,2040011,0,0,1161140,30200609,0,30010119,10011919,0,31911709,3201071,0,0
18,36,530.549024231732,0,0,1497883.09941149,1497884.14649491,0,NumLock,2,0,0,16,10,66503767,64014861,55962018,83233890,0,21311919,11400019,0,10401319,0,20300319,3090191,0,10911909,0,0,0,4191101,4160021,-4051021,40700809,0,0,0,0,0,22001609,2150190,31810219,0,0,3131081,4101160,0,30801509,0,41000119,0,4200021,0
18,37,1215.30256862752,0,0,1497885.78169127,1497886.82871502,0,NumLock,2,0,0,19,5,85043728,3200030,34862130,22415511,40700619,0,31111519,0,0,11101519,2130071,0,0,0,0,0,0,0,0,0,0,3200030,-4161021,0,0,0,0,0,0,30701109,0,0,4190171,2061090,0,2141120,10911919,0,2001080,1110131
18,38,561.378622893244,0,0,1497889.07571983,1497890.12274782,0,NumLock,2,0,0,10,5,46446659,46862880,4002351,14051051,11111419,3041181,0,0,10012019,0,20201019,2081021,0,-4001150,0,0,0,0,2161121,0,40700609,0,0,0,3001171,1001180,0,0,0,0,0,0,0,1180131,0,0,0,10710719,0,2160201
18,39,1216.35851636529,1,0,1497891.87564446,1497892.9226786,0,NumLock,2,1,1,20,5,42921920,30661640,16483120,33941708,0,0,41810919,0,0,0,0,0,1111001,4130200,3200000,0,0,0,20211409,3120031,0,0,0,-1030061,0,0,0,3040150,0,1001200,11411709,20800219,0,10111419,0,0,0,3030070,0,0
18,40,1664.42266316153,1,0,1497895.27555499,1497896.32258221,0,NumLock,2,1,1,36,5,5171331,7332180,56631839,88573418,0,0,0,1080151,0,4091180,0,0,0,0,3171060,0,0,4161120,0,0,0,0,30911119,21610509,0,0,1050180,0,0,3060031,0,30400309,32000119,2191031,0,20800809,0,0,0,-3181150
18,41,1408.68077799678,1,0,1497899.08722901,1497900.1342543,0,NumLock,2,0,1,3,20,100676856,129869525,101135359,148716943,20910819,30911619,-3201081,2120200,11011309,0,21511809,0,11010019,40411219,11202009,2030190,10112009,0,0,2191170,41911519,22011409,4131041,3081011,0,1200180,40610609,0,0,22001609,30110909,31210809,11500819,2071040,0,40210819,10811019,20610209,11701209,20601019
18,42,1185.28177263215,0,0,1497902.71064904,1497903.75767548,0,NumLock,2,0,0,35,10,66121808,67853897,76824267,5443592,0,0,0,20010609,0,0,4110171,11700419,30300609,11011819,21110419,30711609,0,3010040,0,2010010,0,0,0,0,0,10701019,11110919,2190201,31011009,0,21811119,2181170,0,0,0,1151050,0,1081191,-1030181,0
18,43,1431.35420861654,1,0,1497906.01644047,1497907.0634723,0,NumLock,2,1,1,30,10,44462209,72462008,83220409,69152927,2040181,0,21710709,0,0,0,0,20711319,0,0,1070130,4090010,0,31000009,4191031,0,11510719,20600109,0,0,41310119,0,40800219,1110071,0,0,0,0,1200070,-1060140,11010419,0,11111809,3160070,0,41610419
18,44,664.623227901757,0,0,1497909.52225569,1497910.56925749,0,NumLock,2,1,0,5,20,181807485,69195017,94674568,228747512,1150090,31401719,40010719,11911819,-3131001,41101909,0,11900209,41200019,3060110,10202009,0,0,30612009,0,0,4010080,21310809,3060120,30301819,3021081,41100319,3001050,0,0,11010009,3180170,41300819,20411509,40411019,31410409,31801819,20700309,31301519,11410109,0
18,45,1409.21510383487,1,0,1497912.25156885,1497913.29859876,0,NumLock,2,1,1,7,20,126545326,145147507,110815857,184946413,30100119,2091040,0,20511809,0,0,-3130030,40700709,30011619,21011219,0,4201101,41612019,20200919,2170170,11910819,2031151,42010109,30211209,4130091,0,41911719,0,10800019,2131010,20510709,1121100,10211819,10800019,0,40400419,31610119,40701319,30911609,0,20311109
18,46,978.979653911665,0,0,1497915.88676868,1497916.93379166,0,NumLock,2,1,0,25,0,7192242,2031201,10332470,2061061,0,0,3031161,3060071,0,0,0,0,1101010,0,2031201,0,0,0,0,0,0,0,0,0,3170120,3141150,0,0,-4021200,0,0,0,0,0,0,0,2061061,0,0,0
18,47,1396.09717414714,1,0,1497919.08668006,1497920.13371074,0,NumLock,2,0,1,34,10,87194998,34476238,16372432,84964190,10400319,0,1170031,0,10501609,41411019,0,2111111,21600909,0,1071191,0,0,10401219,11402019,0,0,11601809,3120071,0,0,0,1001171,0,1051181,11200009,0,0,0,0,41111219,1201081,41510819,-1141071,0,0
18,48,1912.33290242963,0,0,1497922.59247257,1497923.63949516,0,NumLock,2,0,0,17,5,82623718,10521443,73612447,7123231,0,0,0,0,0,41212009,41411709,0,0,0,3200090,0,0,1021131,1180141,0,-2000050,3120031,0,0,0,0,10811609,21200619,41600219,0,0,0,0,0,0,0,0,1021080,2051091,4051060
18,49,1121.34976615198,1,0,1497930.1452049,1497931.19224059,0,NumLock,3,0,1,34,5,33685651,20801019,75842619,38341271,0,0,4081090,4171001,0,2161130,21201309,2071121,0,0,0,0,0,0,20801019,0,0,0,0,0,0,40411409,0,0,0,4021101,31410109,0,31110109,0,3131011,0,2070100,-2030051,0,0
18,50,821.440924890339,1,0,1497933.39217815,1497934.43920998,0,NumLock,3,1,1,25,0,7192242,2031201,10332470,2061061,0,0,3031161,3060071,0,0,0,0,1101010,0,2031201,0,0,0,0,0,0,0,0,0,3170120,3141150,0,0,-4021200,0,0,0,0,0,0,0,2061061,0,0,0
18,51,1311.5759154316,1,0,1497936.29798551,1497937.34501773,0,NumLock,3,1,1,36,5,5171331,7332180,56631839,88573418,0,0,0,1080151,0,4091180,0,0,0,0,3171060,0,0,4161120,0,0,0,0,30911119,21610509,0,0,1050180,0,0,3060031,0,30400309,32000119,2191031,0,20800809,0,0,0,-3181150
18,52,1100.08875722997,1,0,1497939.66260129,1497940.70962427,0,NumLock,3,0,1,6,5,9501322,23491460,87946638,31901409,0,2170010,0,0,0,-1021061,2170161,0,4140090,0,0,2121040,0,0,0,1070011,0,20300409,31301409,2021140,0,41201909,0,11301009,0,0,2121171,0,0,0,0,0,31901409,0,0,0
18,53,982.131714234129,0,0,1497942.92133779,1497943.96836654,0,NumLock,3,0,0,26,10,41601519,67067872,122937316,33150589,0,0,0,0,0,0,0,0,41601519,11711709,0,4091101,4131111,41801709,0,1181171,0,4151071,0,20201409,31301419,11700419,30811219,2030001,21711509,-4050200,1131140,21000219,0,11000209,0,0,0,0,1150161,0
18,54,1168.07016823441,1,0,1497946.0624279,1497947.10945627,0,NumLock,3,0,1,24,0,3081140,7323152,6282192,3211182,0,0,0,0,0,0,0,0,3081140,1051001,0,4131020,2141131,0,0,0,0,0,0,0,0,0,0,-2141111,0,4141081,0,1080081,0,2131101,0,0,0,0,0,0
18,55,633.805562974885,0,0,1497949.3447344,1497950.39171927,0,NumLock,3,1,0,15,10,16981770,85293417,101102718,76924469,0,0,3170001,11701619,0,2110150,0,0,0,0,0,0,30500819,0,-1170060,0,11611719,42010819,42010809,4071091,10010409,4000100,41010309,0,0,0,0,10700619,0,1110121,21011309,2010050,41001209,0,1091161,0
18,56,1406.40758350492,0,0,1497952.17998074,1497953.22694674,0,NumLock,3,1,0,7,20,126545326,145147507,110815857,184946413,30100119,2091040,0,20511809,0,0,-3130030,40700709,30011619,21011219,0,4201101,41612019,20200919,2170170,11910819,2031151,42010109,30211209,4130091,0,41911719,0,10800019,2131010,20510709,1121100,10211819,10800019,0,40400419,31610119,40701319,30911609,0,20311109
18,57,1170.36453564651,0,0,1497955.81515747,1497956.86213502,0,NumLock,3,0,0,3,20,129748170,125986167,93023756,172655413,4110100,2190161,-3181161,41711319,1151031,31801109,20101209,4191061,21311019,30101209,10601909,3020071,31700409,3101100,21610919,4040141,21810409,0,0,41611709,21000609,0,10311219,0,0,0,20100219,10910609,0,40510419,30211019,10010419,20000209,20101519,0,40911219
18,58,813.038766849786,0,0,1497959.20324662,1497960.25027846,0,NumLock,3,0,0,16,10,98296317,35490639,119844045,16764151,30111909,30801319,0,0,2150000,3001080,31211819,0,1020190,0,0,0,0,0,0,-2170110,30310509,3010020,31701009,0,11410209,30010719,31400319,4020070,0,11301719,0,0,0,0,0,1171011,0,0,11402009,4191131
18,59,590.289575979114,1,0,1497962.26199282,1497963.3090208,0,NumLock,3,0,1,17,0,8132422,7102190,8060172,3200130,0,2011070,4040201,0,0,0,0,0,2081151,0,0,0,0,0,3051010,0,-4051180,0,0,4020061,0,0,0,0,4040111,0,0,0,3200130,0,0,0,0,0,0,0
18,60,1544.5034741424,0,0,1497965.01486136,1497966.06188819,0,NumLock,3,0,0,35,20,146037513,122735147,160123155,101775787,30210019,0,11501119,11511709,0,11100809,30311019,30901819,20501019,3160091,2110020,10401419,3120000,30001109,40810009,0,1131080,32001419,31310009,41410819,0,1000040,40201119,21510409,4090140,20600619,0,0,0,11800319,10311809,4111090,31601809,40910709,-3040051,0
18,61,1512.51783780754,1,0,1497968.76769948,1497969.81472824,0,NumLock,3,1,1,13,20,103377057,99318196,209577804,78012648,21610709,3011191,10700319,11511609,12011419,21410309,1200141,1110151,20811209,20901909,2080110,30800919,-1111111,12001309,11110919,0,21311919,0,40310909,40900819,11210709,40111019,41111319,0,31912009,0,4021020,10900609,1150131,4151070,20610119,41200719,0,0,0,0
18,62,1329.84731742181,0,0,1497972.5322997,1497973.57933077,0,NumLock,3,1,0,5,20,181807485,69195017,94674568,228747512,1150090,31401719,40010719,11911819,-3131001,41101909,0,11900209,41200019,3060110,10202009,0,0,30612009,0,0,4010080,21310809,3060120,30301819,3021081,41100319,3001050,0,0,11010009,3180170,41300819,20411509,40411019,31410409,31801819,20700309,31301519,11410109,0
18,63,626.661457354203,1,0,1497976.07338736,1497977.12046731,0,NumLock,3,0,1,10,5,72723428,72074050,20800319,13533383,0,0,0,0,41311419,0,31412009,0,0,-4201021,40001309,21710419,1020091,0,4031150,0,1110060,0,0,0,20800319,0,0,0,0,0,0,0,4080111,2141180,3141011,4171081,0,0,0,0
18,64,1334.17427865788,1,0,1497978.82625089,1497979.88506676,0,NumLock,3,0,1,19,10,155444175,28954689,48264680,14001271,20510909,0,0,21810919,41601219,31410509,0,0,40110619,0,0,0,0,3131120,12001709,11710819,2111041,0,-2051191,0,10101309,0,3180010,1031050,1101101,0,30800019,10900019,0,2031071,0,0,0,1070181,0,0
18,65,754.808417288587,1,0,1497982.3202786,1497983.36730081,0,NumLock,3,1,1,22,0,5190160,0,5241270,10413453,0,1060110,0,0,4130050,0,0,0,0,0,0,0,0,0,0,0,0,0,3161070,0,0,-2080200,0,0,0,0,0,0,0,2001141,0,0,0,4131130,1121051,3160131
18,66,1252.39933142439,0,0,1497985.29667087,1497986.3436977,0,NumLock,3,1,0,31,5,6133291,36492489,38244028,64782549,0,0,0,1091071,0,4021120,0,1021100,0,0,0,0,3110000,0,0,2071080,31311409,0,0,2151130,0,0,3081070,0,21911409,11100419,0,0,0,0,-4170031,40210809,0,0,0,20401709
18,67,1393.51562573574,0,0,1497988.69657486,1497989.74360092,0,NumLock,3,0,0,1,20,158687016,72213489,120253006,193406005,-1151141,10001909,1090101,0,10410119,21600809,41311219,31210209,41911509,11411219,4161201,40500009,10800009,2181011,0,0,3160040,0,11800219,31001219,0,4130021,21510309,0,21110419,30700819,0,0,10100419,40210009,4061021,41310809,31610519,4200110,30401709,31511409
18,68,1190.97380549647,0,0,1497992.21412793,1497993.26115206,0,NumLock,3,1,0,20,5,42921920,30661640,16483120,33941708,0,0,41810919,0,0,0,0,0,1111001,4130200,3200000,0,0,0,20211409,3120031,0,0,0,-1030061,0,0,0,3040150,0,1001200,11411709,20800219,0,10111419,0,0,0,3030070,0,0
18,69,527.58982940577,0,0,1497995.64933823,1497996.69635659,0,NumLock,3,1,0,4,10,78795248,80945228,26362381,105335427,42011709,0,0,-3121120,0,30501419,0,0,3161000,0,30401109,31411319,0,0,4141071,10811619,0,4180110,0,21011109,0,0,2150121,2040011,0,0,1161140,30200609,0,30010119,10011919,0,31911709,3201071,0,0
18,70,798.092657700181,1,0,1497998.3198436,1497999.36687235,0,NumLock,3,1,1,27,0,4020101,7051281,7321283,5292191,0,0,0,0,4020101,0,0,0,0,0,0,4001130,0,0,0,0,3050151,0,0,0,0,0,0,3051111,0,1110091,-3160081,0,1121160,0,0,0,4171031,0,0,0
18,71,1043.01906470209,0,0,1498001.26094265,1498002.30797833,0,NumLock,3,0,0,8,0,11151471,9311362,4001151,1161060,4061080,0,0,0,0,3060191,0,-4030200,0,0,4080020,3080181,0,0,0,2151161,0,0,0,0,0,0,4001151,0,0,0,0,0,0,0,1161060,0,0,0,0,0
18,72,1103.14265266061,0,0,1498004.36673608,1498005.4137733,0,NumLock,3,1,0,30,10,44462209,72462008,83220409,69152927,2040181,0,21710709,0,0,0,0,20711319,0,0,1070130,4090010,0,31000009,4191031,0,11510719,20600109,0,0,41310119,0,40800219,1110071,0,0,0,0,1200070,-1060140,11010419,0,11111809,3160070,0,41610419
18,73,604.408789193258,0,0,1498010.67245436,1498011.71947889,0,NumLock,4,1,0,4,10,78795248,80945228,26362381,105335427,42011709,0,0,-3121120,0,30501419,0,0,3161000,0,30401109,31411319,0,0,4141071,10811619,0,4180110,0,21011109,0,0,2150121,2040011,0,0,1161140,30200609,0,30010119,10011919,0,31911709,3201071,0,0
18,74,1085.65888064913,0,0,1498013.47237745,1498014.51940582,0,NumLock,4,1,0,15,10,16981770,85293417,101102718,76924469,0,0,3170001,11701619,0,2110150,0,0,0,0,0,0,30500819,0,-1170060,0,11611719,42010819,42010809,4071091,10010409,4000100,41010309,0,0,0,0,10700619,0,1110121,21011309,2010050,41001209,0,1091161,0
18,75,846.985394367948,1,0,1498016.64876464,1498017.69579339,0,NumLock,4,0,1,34,20,187254263,135406315,148695647,98386467,30600209,30100519,41211009,20010109,10900009,21411609,30000709,0,3020090,30510809,4170160,40411119,0,3121000,3190100,21901409,21700409,10401309,2021201,0,0,20311919,40200119,2050160,40811009,40300209,3001030,31210409,0,21012019,30601809,11511219,0,-4051011,0,0
18,76,580.494629219174,0,0,1498019.62516114,1498020.67218297,0,NumLock,4,1,0,27,0,4020101,7051281,7321283,5292191,0,0,0,0,4020101,0,0,0,0,0,0,4001130,0,0,0,0,3050151,0,0,0,0,0,0,3051111,0,1110091,-3160081,0,1121160,0,0,0,4171031,0,0,0
18,77,1634.1936038807,0,0,1498022.30743477,1498023.35446506,0,NumLock,4,1,0,31,5,6133291,36492489,38244028,64782549,0,0,0,1091071,0,4021120,0,1021100,0,0,0,0,3110000,0,0,2071080,31311409,0,0,2151130,0,0,3081070,0,21911409,11100419,0,0,0,0,-4170031,40210809,0,0,0,20401709
18,78,565.49462559633,1,0,1498026.0132168,1498027.06024248,0,NumLock,4,0,1,16,20,126256706,76666771,138646383,180269054,0,0,30111809,11201119,40000709,3130151,10611909,0,31201009,1191131,21800909,4121001,1111160,0,40311419,-4001050,0,4130101,31511509,11411309,0,11411109,11810509,0,20000909,21500919,31000119,30101309,20911019,4071170,40300009,30312009,2061200,0,11801919,40710419
18,79,1363.79663972184,1,0,1498028.73078942,1498029.77781741,0,NumLock,4,1,1,13,20,103377057,99318196,209577804,78012648,21610709,3011191,10700319,11511609,12011419,21410309,1200141,1110151,20811209,20901909,2080110,30800919,-1111111,12001309,11110919,0,21311919,0,40310909,40900819,11210709,40111019,41111319,0,31912009,0,4021020,10900609,1150131,4151070,20610119,41200719,0,0,0,0
18,80,994.274922879413,0,0,1498032.34245774,1498033.38948304,0,NumLock,4,0,0,35,10,12681499,132912566,80354500,80066118,0,0,0,0,0,10501409,2180090,0,0,0,0,20100919,0,41900909,40100319,0,0,30810419,40011309,2140021,0,2171081,0,1060090,3071190,31900809,0,40310109,0,3001110,1161110,0,21211709,0,-4080171,10301909
18,81,1003.12209571712,1,0,1498035.54237221,1498036.58939788,0,NumLock,4,1,1,30,10,44462209,72462008,83220409,69152927,2040181,0,21710709,0,0,0,0,20711319,0,0,1070130,4090010,0,31000009,4191031,0,11510719,20600109,0,0,41310119,0,40800219,1110071,0,0,0,0,1200070,-1060140,11010419,0,11111809,3160070,0,41610419
18,82,860.83859950304,1,0,1498038.67170331,1498039.71872205,0,NumLock,4,1,1,20,5,42921920,30661640,16483120,33941708,0,0,41810919,0,0,0,0,0,1111001,4130200,3200000,0,0,0,20211409,3120031,0,0,0,-1030061,0,0,0,3040150,0,1001200,11411709,20800219,0,10111419,0,0,0,3030070,0,0
18,83,492.992617888376,1,0,1498041.73048761,1498042.77747133,0,NumLock,4,0,1,10,5,72624337,7181333,6101263,87863280,0,0,30101409,0,0,0,0,31211109,11311819,-3000091,0,0,0,1091131,0,0,0,3090111,1050001,3020121,0,0,0,0,0,0,2031141,0,0,40701709,0,2141141,0,41900309,0,3120121
18,84,1468.51833979599,0,0,1498044.40095834,1498045.44799056,0,NumLock,4,1,0,36,5,5171331,7332180,56631839,88573418,0,0,0,1080151,0,4091180,0,0,0,0,3171060,0,0,4161120,0,0,0,0,30911119,21610509,0,0,1050180,0,0,3060031,0,30400309,32000119,2191031,0,20800809,0,0,0,-3181150
18,85,854.155677137896,0,0,1498048.11850324,1498049.16552391,0,NumLock,4,0,0,6,20,112046785,119944625,70017666,80597388,42000309,20210609,10511009,10800719,0,-4100161,2021050,10701719,11701209,11410319,0,11100419,21600119,0,3121040,31311719,41401009,0,1171201,2100010,12010909,20801309,11211509,11910719,0,10812009,0,2021021,20900019,0,10910409,1131071,0,20502009,4121050,21011809
18,86,1481.90227756277,0,0,1498051.21254381,1498052.25956025,0,NumLock,4,0,0,19,5,50852509,52122438,21801830,3300330,30810819,1000030,11911519,0,3040021,0,0,0,4090120,0,11510619,0,0,0,0,0,0,40611819,-4050001,0,0,11611619,2000100,0,4140110,0,0,0,2100140,0,0,0,0,0,0,1200190
18,87,982.815405121073,1,0,1498054.80068909,1498055.84770361,0,NumLock,4,0,1,3,10,32204089,37353689,186847665,80165118,0,0,-1001070,0,1201110,0,0,0,30001909,0,4201060,1031020,0,0,1120100,0,31001509,0,32001809,40000909,41300619,2041000,0,0,40501309,31002019,0,40512019,11401119,0,0,0,0,22010709,2180200,4061071
18,88,644.730755127966,1,0,1498057.84767627,1498058.89468155,0,NumLock,4,0,1,8,0,6211301,6210291,1050031,2140101,0,0,0,0,3060081,2131120,0,-1020100,0,0,0,0,3120150,0,0,0,0,3090141,0,0,0,0,0,1050031,0,0,0,0,0,0,0,1080080,0,0,1060021,0
18,89,989.460985874757,1,0,1498060.72992981,1498061.77695009,0,NumLock,4,1,1,5,20,181807485,69195017,94674568,228747512,1150090,31401719,40010719,11911819,-3131001,41101909,0,11900209,41200019,3060110,10202009,0,0,30612009,0,0,4010080,21310809,3060120,30301819,3021081,41100319,3001050,0,0,11010009,3180170,41300819,20411509,40411019,31410409,31801819,20700309,31301519,11410109,0
18,90,705.191953573376,1,0,1498063.87104148,1498064.91804444,0,NumLock,4,0,1,17,5,49051860,65671671,31912019,47712731,0,41711619,4000080,1160010,0,2180151,0,0,0,0,40311019,0,0,1070051,20100219,3170181,-1020201,0,31912019,0,0,0,0,0,0,0,0,0,0,0,3091001,0,3111021,0,0,41510709
18,91,824.009769363329,0,0,1498066.64741612,1498067.69443294,0,NumLock,4,0,0,24,0,8291212,4091111,7342182,3100151,4100090,0,1140051,0,0,0,0,3051071,0,0,0,0,0,0,4091111,0,0,0,0,0,0,0,2081061,-3191000,2070121,0,0,0,0,3100151,0,0,0,0,0,0
18,92,833.237283630297,0,0,1498069.56498058,1498070.61201434,0,NumLock,4,0,0,26,0,5280141,6322311,7121181,4061161,0,0,0,1120081,0,0,0,0,4160060,4200170,0,0,0,0,0,1071060,1051081,0,0,0,0,0,0,0,0,-3011011,4110170,0,4061161,0,0,0,0,0,0,0
18,93,1695.28652331792,0,0,1498072.45902123,1498073.50605306,0,NumLock,4,0,0,1,10,39044551,80125997,84864748,76446278,-2111130,0,0,1011161,3040190,1070061,0,31812009,0,0,2161010,0,21300509,4061040,10901719,41701719,0,0,0,0,0,30610809,0,0,20201919,31011909,3040111,30202019,0,0,3031031,0,0,11701409,0,31511819
18,94,1046.36514536105,1,0,1498076.31774402,1498077.36476508,0,NumLock,4,1,1,7,20,126545326,145147507,110815857,184946413,30100119,2091040,0,20511809,0,0,-3130030,40700709,30011619,21011219,0,4201101,41612019,20200919,2170170,11910819,2031151,42010109,30211209,4130091,0,41911719,0,10800019,2131010,20510709,1121100,10211819,10800019,0,40400419,31610119,40701319,30911609,0,20311109
18,95,919.312244746834,0,0,1498079.61177027,1498080.65879402,0,NumLock,4,1,0,22,0,5190160,0,5241270,10413453,0,1060110,0,0,4130050,0,0,0,0,0,0,0,0,0,0,0,0,0,3161070,0,0,-2080200,0,0,0,0,0,0,0,2001141,0,0,0,4131130,1121051,3160131
18,96,925.120150670409,1,0,1498082.74109483,1498083.7881155,0,NumLock,4,1,1,25,0,7192242,2031201,10332470,2061061,0,0,3031161,3060071,0,0,0,0,1101010,0,2031201,0,0,0,0,0,0,0,0,0,3170120,3141150,0,0,-4021200,0,0,0,0,0,0,0,2061061,0,0,0
18,97,1158.74564391561,0,0,1498089.82325435,1498090.87032853,0,NumLock,5,0,0,3,10,27654919,79974528,70294379,83222257,11401609,0,-1101160,11011009,0,0,0,4141141,0,41811409,0,2160010,0,0,2011200,30801819,0,3190090,0,21900509,1100011,3201021,30801619,0,2091010,11200209,0,0,31101119,0,30810819,0,0,21310319,0,0
18,98,682.331047020853,0,0,1498093.0466957,1498094.09372484,0,NumLock,5,0,0,8,10,52503331,45951548,76804687,91012518,0,0,41211809,4010161,0,2130070,2041181,-3110110,0,10100509,11000909,0,0,0,21800109,3050021,0,0,40601619,0,0,12011119,0,4191030,0,0,20000919,0,0,4000111,0,41411619,20510309,3090060,0,22000419
18,99,620.95787585713,0,0,1498095.8231046,1498096.8701245,0,NumLock,5,1,0,22,0,5190160,0,5241270,10413453,0,1060110,0,0,4130050,0,0,0,0,0,0,0,0,0,0,0,0,0,3161070,0,0,-2080200,0,0,0,0,0,0,0,2001141,0,0,0,4131130,1121051,3160131
18,100,948.048425605521,1,0,1498098.68185858,1498099.72887232,0,NumLock,5,0,1,26,5,24311799,52302628,77204501,3201261,0,0,0,0,1120200,2091190,0,0,21100409,0,0,0,21200819,31101809,0,0,0,0,1041001,0,1071041,31900819,40000519,0,0,-1020021,2171100,0,0,0,0,0,2111111,0,1090150,0
18,101,1563.63372411579,1,0,1498101.7523534,1498102.79936906,0,NumLock,5,1,1,5,20,181807485,69195017,94674568,228747512,1150090,31401719,40010719,11911819,-3131001,41101909,0,11900209,41200019,3060110,10202009,0,0,30612009,0,0,4010080,21310809,3060120,30301819,3021081,41100319,3001050,0,0,11010009,3180170,41300819,20411509,40411019,31410409,31801819,20700309,31301519,11410109,0
18,102,2193.53379588574,0,0,1498105.55230535,1498106.59930678,0,NumLock,5,1,0,30,10,44462209,72462008,83220409,69152927,2040181,0,21710709,0,0,0,0,20711319,0,0,1070130,4090010,0,31000009,4191031,0,11510719,20600109,0,0,41310119,0,40800219,1110071,0,0,0,0,1200070,-1060140,11010419,0,11111809,3160070,0,41610419
18,103,561.555319931358,0,0,1498109.89330377,1498110.94033291,0,NumLock,5,0,0,10,5,37053859,65813638,1180160,30462181,0,20902019,0,4151071,0,0,10800709,1200060,0,-2090010,0,0,21712019,0,0,42011609,0,0,1180160,0,0,0,0,0,0,0,0,0,0,1060201,20901819,4170040,0,2190111,0,2140010
18,104,1206.62054372951,0,0,1498112.69324264,1498113.74024907,0,NumLock,5,0,0,35,5,62044518,11291302,48172201,27393210,0,0,20211809,1121000,0,0,0,0,40711709,0,0,0,4030080,0,0,3170091,4091131,0,0,4150121,2111161,0,0,0,0,41910919,0,0,11600319,0,0,0,10700609,0,-3011081,2081201
18,105,723.77478913404,1,0,1498115.99901482,1498117.04608284,0,NumLock,5,1,1,27,0,4020101,7051281,7321283,5292191,0,0,0,0,4020101,0,0,0,0,0,0,4001130,0,0,0,0,3050151,0,0,0,0,0,0,3051111,0,1110091,-3160081,0,1121160,0,0,0,4171031,0,0,0
18,106,1068.52080347016,0,0,1498118.78718081,1498119.83421304,0,NumLock,5,1,0,13,20,103377057,99318196,209577804,78012648,21610709,3011191,10700319,11511609,12011419,21410309,1200141,1110151,20811209,20901909,2080110,30800919,-1111111,12001309,11110919,0,21311919,0,40310909,40900819,11210709,40111019,41111319,0,31912009,0,4021020,10900609,1150131,4151070,20610119,41200719,0,0,0,0
18,107,1098.05462369695,1,0,1498122.05768095,1498123.10470624,0,NumLock,5,0,1,1,20,175607715,161445655,63184998,174698373,-4090170,3141060,40610809,31301719,0,11311219,42000119,1151000,42001619,1120140,0,32011409,40811319,21811409,31900909,2080060,0,31710409,1051171,10611309,0,0,0,30012009,0,21510509,0,4161100,3190060,30700819,12012019,20110409,40801019,11510909,42011819,10200219
18,108,863.615323090926,1,0,1498125.38699773,1498126.43402918,0,NumLock,5,1,1,20,5,42921920,30661640,16483120,33941708,0,0,41810919,0,0,0,0,0,1111001,4130200,3200000,0,0,0,20211409,3120031,0,0,0,-1030061,0,0,0,3040150,0,1001200,11411709,20800219,0,10111419,0,0,0,3030070,0,0
18,109,1740.24880863726,1,0,1498128.36338653,1498129.41041914,0,NumLock,5,0,1,6,0,4291230,7352351,1170000,4232172,0,0,0,0,0,-2201060,0,0,2090170,0,4171170,0,0,0,0,0,3181181,0,0,0,1170000,0,0,0,0,0,0,0,1051030,2121031,0,0,1060111,0,0,0
18,110,1416.36998811737,1,0,1498132.36327759,1498133.41030942,0,NumLock,5,1,1,36,5,5171331,7332180,56631839,88573418,0,0,0,1080151,0,4091180,0,0,0,0,3171060,0,0,4161120,0,0,0,0,30911119,21610509,0,0,1050180,0,0,3060031,0,30400309,32000119,2191031,0,20800809,0,0,0,-3181150
18,111,1014.3567963969,0,0,1498135.90434869,1498136.95138014,0,NumLock,5,1,0,31,5,6133291,36492489,38244028,64782549,0,0,0,1091071,0,4021120,0,1021100,0,0,0,0,3110000,0,0,2071080,31311409,0,0,2151130,0,0,3081070,0,21911409,11100419,0,0,0,0,-4170031,40210809,0,0,0,20401709
18,112,1334.89146083593,1,0,1498139.03374793,1498140.08071316,0,NumLock,5,1,1,7,20,126545326,145147507,110815857,184946413,30100119,2091040,0,20511809,0,0,-3130030,40700709,30011619,21011219,0,4201101,41612019,20200919,2170170,11910819,2031151,42010109,30211209,4130091,0,41911719,0,10800019,2131010,20510709,1121100,10211819,10800019,0,40400419,31610119,40701319,30911609,0,20311109
18,113,869.838986778632,0,0,1498142.62183238,1498143.66885921,0,NumLock,5,1,0,25,0,7192242,2031201,10332470,2061061,0,0,3031161,3060071,0,0,0,0,1101010,0,2031201,0,0,0,0,0,0,0,0,0,3170120,3141150,0,0,-4021200,0,0,0,0,0,0,0,2061061,0,0,0
18,114,1305.89196668006,0,0,1498145.57468275,1498146.62170997,0,NumLock,5,0,0,34,10,145695735,60275290,60414740,42311399,20101709,0,20300809,30410609,0,41111209,30600319,0,3171080,41502009,4031030,0,2041191,1190151,11510909,0,0,0,30601419,0,2121140,0,0,2140001,21501119,0,4051061,0,0,0,0,0,40111219,-2200180,0,0
18,115,1317.73375091143,0,0,1498149.11576809,1498150.16279954,0,NumLock,5,0,0,17,20,125136489,178526415,107326406,197468505,0,40500709,31810819,0,3161050,3081021,41400519,4031191,1151180,0,20511119,41500719,0,21301209,21011619,40011619,-3080021,31110109,20200509,0,20300609,11601809,4011151,0,20510519,30701809,0,40300309,30700409,2011120,31310809,0,20101619,30511609,1121121,41411509
18,116,616.229785373434,0,0,1498152.58625622,1498153.63329075,0,NumLock,5,0,0,19,20,193538667,117254716,89704047,168038065,40701619,40300909,3040140,0,41110919,4201141,1071121,41511909,21600909,0,30400219,0,20700819,0,11801609,31701619,21510309,1140141,-3121000,0,10101009,20400309,40310419,2000140,0,11711019,2060151,20801809,0,31801519,40210709,2020191,20102009,0,41300209,11801619
18,117,731.909014284611,1,0,1498155.26853485,1498156.31556129,0,NumLock,5,0,1,16,0,4091021,8232110,6121031,1051110,0,3070001,0,0,1021020,0,0,0,0,0,0,4030000,0,0,0,-1161080,0,3041030,3001030,3120001,0,0,0,0,0,0,0,0,0,0,1051110,0,0,0,0,0
18,118,1169.12765591405,1,0,1498158.12728458,1498159.17430487,0,NumLock,5,0,1,24,0,8321552,3011150,7202261,3070180,0,0,3040201,3190200,0,2091151,0,0,0,0,3011150,0,0,0,0,0,0,0,0,0,0,2050091,0,-1101060,0,4051110,0,0,0,0,0,0,0,0,3070180,0
18,119,636.50182960555,1,0,1498161.53895645,1498162.58598828,0,NumLock,5,1,1,4,10,78795248,80945228,26362381,105335427,42011709,0,0,-3121120,0,30501419,0,0,3161000,0,30401109,31411319,0,0,4141071,10811619,0,4180110,0,21011109,0,0,2150121,2040011,0,0,1161140,30200609,0,30010119,10011919,0,31911709,3201071,0,0
18,120,580.197054427117,1,0,1498164.37421741,1498165.42119573,0,NumLock,5,1,1,15,10,16981770,85293417,101102718,76924469,0,0,3170001,11701619,0,2110150,0,0,0,0,0,0,30500819,0,-1170060,0,11611719,42010819,42010809,4071091,10010409,4000100,41010309,0,0,0,0,10700619,0,1110121,21011309,2010050,41001209,0,1091161,0
18,121,1046.60690086894,1,0,1498170.44460329,1498171.49166399,0,NumLock,6,0,1,26,20,156645585,144022975,52734869,174159064,40210409,3181110,20000409,20001719,10510109,30210919,0,30410819,2120091,40200119,0,0,0,0,10900309,30811419,30210619,31900509,21200109,10010419,0,3061151,4101080,10110809,2090130,-2161171,0,21701919,3181150,40101219,11500709,31610219,20001009,41901819,0,4161020
18,122,1127.79362779111,1,0,1498173.59745396,1498174.64450735,0,NumLock,6,1,1,7,20,126545326,145147507,110815857,184946413,30100119,2091040,0,20511809,0,0,-3130030,40700709,30011619,21011219,0,4201101,41612019,20200919,2170170,11910819,2031151,42010109,30211209,4130091,0,41911719,0,10800019,2131010,20510709,1121100,10211819,10800019,0,40400419,31610119,40701319,30911609,0,20311109
18,123,533.631406724453,0,0,1498176.89147944,1498177.93851128,0,NumLock,6,1,0,22,0,5190160,0,5241270,10413453,0,1060110,0,0,4130050,0,0,0,0,0,0,0,0,0,0,0,0,0,3161070,0,0,-2080200,0,0,0,0,0,0,0,2001141,0,0,0,4131130,1121051,3160131
18,124,950.475604506209,0,0,1498179.67964313,1498180.72666072,0,NumLock,6,0,0,6,0,9373341,8261183,0,7081131,0,0,1191180,4051110,0,-4131051,0,0,0,3030041,4070071,0,0,1161071,0,0,0,0,0,0,0,0,0,0,0,0,0,0,0,0,0,4051010,0,3030121,0,0
18,125,753.698189742863,1,0,1498182.67955612,1498183.72658757,0,NumLock,6,1,1,25,0,7192242,2031201,10332470,2061061,0,0,3031161,3060071,0,0,0,0,1101010,0,2031201,0,0,0,0,0,0,0,0,0,3170120,3141150,0,0,-4021200,0,0,0,0,0,0,0,2061061,0,0,0
18,126,1017.32330559753,0,0,1498185.5618316,1498186.60886266,0,NumLock,6,0,0,19,20,188629084,88914527,107046586,89375754,0,20911609,41700909,41702009,21911119,42001919,20401519,0,0,1181111,10701119,30510319,31010619,0,4080000,1020150,0,10411209,-1140120,20300819,0,31601219,1171150,40511219,10000809,1200080,1121170,20510009,0,11011719,12000819,20700919,10411009,0,4031060,10710219
18,127,594.19192536734,0,0,1498188.80880215,1498189.85582821,0,NumLock,6,1,0,15,10,16981770,85293417,101102718,76924469,0,0,3170001,11701619,0,2110150,0,0,0,0,0,0,30500819,0,-1170060,0,11611719,42010819,42010809,4071091,10010409,4000100,41010309,0,0,0,0,10700619,0,1110121,21011309,2010050,41001209,0,1091161,0
18,128,1401.90969966352,0,0,1498191.58520219,1498192.63222209,0,NumLock,6,1,0,13,20,103377057,99318196,209577804,78012648,21610709,3011191,10700319,11511609,12011419,21410309,1200141,1110151,20811209,20901909,2080110,30800919,-1111111,12001309,11110919,0,21311919,0,40310909,40900819,11210709,40111019,41111319,0,31912009,0,4021020,10900609,1150131,4151070,20610119,41200719,0,0,0,0
18,129,1051.64642469026,1,0,1498195.17334516,1498196.220382,0,NumLock,6,0,1,3,5,48001949,16173910,50021962,33401438,0,0,-1050050,0,0,2150120,0,4190060,40611719,2201200,3171101,0,0,0,0,0,0,10801609,0,0,0,4170091,40701609,0,1050161,4100101,0,0,0,0,0,22000219,0,0,11401219,0
18,130,1126.27688143402,0,0,1498198.39682309,1498199.44380526,0,NumLock,6,0,0,34,10,51681508,60964018,81953059,97101488,0,0,0,10410409,40110919,0,0,0,1160180,3091190,2110160,2151030,0,0,0,41811219,11800419,0,0,3070001,21100319,2180001,0,42010509,0,2191010,11401219,0,0,0,41410109,0,0,-4171161,31510209,20010009
18,131,685.1555055473,0,0,1498201.64375475,1498202.69077389,0,NumLock,6,1,0,5,20,181807485,69195017,94674568,228747512,1150090,31401719,40010719,11911819,-3131001,41101909,0,11900209,41200019,3060110,10202009,0,0,30612009,0,0,4010080,21310809,3060120,30301819,3021081,41100319,3001050,0,0,11010009,3180170,41300819,20411509,40411019,31410409,31801819,20700309,31301519,11410109,0
18,132,1067.65579618514,0,0,1498204.53778501,1498205.584818,0,NumLock,6,1,0,30,10,44462209,72462008,83220409,69152927,2040181,0,21710709,0,0,0,0,20711319,0,0,1070130,4090010,0,31000009,4191031,0,11510719,20600109,0,0,41310119,0,40800219,1110071,0,0,0,0,1200070,-1060140,11010419,0,11111809,3160070,0,41610419
18,133,836.964090820402,1,0,1498207.77299077,1498208.8200176,0,NumLock,6,0,1,1,0,5021042,7251120,4081111,8391272,-3011021,0,0,2010021,0,0,0,0,0,0,0,0,3090110,0,0,4161010,0,0,0,0,0,0,0,4081111,0,0,0,0,0,2150190,0,0,0,2200041,4041041,0
18,134,451.052661053836,0,0,1498210.83173042,1498211.87876149,0,NumLock,6,0,0,10,0,10361442,8332271,1171091,3101181,3130131,2061110,0,0,0,1020050,4150151,0,0,-4131190,0,0,4201081,0,0,0,0,0,1171091,0,0,0,0,0,0,0,0,0,0,0,0,3101181,0,0,0,0
18,135,873.633546987548,0,0,1498213.4552463,1498214.50223926,0,NumLock,6,1,0,20,5,42921920,30661640,16483120,33941708,0,0,41810919,0,0,0,0,0,1111001,4130200,3200000,0,0,0,20211409,3120031,0,0,0,-1030061,0,0,0,3040150,0,1001200,11411709,20800219,0,10111419,0,0,0,3030070,0,0
18,136,671.610654098913,0,0,1498216.45511618,1498217.50214148,0,NumLock,6,0,0,17,20,94227908,119134307,166165993,121986647,11010919,4121081,1061121,0,31700909,21801609,10501419,2020031,12010819,0,2140121,41601409,0,21401209,0,30610619,-3080040,20300909,11511119,10810509,21810909,0,40500019,0,30210919,30710809,20611709,11711019,41400219,3201030,40601519,0,0,21000619,2041081,2031160
18,137,855.299011338502,1,0,1498219.27856115,1498220.32558875,0,NumLock,6,1,1,27,0,4020101,7051281,7321283,5292191,0,0,0,0,4020101,0,0,0,0,0,0,4001130,0,0,0,0,3050151,0,0,0,0,0,0,3051111,0,1110091,-3160081,0,1121160,0,0,0,4171031,0,0,0
18,138,1072.37849733792,1,0,1498222.23141652,1498223.27844952,0,NumLock,6,0,1,24,10,17292860,42671769,59353827,167037676,0,0,0,0,0,0,3051051,10111809,4130000,0,1081070,0,40410619,0,0,0,1180080,0,20500319,2201050,20111709,4110170,10400519,-2030060,0,0,0,2011111,31701819,31000009,0,40101419,40611409,0,0,21611909
18,139,1599.22528988682,1,0,1498225.41957043,1498226.46659495,0,NumLock,6,1,1,4,10,78795248,80945228,26362381,105335427,42011709,0,0,-3121120,0,30501419,0,0,3161000,0,30401109,31411319,0,0,4141071,10811619,0,4180110,0,21011109,0,0,2150121,2040011,0,0,1161140,30200609,0,30010119,10011919,0,31911709,3201071,0,0
18,140,729.833689751104,1,0,1498229.14894634,1498230.19598626,0,NumLock,6,0,1,8,10,69034148,105743928,77384866,19501940,2080150,0,0,40200819,0,0,21601109,-4111070,1041000,21702009,3021191,0,0,40510709,0,0,0,40510019,2021120,0,0,0,31410409,10800919,2050180,10602019,20500219,0,0,0,4120011,11201909,4180020,0,0,0
18,141,541.245934553444,0,0,1498232.11350799,1498233.16053135,0,NumLock,6,0,0,16,5,28633551,80715660,34751320,24971419,0,0,21201319,2171030,3150091,0,2111111,0,0,31601519,2141171,2081041,40811819,0,0,-4080110,0,0,31610119,0,0,0,0,0,0,0,3141201,0,0,3060010,0,0,0,0,21911409,0
18,142,1452.06356840208,1,0,1498234.85460557,1498235.90163317,0,NumLock,6,1,1,36,5,5171331,7332180,56631839,88573418,0,0,0,1080151,0,4091180,0,0,0,0,3171060,0,0,4161120,0,0,0,0,30911119,21610509,0,0,1050180,0,0,3060031,0,30400309,32000119,2191031,0,20800809,0,0,0,-3181150
18,143,1318.67382558994,0,0,1498238.52509631,1498239.57212083,0,NumLock,6,0,0,35,5,45172319,8251172,54912590,25751800,0,0,0,21411309,0,2161001,0,21600009,0,0,3030001,0,1080110,0,0,0,4141061,0,0,2141111,20410909,0,30300519,0,0,2060051,0,0,0,0,0,2071121,0,0,-2070160,21610519
18,144,1606.56534042209,1,0,1498242.03096581,1498243.07791796,0,NumLock,6,1,1,31,5,6133291,36492489,38244028,64782549,0,0,0,1091071,0,4021120,0,1021100,0,0,0,0,3110000,0,0,2071080,31311409,0,0,2151130,0,0,3081070,0,21911409,11100419,0,0,0,0,-4170031,40210809,0,0,0,20401709
18,145,734.494797186926,1,0,1498249.46596823,1498250.51301123,0,NumLock,7,1,1,5,20,181807485,69195017,94674568,228747512,1150090,31401719,40010719,11911819,-3131001,41101909,0,11900209,41200019,3060110,10202009,0,0,30612009,0,0,4010080,21310809,3060120,30301819,3021081,41100319,3001050,0,0,11010009,3180170,41300819,20411509,40411019,31410409,31801819,20700309,31301519,11410109,0
18,146,582.155350828543,0,0,1498252.30118877,1498253.34821599,0,NumLock,7,0,0,8,5,32111600,26621970,54423019,19253601,30100509,0,0,0,0,0,0,-2011091,0,0,0,4191090,1130161,0,21300719,0,0,0,20700909,0,0,0,2010200,0,1201201,0,30510709,4191111,0,2080050,0,0,0,0,2071021,10911419
18,147,607.591261388734,0,0,1498255.11288627,1498256.15991003,0,NumLock,7,1,0,15,10,16981770,85293417,101102718,76924469,0,0,3170001,11701619,0,2110150,0,0,0,0,0,0,30500819,0,-1170060,0,11611719,42010819,42010809,4071091,10010409,4000100,41010309,0,0,0,0,10700619,0,1110121,21011309,2010050,41001209,0,1091161,0
18,148,1132.26918387227,0,0,1498257.79515875,1498258.84218904,0,NumLock,7,0,0,35,20,155535395,131974578,106365755,112135207,0,31611619,0,21112019,30410319,41400019,31001419,0,0,3010140,1081141,2141021,10010019,30800009,3120021,10001109,40810609,31000509,12010319,20601719,0,20201409,21210319,0,0,1140070,31201919,11601009,31000419,1120151,30110619,21710509,10501409,0,-3020091,3071000
18,149,1212.76683057658,0,0,1498261.06566465,1498262.11275038,0,NumLock,7,0,0,26,10,70522428,84693158,69402647,37142720,30310019,0,21110919,3060061,4030020,0,0,12011409,0,41310219,21410909,1160021,0,0,0,20812009,0,0,0,0,3170190,0,11901509,10900509,0,-3030130,40400309,2070030,0,30711509,2171000,0,2190181,0,0,0
18,150,948.792555369437,1,0,1498264.51262281,1498265.55965541,0,NumLock,7,1,1,27,0,4020101,7051281,7321283,5292191,0,0,0,0,4020101,0,0,0,0,0,0,4001130,0,0,0,0,3050151,0,0,0,0,0,0,3051111,0,1110091,-3160081,0,1121160,0,0,0,4171031,0,0,0
18,151,2008.23091273196,1,0,1498267.68900884,1498268.73603105,0,NumLock,7,0,1,24,10,26715169,73721137,53574300,48186797,0,0,2191150,1071060,0,0,20411819,3041140,0,31510809,0,0,0,0,11310209,30900119,0,0,0,20011219,22000719,0,4201010,-1191011,0,4010160,2160181,2061141,0,0,12010619,11301519,0,0,12002009,10811509
18,152,973.025847692043,0,0,1498271.77124613,1498272.81827257,0,NumLock,7,1,0,13,20,103377057,99318196,209577804,78012648,21610709,3011191,10700319,11511609,12011419,21410309,1200141,1110151,20811209,20901909,2080110,30800919,-1111111,12001309,11110919,0,21311919,0,40310909,40900819,11210709,40111019,41111319,0,31912009,0,4021020,10900609,1150131,4151070,20610119,41200719,0,0,0,0
18,153,886.373830260709,0,0,1498274.88879896,1498275.93583233,0,NumLock,7,1,0,25,0,7192242,2031201,10332470,2061061,0,0,3031161,3060071,0,0,0,0,1101010,0,2031201,0,0,0,0,0,0,0,0,0,3170120,3141150,0,0,-4021200,0,0,0,0,0,0,0,2061061,0,0,0
18,154,836.962935980409,0,0,1498277.86519739,1498278.91222884,0,NumLock,7,0,0,6,20,153328867,85502848,207336503,102405789,40811309,31611119,42011219,20711209,0,-2101011,4171181,0,11911819,0,0,21310419,30210619,31811809,0,0,2170001,0,20101809,32000109,20410309,20600919,40210409,20500319,41311509,10200109,2001011,0,1081151,3091161,31300819,1150150,10600019,3071071,40410309,11701109
18,155,954.93922685273,0,0,1498280.91217109,1498281.95919947,0,NumLock,7,0,0,1,5,15353021,19234120,44251469,63642968,-2000120,0,2051171,0,0,10300619,0,0,1001111,0,0,0,3071111,1080060,3181130,11901819,0,0,0,41100309,0,3151160,0,0,0,0,0,2141150,0,0,0,21500009,0,0,40001809,0
18,156,517.026115674526,0,0,1498284.05326314,1498285.10028573,0,NumLock,7,1,0,4,10,78795248,80945228,26362381,105335427,42011709,0,0,-3121120,0,30501419,0,0,3161000,0,30401109,31411319,0,0,4141071,10811619,0,4180110,0,21011109,0,0,2150121,2040011,0,0,1161140,30200609,0,30010119,10011919,0,31911709,3201071,0,0
18,157,542.150207795203,1,0,1498286.75908097,1498287.80609741,0,NumLock,7,0,1,3,0,12433324,3040140,5211162,2051070,0,0,-3021021,0,4201151,0,2181061,3030091,0,0,3040140,0,0,0,0,0,0,0,0,1141091,0,0,0,4070071,0,0,0,0,0,0,0,0,0,0,0,2051070
18,158,653.222993947566,0,0,1498289.5119395,1498290.55896903,0,NumLock,7,1,0,20,5,42921920,30661640,16483120,33941708,0,0,41810919,0,0,0,0,0,1111001,4130200,3200000,0,0,0,20211409,3120031,0,0,0,-1030061,0,0,0,3040150,0,1001200,11411709,20800219,0,10111419,0,0,0,3030070,0,0
18,159,495.96105189994,1,0,1498292.39421575,1498293.44124181,0,NumLock,7,0,1,16,0,11271501,3251172,2290272,0,4061160,4070041,1060170,0,2080130,0,0,0,0,0,1170041,0,0,0,0,-2081131,0,0,0,0,1160141,0,1130131,0,0,0,0,0,0,0,0,0,0,0,0,0
18,160,1308.73682815582,0,0,1498295.0883069,1498296.13530563,0,NumLock,7,1,0,30,10,44462209,72462008,83220409,69152927,2040181,0,21710709,0,0,0,0,20711319,0,0,1070130,4090010,0,31000009,4191031,0,11510719,20600109,0,0,41310119,0,40800219,1110071,0,0,0,0,1200070,-1060140,11010419,0,11111809,3160070,0,41610419
18,161,1362.58054804057,0,0,1498298.52345599,1498299.57048744,0,NumLock,7,0,0,34,5,27130908,9392332,63413538,35362341,0,0,0,0,4150130,10210519,1170040,0,11600219,0,0,0,0,2160050,2071091,3080051,0,2081140,0,0,0,0,0,0,31411519,0,32002019,0,0,4191161,0,0,0,-1161061,0,30010119
18,162,844.112430932,1,0,1498301.94689419,1498302.99392179,0,NumLock,7,0,1,19,0,4101061,3171221,6372411,6150221,4101061,0,0,0,0,0,0,0,0,0,0,2010131,0,1161090,0,0,0,0,-1171050,0,0,0,3070180,0,0,2131181,0,2010101,0,0,0,0,0,4140120,0,0
18,163,755.003977334127,1,0,1498304.88799208,1498305.93501006,0,NumLock,7,0,1,17,10,17881271,41031042,95532956,136834266,0,0,0,4100021,0,3170131,10611119,0,0,0,3100090,2100101,0,30700719,3110020,0,-1010061,1010051,30511419,12010709,0,11900209,41110619,0,0,0,0,0,40300309,41600909,0,0,2011110,0,21011919,31910019
18,164,1037.08912618458,1,0,1498307.84085477,1498308.88787621,0,NumLock,7,1,1,31,5,6133291,36492489,38244028,64782549,0,0,0,1091071,0,4021120,0,1021100,0,0,0,0,3110000,0,0,2071080,31311409,0,0,2151130,0,0,3081070,0,21911409,11100419,0,0,0,0,-4170031,40210809,0,0,0,20401709
18,165,461.304941447452,1,0,1498310.94665089,1498311.99367695,0,NumLock,7,0,1,10,20,146768793,85715698,42713369,178107144,21510409,0,10311619,20812019,10901719,41210409,0,21311409,20711209,-4010180,30910419,11401109,0,31111619,1121030,0,4110200,3051141,1111171,11910109,11510409,3030001,0,0,4151170,11000509,0,30910319,0,21800109,3071051,20611809,10201219,30301209,31101109,30110319
18,166,492.240789113566,1,0,1498313.49951566,1498314.5465525,0,NumLock,7,1,1,22,0,5190160,0,5241270,10413453,0,1060110,0,0,4130050,0,0,0,0,0,0,0,0,0,0,0,0,0,3161070,0,0,-2080200,0,0,0,0,0,0,0,2001141,0,0,0,4131130,1121051,3160131
18,167,955.459693912417,0,0,1498316.09944883,1498317.14647758,0,NumLock,7,1,0,7,20,126545326,145147507,110815857,184946413,30100119,2091040,0,20511809,0,0,-3130030,40700709,30011619,21011219,0,4201101,41612019,20200919,2170170,11910819,2031151,42010109,30211209,4130091,0,41911719,0,10800019,2131010,20510709,1121100,10211819,10800019,0,40400419,31610119,40701319,30911609,0,20311109
18,168,1487.13928647339,1,0,1498319.2405324,1498320.28757001,0,NumLock,7,1,1,36,5,5171331,7332180,56631839,88573418,0,0,0,1080151,0,4091180,0,0,0,0,3171060,0,0,4161120,0,0,0,0,30911119,21610509,0,0,1050180,0,0,3060031,0,30400309,32000119,2191031,0,20800809,0,0,0,-3181150
18,169,428.535524522886,0,0,1498326.6991568,1498327.74618286,0,NumLock,8,1,0,15,10,16981770,85293417,101102718,76924469,0,0,3170001,11701619,0,2110150,0,0,0,0,0,0,30500819,0,-1170060,0,11611719,42010819,42010809,4071091,10010409,4000100,41010309,0,0,0,0,10700619,0,1110121,21011309,2010050,41001209,0,1091161,0
18,170,614.009715383872,1,0,1498329.36967063,1498330.41679332,0,NumLock,8,0,1,17,10,120445176,26000700,63025856,42084351,2011070,11111419,0,31400209,31410219,0,0,4111140,40401119,20900419,0,0,0,0,0,0,-2080171,3020110,0,30210819,11801809,10811509,0,0,10201719,0,0,31611109,2081021,0,0,3190000,2121171,0,0,3081050
18,171,1924.76752656512,0,0,1498332.09901844,1498333.14603565,0,NumLock,8,0,0,24,10,87192509,33462050,44144338,122515208,40410509,0,0,0,0,4031201,2150180,0,40600619,0,0,3161141,0,0,30300909,0,0,0,0,0,0,10411519,11811409,-4141171,11600119,4000080,2180040,0,21511219,42011209,0,40700519,10101219,0,4110021,4081021
18,172,1280.84063227288,0,0,1498336.11067082,1498337.15769496,0,NumLock,8,1,0,25,0,7192242,2031201,10332470,2061061,0,0,3031161,3060071,0,0,0,0,1101010,0,2031201,0,0,0,0,0,0,0,0,0,3170120,3141150,0,0,-4021200,0,0,0,0,0,0,0,2061061,0,0,0
18,173,1167.28022834286,1,0,1498339.62821388,1498340.67524264,0,NumLock,8,0,1,34,5,24772501,77352819,21933089,48412620,3170191,0,0,1201191,0,0,0,20401119,0,0,0,2190171,3150120,0,0,0,41811909,30200619,0,0,0,0,0,1121070,0,20812019,0,0,0,40111409,0,1190020,0,-3030051,0,4081140
18,174,1042.49628772959,1,0,1498342.98107718,1498344.02809631,0,NumLock,8,0,1,26,10,76516707,32250740,121796949,19063179,2190170,10111319,0,0,0,1091191,20611909,20700509,21811609,0,0,0,0,30110719,0,2140021,0,0,3021151,0,40301009,3100081,10401719,41101519,21710419,-2161051,0,11911909,3151110,0,0,0,4000160,0,0,0
18,175,444.485611980781,1,0,1498346.27509266,1498347.32213104,0,NumLock,8,1,1,22,0,5190160,0,5241270,10413453,0,1060110,0,0,4130050,0,0,0,0,0,0,0,0,0,0,0,0,0,3161070,0,0,-2080200,0,0,0,0,0,0,0,2001141,0,0,0,4131130,1121051,3160131
18,176,1048.83428500034,1,0,1498348.83977534,1498349.88678369,0,NumLock,8,1,1,31,5,6133291,36492489,38244028,64782549,0,0,0,1091071,0,4021120,0,1021100,0,0,0,0,3110000,0,0,2071080,31311409,0,0,2151130,0,0,3081070,0,21911409,11100419,0,0,0,0,-4170031,40210809,0,0,0,20401709
18,177,1281.89888992347,1,0,1498351.99258559,1498353.03960934,0,NumLock,8,1,1,5,20,181807485,69195017,94674568,228747512,1150090,31401719,40010719,11911819,-3131001,41101909,0,11900209,41200019,3060110,10202009,0,0,30612009,0,0,4010080,21310809,3060120,30301819,3021081,41100319,3001050,0,0,11010009,3180170,41300819,20411509,40411019,31410409,31801819,20700309,31301519,11410109,0
18,178,993.322914233431,1,0,1498355.41602494,1498356.46304638,0,NumLock,8,1,1,7,20,126545326,145147507,110815857,184946413,30100119,2091040,0,20511809,0,0,-3130030,40700709,30011619,21011219,0,4201101,41612019,20200919,2170170,11910819,2031151,42010109,30211209,4130091,0,41911719,0,10800019,2131010,20510709,1121100,10211819,10800019,0,40400419,31610119,40701319,30911609,0,20311109
18,179,1298.97421831265,0,0,1498358.63946629,1498359.68648773,0,NumLock,8,0,0,35,20,118793418,128644007,145309314,220619235,0,0,32000219,40401109,2040030,1141051,0,41210809,2000200,1080191,4150150,0,41301319,41300219,10401209,0,30410919,0,20810719,21210509,0,30211509,10101809,20011819,1051031,31111609,10800309,41411309,41400619,40001109,40301009,2091101,30701419,21601609,-3111060,0
18,180,557.371949311346,1,0,1498362.00407898,1498363.05110582,0,NumLock,8,1,1,4,10,78795248,80945228,26362381,105335427,42011709,0,0,-3121120,0,30501419,0,0,3161000,0,30401109,31411319,0,0,4141071,10811619,0,4180110,0,21011109,0,0,2150121,2040011,0,0,1161140,30200609,0,30010119,10011919,0,31911709,3201071,0,0
18,181,603.303951211274,0,0,1498364.69812395,1498365.74514654,0,NumLock,8,0,0,3,20,101049048,131926136,157766085,185102595,30201409,11101509,-1001150,0,20812009,2060071,1071001,4000180,30801719,31800409,4041081,10700419,2051180,40411309,0,0,21210119,21711619,0,0,11100609,40400619,31200619,30000719,4151191,10601809,30310519,0,1000100,40600019,40701319,41000819,0,31000119,0,30800219
18,182,492.55722691305,0,0,1498367.50980951,1498368.55683442,0,NumLock,8,0,0,8,5,18013522,46473569,39001781,23312349,10800219,0,0,0,0,2011161,3031061,-2171081,0,31001509,3071100,0,0,0,0,1100151,11300809,0,0,3010061,0,0,31811719,0,0,4180001,0,0,0,0,21111219,0,0,0,2201130,0
18,183,910.627525532618,1,0,1498370.15682187,1498371.20382483,0,NumLock,8,0,1,19,20,159537045,98887066,149556995,118074437,30711609,11400809,40400209,2170200,0,11901209,40010909,21812009,1130091,11311909,10911419,21911509,40100609,0,0,3160030,1191081,10300509,-3111070,0,2021150,10100519,41701109,41410109,20902019,30311019,0,3120110,3131161,0,0,0,40200519,20310919,40600709,10711019
18,184,599.633348407224,1,0,1498373.15670831,1498374.20374707,0,NumLock,8,1,1,20,5,42921920,30661640,16483120,33941708,0,0,41810919,0,0,0,0,0,1111001,4130200,3200000,0,0,0,20211409,3120031,0,0,0,-1030061,0,0,0,3040150,0,1001200,11411709,20800219,0,10111419,0,0,0,3030070,0,0
18,185,416.738010710105,1,0,1498375.95662446,1498377.00365822,0,NumLock,8,0,1,16,0,3101181,7141241,7252281,10492422,0,0,3101181,0,0,0,0,0,0,0,0,4030081,0,0,0,-3111160,0,0,3201090,4051191,0,0,0,0,0,0,0,0,0,0,3151061,0,0,4140191,0,3201170
18,186,1034.07526668161,0,0,1498378.58013264,1498379.6271333,0,NumLock,8,1,0,36,5,5171331,7332180,56631839,88573418,0,0,0,1080151,0,4091180,0,0,0,0,3171060,0,0,4161120,0,0,0,0,30911119,21610509,0,0,1050180,0,0,3060031,0,30400309,32000119,2191031,0,20800809,0,0,0,-3181150
18,187,390.986047452316,0,0,1498381.81530991,1498382.86234252,0,NumLock,8,0,0,10,0,6042172,9191451,3111021,4181350,0,0,0,0,0,0,0,3011011,3031161,-3050120,0,0,4090150,2051181,0,0,0,0,0,0,3111021,0,0,0,0,0,0,0,0,0,0,0,0,3170180,1011170,0
18,188,650.260719237849,0,0,1498384.28582306,1498385.33285143,0,NumLock,8,0,0,6,5,68165869,69321370,13600799,7331311,0,0,40401519,21512009,0,-4081190,0,2171151,0,0,2181061,42000109,0,0,0,3140081,0,22000119,0,0,0,11400609,2200190,0,0,0,0,4021041,0,1200190,0,0,2110080,0,0,0
18,189,1001.55992410146,0,0,1498387.03868428,1498388.08571612,0,NumLock,8,1,0,30,10,44462209,72462008,83220409,69152927,2040181,0,21710709,0,0,0,0,20711319,0,0,1070130,4090010,0,31000009,4191031,0,11510719,20600109,0,0,41310119,0,40800219,1110071,0,0,0,0,1200070,-1060140,11010419,0,11111809,3160070,0,41610419
18,190,782.190690282732,0,0,1498390.12095275,1498391.1679815,0,NumLock,8,0,0,1,0,4071211,7111022,4341162,6161181,-2051130,2020081,0,0,0,0,0,0,0,0,0,0,3100011,0,0,4011011,0,0,2201051,0,0,0,0,0,2140111,0,0,0,3000091,0,0,0,0,3161090,0,0
18,191,878.348163794726,0,0,1498393.07381543,1498394.12084188,0,NumLock,8,1,0,27,0,4020101,7051281,7321283,5292191,0,0,0,0,4020101,0,0,0,0,0,0,4001130,0,0,0,0,3050151,0,0,0,0,0,0,3051111,0,1110091,-3160081,0,1121160,0,0,0,4171031,0,0,0
18,192,806.777376914397,1,0,1498396.05019423,1498397.09728843,0,NumLock,8,1,1,13,20,103377057,99318196,209577804,78012648,21610709,3011191,10700319,11511609,12011419,21410309,1200141,1110151,20811209,20901909,2080110,30800919,-1111111,12001309,11110919,0,21311919,0,40310909,40900819,11210709,40111019,41111319,0,31912009,0,4021020,10900609,1150131,4151070,20610119,41200719,0,0,0,0
18,193,468.073324998841,0,0,1498402.80295805,1498403.84998142,0,NumLock,9,0,0,10,0,8242340,8212312,5151251,4361251,4051180,4191160,0,0,0,0,0,0,0,-4011131,4201181,0,0,0,0,0,0,0,4011190,0,0,0,0,0,0,0,1140061,0,0,0,0,0,3160061,1201190,0,0
18,194,1085.6785136275,0,0,1498405.33231479,1498406.37932777,0,NumLock,9,1,0,31,5,6133291,36492489,38244028,64782549,0,0,0,1091071,0,4021120,0,1021100,0,0,0,0,3110000,0,0,2071080,31311409,0,0,2151130,0,0,3081070,0,21911409,11100419,0,0,0,0,-4170031,40210809,0,0,0,20401709
18,195,751.567815896124,1,0,1498408.67338366,1498409.7204155,0,NumLock,9,0,1,34,5,52331138,4140090,45873511,91962278,0,0,0,20811009,0,1010120,0,30510009,0,0,0,0,4140090,0,0,0,0,0,0,0,0,0,40701309,3041081,0,0,2131121,0,41110219,1191010,0,1130160,40410609,-4120160,4000120,0
18,196,568.736766697839,1,0,1498411.6263218,1498412.67327318,0,NumLock,9,0,1,17,20,109165505,135557017,85663466,119597225,3030121,10701219,11310519,31800609,31510919,10511109,0,0,10301009,0,42010619,21911009,10101809,12001019,4120050,1141031,-3160161,41111319,0,21510409,0,30410409,1180150,20501809,10910609,1150080,0,30801919,41611209,11800419,2140020,0,1031040,20800909,0,11411709
18,197,990.807964466512,1,0,1498414.28499732,1498415.33202569,0,NumLock,9,1,1,20,5,42921920,30661640,16483120,33941708,0,0,41810919,0,0,0,0,0,1111001,4130200,3200000,0,0,0,20211409,3120031,0,0,0,-1030061,0,0,0,3040150,0,1001200,11411709,20800219,0,10111419,0,0,0,3030070,0,0
18,198,831.14194101654,0,0,1498417.39079306,1498418.43782335,0,NumLock,9,1,0,13,20,103377057,99318196,209577804,78012648,21610709,3011191,10700319,11511609,12011419,21410309,1200141,1110151,20811209,20901909,2080110,30800919,-1111111,12001309,11110919,0,21311919,0,40310909,40900819,11210709,40111019,41111319,0,31912009,0,4021020,10900609,1150131,4151070,20610119,41200719,0,0,0,0
18,199,1408.18571811542,1,0,1498420.39071838,1498421.43773481,0,NumLock,9,0,1,24,5,19162449,38812130,102124129,0,4081110,3170130,0,0,0,11911209,0,0,0,0,31601009,0,0,3061070,4150051,0,0,0,0,21111919,0,40510619,2160071,-1061060,4120141,30010119,3150200,0,0,0,0,0,0,0,0,0
18,200,605.662606889382,0,0,1498423.87303327,1498424.92003392,0,NumLock,9,0,0,3,0,8173361,8501510,1051131,4010161,3111161,0,-2011120,3051080,0,0,0,0,0,0,0,0,1180200,0,0,3131120,0,4190190,0,1051131,0,0,0,0,0,0,0,0,4010161,0,0,0,0,0,0,0
18,201,977.268887450919,1,0,1498426.54349129,1498427.59052505,0,NumLock,9,0,1,1,10,119796346,57773668,44192818,39563680,-3191000,10612009,3180100,40801409,20210219,0,41801609,0,0,21810009,0,20010619,0,3081170,1071161,11800709,0,0,21001319,0,20101409,0,0,0,0,3090090,0,30311419,0,0,0,1040111,0,4181050,0,4031100
18,202,636.683531105518,0,0,1498429.70811291,1498430.75513397,0,NumLock,9,0,0,6,10,87196368,61312570,90283669,53311538,40801109,1011080,0,0,11311919,-1001100,30011009,0,3060151,2071041,4140111,30500919,0,0,4000080,20600419,0,0,0,30711109,4100091,30601409,0,0,3170141,0,21700919,41800219,0,0,0,0,0,11511319,0,0
18,203,617.728053592145,1,0,1498432.41396193,1498433.46094064,0,NumLock,9,1,1,22,0,5190160,0,5241270,10413453,0,1060110,0,0,4130050,0,0,0,0,0,0,0,0,0,0,0,0,0,3161070,0,0,-2080200,0,0,0,0,0,0,0,2001141,0,0,0,4131130,1121051,3160131
18,204,700.968547258526,0,0,1498435.27266355,1498436.31968345,0,NumLock,9,0,0,16,20,78673896,88483338,160588444,170206734,0,3111080,11300209,0,10310509,41510609,10300409,0,2141080,10700719,3111110,30510619,2140061,10210409,0,-1110201,0,30700219,0,31601719,1051170,11011109,40310709,3190080,31511819,31601219,10310619,40011709,0,41200019,11110419,21701609,10711809,41311019,4160150,0
18,205,999.515011440963,0,0,1498438.04905859,1498439.09608003,0,NumLock,9,0,0,19,20,89283378,221195395,155845236,91354197,4080121,20300309,2190020,21411719,0,0,41301209,0,0,3050031,30711119,30010819,31300609,2001171,22000719,30210009,31910609,40000309,-1050080,40510209,31000509,0,40611019,10201319,0,31400909,1071191,11901319,4041011,30910219,0,0,10100719,21810619,11500109,1090201
18,206,790.361871477216,1,0,1498441.2372048,1498442.28422816,0,NumLock,9,0,1,8,0,7222401,6180341,7211090,2161101,2091141,0,0,0,0,2100060,0,-3031200,0,0,0,0,0,0,3050190,3130151,0,0,0,0,3101000,4110090,0,0,0,0,0,0,0,0,0,0,2161101,0,0,0
18,207,543.18036348559,1,0,1498444.27241217,1498445.31943862,0,NumLock,9,1,1,4,10,78795248,80945228,26362381,105335427,42011709,0,0,-3121120,0,30501419,0,0,3161000,0,30401109,31411319,0,0,4141071,10811619,0,4180110,0,21011109,0,0,2150121,2040011,0,0,1161140,30200609,0,30010119,10011919,0,31911709,3201071,0,0
18,208,762.101117521524,0,0,1498447.07234103,1498448.11936247,0,NumLock,9,1,0,27,0,4020101,7051281,7321283,5292191,0,0,0,0,4020101,0,0,0,0,0,0,4001130,0,0,0,0,3050151,0,0,0,0,0,0,3051111,0,1110091,-3160081,0,1121160,0,0,0,4171031,0,0,0
18,209,533.951694378629,0,0,1498449.95460919,1498451.0016391,0,NumLock,9,1,0,5,20,181807485,69195017,94674568,228747512,1150090,31401719,40010719,11911819,-3131001,41101909,0,11900209,41200019,3060110,10202009,0,0,30612009,0,0,4010080,21310809,3060120,30301819,3021081,41100319,3001050,0,0,11010009,3180170,41300819,20411509,40411019,31410409,31801819,20700309,31301519,11410109,0
18,210,1012.02893746085,0,0,1498452.6133567,1498453.66038507,0,NumLock,9,1,0,7,20,126545326,145147507,110815857,184946413,30100119,2091040,0,20511809,0,0,-3130030,40700709,30011619,21011219,0,4201101,41612019,20200919,2170170,11910819,2031151,42010109,30211209,4130091,0,41911719,0,10800019,2131010,20510709,1121100,10211819,10800019,0,40400419,31610119,40701319,30911609,0,20311109
18,211,1635.88088750839,0,0,1498455.69562709,1498456.74267278,0,NumLock,9,1,0,36,5,5171331,7332180,56631839,88573418,0,0,0,1080151,0,4091180,0,0,0,0,3171060,0,0,4161120,0,0,0,0,30911119,21610509,0,0,1050180,0,0,3060031,0,30400309,32000119,2191031,0,20800809,0,0,0,-3181150
18,212,926.234612939879,1,0,1498459.41319009,1498460.46020614,0,NumLock,9,0,1,35,5,26313158,12302211,32001319,54626530,0,0,0,3201120,11510319,0,0,0,11601719,4141120,0,4050011,0,4111080,0,0,0,0,0,0,0,32001319,0,0,0,0,0,4191161,31701719,1121060,11510519,0,4011070,0,-2091001,0
18,213,794.234578963369,0,0,1498462.41309192,1498463.46011952,0,NumLock,9,0,0,26,10,49172488,7111142,88812547,98211117,0,31001119,0,10110209,4001000,0,4060160,0,0,0,0,0,0,0,4021101,3090041,0,0,1150150,1010080,0,10610719,22010519,30300719,20600319,-3130041,0,41610209,10800209,0,31200309,0,0,11400209,3200181,0
18,214,893.059062073007,1,0,1498465.448307,1498466.49532805,0,NumLock,9,1,1,30,10,44462209,72462008,83220409,69152927,2040181,0,21710709,0,0,0,0,20711319,0,0,1070130,4090010,0,31000009,4191031,0,11510719,20600109,0,0,41310119,0,40800219,1110071,0,0,0,0,1200070,-1060140,11010419,0,11111809,3160070,0,41610419
18,215,829.850012203678,0,0,1498468.58939788,1498469.63641586,0,NumLock,9,1,0,15,10,16981770,85293417,101102718,76924469,0,0,3170001,11701619,0,2110150,0,0,0,0,0,0,30500819,0,-1170060,0,11611719,42010819,42010809,4071091,10010409,4000100,41010309,0,0,0,0,10700619,0,1110121,21011309,2010050,41001209,0,1091161,0
18,216,715.595138724893,1,0,1498471.51874792,1498472.56574781,0,NumLock,9,1,1,25,0,7192242,2031201,10332470,2061061,0,0,3031161,3060071,0,0,0,0,1101010,0,2031201,0,0,0,0,0,0,0,0,0,3170120,3141150,0,0,-4021200,0,0,0,0,0,0,0,2061061,0,0,0
18,217,1051.19024612941,0,0,1498477.74208071,1498478.78910793,0,NumLock,10,1,0,7,20,126545326,145147507,110815857,184946413,30100119,2091040,0,20511809,0,0,-3130030,40700709,30011619,21011219,0,4201101,41612019,20200919,2170170,11910819,2031151,42010109,30211209,4130091,0,41911719,0,10800019,2131010,20510709,1121100,10211819,10800019,0,40400419,31610119,40701319,30911609,0,20311109
18,218,472.671683644876,0,0,1498480.87141605,1498481.91847137,0,NumLock,10,1,0,15,10,16981770,85293417,101102718,76924469,0,0,3170001,11701619,0,2110150,0,0,0,0,0,0,30500819,0,-1170060,0,11611719,42010819,42010809,4071091,10010409,4000100,41010309,0,0,0,0,10700619,0,1110121,21011309,2010050,41001209,0,1091161,0
18,219,865.302606951445,1,1,1498483.5889879,1498484.63601665,0,NumLock,10,1,0,36,5,5171331,7332180,56631839,88573418,0,0,0,1080151,0,4091180,0,0,0,0,3171060,0,0,4161120,0,0,0,0,30911119,21610509,0,0,1050180,0,0,3060031,0,30400309,32000119,2191031,0,20800809,0,0,0,-3181150
18,220,1602.97827422619,1,0,1498486.53007809,1498487.57710646,0,NumLock,10,0,1,24,5,52614459,47573720,47203029,8371192,0,0,0,20001909,0,31411519,1201031,0,0,3021100,0,0,0,0,41411519,0,0,3141101,0,30400519,0,0,0,-2120041,11601309,0,3081160,0,2090011,4120090,0,0,0,2161091,0,0
18,221,1008.06999881752,1,0,1498490.28291853,1498491.32994882,0,NumLock,10,1,1,25,0,7192242,2031201,10332470,2061061,0,0,3031161,3060071,0,0,0,0,1101010,0,2031201,0,0,0,0,0,0,0,0,0,3170120,3141150,0,0,-4021200,0,0,0,0,0,0,0,2061061,0,0,0
18,222,1317.49892467633,1,0,1498493.40048291,1498494.44750474,0,NumLock,10,0,1,17,20,117623877,119708325,170868595,160355586,0,0,1131050,0,20701519,21010519,30910419,41710219,2160151,0,10111709,40501809,4161030,20011709,20611509,21110319,-1160140,2040100,41400919,10611209,0,30501919,31911819,4041201,31401319,0,21000209,3040031,20010619,40910919,0,31010619,31701109,0,30601219,3081070
18,223,424.79678359814,0,0,1498496.9062708,1498497.95330802,0,NumLock,10,0,0,3,20,151168204,79854598,171637183,89878147,31812009,31011119,-3121030,11401319,21810709,31112009,20900009,0,0,0,1000130,30100419,21801209,20400609,1180140,1181060,0,4191031,31211119,31011219,20801509,31800309,10900509,20010119,4001090,0,21901309,20901209,4091111,0,20711819,21702009,0,20310909,0,2161090
18,224,585.453696548939,0,0,1498499.54148949,1498500.58851748,0,NumLock,10,1,0,5,20,181807485,69195017,94674568,228747512,1150090,31401719,40010719,11911819,-3131001,41101909,0,11900209,41200019,3060110,10202009,0,0,30612009,0,0,4010080,21310809,3060120,30301819,3021081,41100319,3001050,0,0,11010009,3180170,41300819,20411509,40411019,31410409,31801819,20700309,31301519,11410109,0
18,225,633.185775950551,1,0,1498502.2708269,1498503.31785527,0,NumLock,10,1,1,4,10,78795248,80945228,26362381,105335427,42011709,0,0,-3121120,0,30501419,0,0,3161000,0,30401109,31411319,0,0,4141071,10811619,0,4180110,0,21011109,0,0,2150121,2040011,0,0,1161140,30200609,0,30010119,10011919,0,31911709,3201071,0,0
18,226,442.246678983793,0,0,1498505.11780531,1498506.16483021,0,NumLock,10,0,0,10,10,63451768,130154459,65811798,97664589,1141140,0,0,0,0,31000219,31310409,0,0,-2040121,0,41301109,0,0,2181100,41900009,1121101,41611019,21100419,0,0,0,0,4200060,0,40511319,0,20410319,31600609,0,1020031,0,0,41511419,2111181,1011030
18,227,547.554289689288,1,0,1498507.63542112,1498508.6824133,0,NumLock,10,0,1,8,0,7172130,1141001,8331351,6292231,0,4141080,0,0,0,0,0,-3031050,0,0,0,0,1141001,0,0,0,0,0,0,0,0,0,4141160,0,0,4190191,0,0,1121200,0,3150000,0,0,2021031,0,0
18,228,1359.00618531741,1,0,1498510.25884268,1498511.3058649,0,NumLock,10,1,1,30,10,44462209,72462008,83220409,69152927,2040181,0,21710709,0,0,0,0,20711319,0,0,1070130,4090010,0,31000009,4191031,0,11510719,20600109,0,0,41310119,0,40800219,1110071,0,0,0,0,1200070,-1060140,11010419,0,11111809,3160070,0,41610419
18,229,974.14839384146,0,0,1498513.70580584,1498514.75282805,0,NumLock,10,1,0,20,5,42921920,30661640,16483120,33941708,0,0,41810919,0,0,0,0,0,1111001,4130200,3200000,0,0,0,20211409,3120031,0,0,0,-1030061,0,0,0,3040150,0,1001200,11411709,20800219,0,10111419,0,0,0,3030070,0,0
18,230,775.489674881101,1,0,1498516.92926529,1498517.97626786,0,NumLock,10,0,1,6,5,51332090,45231779,60993830,7032211,0,31910509,4080081,0,0,-4031091,11310409,0,0,0,0,41111719,4120060,0,0,0,0,0,41600809,3110111,0,4120030,2151061,10011819,0,0,0,0,3011190,0,0,0,4021021,0,0,0
18,231,1629.25070500933,1,0,1498519.85857567,1498520.90560751,0,NumLock,10,0,1,1,20,127583549,164017694,139709036,141658087,-1060121,40800309,1030061,41111019,0,1060021,0,21110709,21411309,40701819,30911009,40602019,11300719,0,10201109,0,30301019,0,40212019,11601809,42001019,21111209,0,0,2200091,20511809,2071080,11611809,0,30900509,31601709,1020120,4010001,21201509,1001111,40311319
18,232,1611.01856874302,1,0,1498523.64670625,1498524.69373462,0,NumLock,10,0,1,34,10,71445999,57322249,93322747,61233749,0,21501709,2141180,20402009,0,0,2000151,21310919,4090031,1050030,0,41100319,0,3161191,12010709,0,0,0,0,0,21101719,0,41710619,0,30510409,0,0,3061201,0,0,2120150,40310319,11712009,-4030070,0,0
18,233,968.341642757878,1,0,1498527.41131687,1498528.45834254,0,NumLock,10,1,1,31,5,6133291,36492489,38244028,64782549,0,0,0,1091071,0,4021120,0,1021100,0,0,0,0,3110000,0,0,2071080,31311409,0,0,2151130,0,0,3081070,0,21911409,11100419,0,0,0,0,-4170031,40210809,0,0,0,20401709
18,234,977.678485913202,1,0,1498530.57598045,1498531.62296532,0,NumLock,10,0,1,19,0,8101391,5381191,10222352,0,0,0,0,0,0,0,2010180,4091130,2000081,1201130,0,0,0,4180061,0,0,0,0,-2001080,0,0,0,0,4041201,4180071,0,0,0,0,0,0,0,0,0,0,0
18,235,667.963149258867,0,0,1498533.72878763,1498534.77581061,0,NumLock,10,1,0,22,0,5190160,0,5241270,10413453,0,1060110,0,0,4130050,0,0,0,0,0,0,0,0,0,0,0,0,0,3161070,0,0,-2080200,0,0,0,0,0,0,0,2001141,0,0,0,4131130,1121051,3160131
18,236,1123.01587709226,0,0,1498536.63458537,1498537.68161528,0,NumLock,10,0,0,35,5,3031010,68603569,18092609,44891379,0,0,0,0,3031010,0,0,0,0,0,2180071,11301109,1100191,0,0,41410309,10610809,2001080,2040080,0,0,0,0,0,4051160,10001319,2000050,0,0,0,41700309,0,0,0,-3191070,0
18,237,638.238773448393,0,0,1498539.8933261,1498540.94034639,0,NumLock,10,0,0,16,10,37061999,31593221,68713278,67687706,21600919,0,0,0,10110809,0,1170140,4180131,0,0,0,0,3100031,0,3031031,-2190020,21102019,2170120,40911109,0,4190041,11910919,0,11701209,0,0,0,0,3061150,11101809,10212009,11610919,0,0,0,31701819
18,238,808.938932837918,1,0,1498542.77559849,1498543.82262148,0,NumLock,10,0,1,26,0,5120330,4121191,7261181,7441392,0,3100160,0,0,0,2020170,0,0,0,0,0,0,0,0,4121191,0,0,0,0,0,0,0,0,0,0,-4150051,3111130,0,0,0,4160181,0,0,2140200,1141011,0
18,239,768.981139874086,1,0,1498545.72851276,1498546.77548647,0,NumLock,10,1,1,27,0,4020101,7051281,7321283,5292191,0,0,0,0,4020101,0,0,0,0,0,0,4001130,0,0,0,0,3050151,0,0,0,0,0,0,3051111,0,1110091,-3160081,0,1121160,0,0,0,4171031,0,0,0
18,240,874.474686803296,0,0,1498548.59897032,1498549.64598984,0,NumLock,10,1,0,13,20,103377057,99318196,209577804,78012648,21610709,3011191,10700319,11511609,12011419,21410309,1200141,1110151,20811209,20901909,2080110,30800919,-1111111,12001309,11110919,0,21311919,0,40310909,40900819,11210709,40111019,41111319,0,31912009,0,4021020,10900609,1150131,4151070,20610119,41200719,0,0,0,0
18,241,1046.81362491101,0,0,1498554.61056073,1498555.65759141,0,NumLock,11,0,0,24,10,37890211,90963578,87833426,23991230,31500119,2130031,0,0,3200041,0,0,0,1060020,11100109,2150161,2130190,4071181,40911009,20300109,0,10300819,0,11511309,0,0,0,30800909,-3000070,0,20510419,22010719,0,21800219,0,0,0,0,0,2191011,0
18,242,1119.99046895653,1,0,1498557.7634472,1498558.81045055,0,NumLock,11,0,1,35,10,12830270,54664517,70553869,100796878,0,0,0,0,10800209,2030061,0,0,0,0,11310819,20210709,1131170,0,0,22011819,0,0,3040100,0,2131131,3110040,0,20411119,40701309,1160170,0,3181001,31201809,21000609,0,10601419,0,30701919,-4110121,0
18,243,1280.99923627451,0,0,1498561.1044999,1498562.15152712,0,NumLock,11,1,0,4,10,78795248,80945228,26362381,105335427,42011709,0,0,-3121120,0,30501419,0,0,3161000,0,30401109,31411319,0,0,4141071,10811619,0,4180110,0,21011109,0,0,2150121,2040011,0,0,1161140,30200609,0,30010119,10011919,0,31911709,3201071,0,0
18,244,584.654132602736,1,0,1498564.58676282,1498565.63378658,0,NumLock,11,1,1,5,20,181807485,69195017,94674568,228747512,1150090,31401719,40010719,11911819,-3131001,41101909,0,11900209,41200019,3060110,10202009,0,0,30612009,0,0,4010080,21310809,3060120,30301819,3021081,41100319,3001050,0,0,11010009,3180170,41300819,20411509,40411019,31410409,31801819,20700309,31301519,11410109,0
18,245,946.446603164077,0,0,1498567.32786541,1498568.37488878,0,NumLock,11,0,0,16,20,130234056,105893276,153558556,153316014,41611009,0,30511909,10400619,0,31900009,11810509,0,4000001,30411619,0,0,30400709,0,0,-4060010,20910019,20110919,22002019,1101070,40201309,4130201,3041060,1060150,20311509,21101019,40610219,4090130,2191200,20410209,11500709,21910109,0,20311319,32000919,40901419
18,246,611.59216077067,1,0,1498570.37483758,1498571.42186095,0,NumLock,11,0,1,6,5,36001860,50685431,45062139,54272019,0,0,0,0,30810619,-4001120,1190121,0,0,0,0,0,0,2020011,41502009,2051140,3041120,2071151,4151020,0,0,0,40911119,0,0,0,0,0,0,20110409,4051091,0,0,0,0,30110519
18,247,931.026221718639,0,0,1498573.10417422,1498574.15120259,0,NumLock,11,1,0,31,5,6133291,36492489,38244028,64782549,0,0,0,1091071,0,4021120,0,1021100,0,0,0,0,3110000,0,0,2071080,31311409,0,0,2151130,0,0,3081070,0,21911409,11100419,0,0,0,0,-4170031,40210809,0,0,0,20401709
18,248,1463.19625456817,0,0,1498576.25707494,1498577.30405904,0,NumLock,11,0,0,19,0,8292433,4090151,3031140,4111181,0,0,1141191,0,3030081,4121161,0,0,0,0,0,0,0,0,2020001,0,0,2070150,-3031140,0,0,0,0,0,0,0,0,2031040,2080141,0,0,0,0,0,0,0
18,249,495.042149908841,1,0,1498579.84516594,1498580.89218816,0,NumLock,11,1,1,22,0,5190160,0,5241270,10413453,0,1060110,0,0,4130050,0,0,0,0,0,0,0,0,0,0,0,0,0,3161070,0,0,-2080200,0,0,0,0,0,0,0,2001141,0,0,0,4131130,1121051,3160131
18,250,1016.9914693106,1,0,1498582.53921091,1498583.58623851,0,NumLock,11,1,1,7,20,126545326,145147507,110815857,184946413,30100119,2091040,0,20511809,0,0,-3130030,40700709,30011619,21011219,0,4201101,41612019,20200919,2170170,11910819,2031151,42010109,30211209,4130091,0,41911719,0,10800019,2131010,20510709,1121100,10211819,10800019,0,40400419,31610119,40701319,30911609,0,20311109
18,251,629.071698291227,1,0,1498585.69206274,1498586.73908841,0,NumLock,11,1,1,25,0,7192242,2031201,10332470,2061061,0,0,3031161,3060071,0,0,0,0,1101010,0,2031201,0,0,0,0,0,0,0,0,0,3170120,3141150,0,0,-4021200,0,0,0,0,0,0,0,2061061,0,0,0
18,252,644.035515608266,1,0,1498588.43316186,1498589.48019986,0,NumLock,11,1,1,13,20,103377057,99318196,209577804,78012648,21610709,3011191,10700319,11511609,12011419,21410309,1200141,1110151,20811209,20901909,2080110,30800919,-1111111,12001309,11110919,0,21311919,0,40310909,40900819,11210709,40111019,41111319,0,31912009,0,4021020,10900609,1150131,4151070,20610119,41200719,0,0,0,0
18,253,1540.09836586192,0,0,1498591.13897585,1498592.18600537,0,NumLock,11,1,0,30,10,44462209,72462008,83220409,69152927,2040181,0,21710709,0,0,0,0,20711319,0,0,1070130,4090010,0,31000009,4191031,0,11510719,20600109,0,0,41310119,0,40800219,1110071,0,0,0,0,1200070,-1060140,11010419,0,11111809,3160070,0,41610419
18,254,432.443263242021,0,0,1498594.90357492,1498595.95059828,0,NumLock,11,0,0,10,10,54783911,51512579,54700628,95853996,0,0,1131051,0,40200819,0,10200819,1120071,2131151,-2120120,10600309,0,4181051,0,4010180,0,0,30600919,20400319,31110309,0,0,3190000,0,0,0,0,0,0,10100309,30711619,11202019,3030030,40810019,0,0
18,255,789.077256806195,0,0,1498597.47997542,1498598.52699917,0,NumLock,11,1,0,27,0,4020101,7051281,7321283,5292191,0,0,0,0,4020101,0,0,0,0,0,0,4001130,0,0,0,0,3050151,0,0,0,0,0,0,3051111,0,1110091,-3160081,0,1121160,0,0,0,4171031,0,0,0
18,256,897.722864290699,1,0,1498600.40930968,1498601.45635691,0,NumLock,11,0,1,1,5,59311848,14532344,83213237,5321231,-4030160,0,3060050,0,21310119,0,0,0,30911519,0,0,4191011,3140061,4110181,3091091,0,0,0,10401209,0,0,0,31700719,0,0,41111309,0,0,0,0,2201051,0,0,0,0,3120180
18,257,1165.56638223119,1,0,1498603.39746058,1498604.44448741,0,NumLock,11,0,1,34,20,124697786,188445584,123137384,97664390,4171001,30911019,40801609,0,10601009,3061070,3050040,11200519,20901519,30400919,30911209,0,21911909,3000100,40710719,30110309,31400419,0,10311709,20911919,10901819,20310719,0,30201209,30500009,0,0,31702019,3140041,41201619,3200031,0,4070051,-4150110,0,10200519
18,258,460.910356370732,0,0,1498606.66795571,1498607.71498216,0,NumLock,11,1,0,15,10,16981770,85293417,101102718,76924469,0,0,3170001,11701619,0,2110150,0,0,0,0,0,0,30500819,0,-1170060,0,11611719,42010819,42010809,4071091,10010409,4000100,41010309,0,0,0,0,10700619,0,1110121,21011309,2010050,41001209,0,1091161,0
18,259,878.538334509358,1,0,1498609.19733901,1498610.24435083,0,NumLock,11,1,1,20,5,42921920,30661640,16483120,33941708,0,0,41810919,0,0,0,0,0,1111001,4130200,3200000,0,0,0,20211409,3120031,0,0,0,-1030061,0,0,0,3040150,0,1001200,11411709,20800219,0,10111419,0,0,0,3030070,0,0
18,260,1562.89151939563,0,0,1498612.25606635,1498613.30306661,0,NumLock,11,1,0,36,5,5171331,7332180,56631839,88573418,0,0,0,1080151,0,4091180,0,0,0,0,3171060,0,0,4161120,0,0,0,0,30911119,21610509,0,0,1050180,0,0,3060031,0,30400309,32000119,2191031,0,20800809,0,0,0,-3181150
18,261,432.657686527818,1,0,1498616.04417036,1498617.09125185,0,NumLock,11,0,1,3,0,8161491,3070050,8160341,4202140,0,0,-1050201,0,3041200,0,0,4070090,0,0,0,0,0,3070050,0,0,0,0,0,4050141,0,0,0,0,0,0,4110200,3181070,0,0,0,1021070,0,0,0,0
18,262,696.912598330528,1,0,1498618.65585985,1498619.70288322,0,NumLock,11,0,1,17,5,55792368,16082880,16212420,27490721,0,0,0,31500509,0,0,20201809,0,4090050,0,0,0,1040190,11001619,0,0,-4041071,0,0,1130191,12001119,3081110,0,0,0,0,0,1150090,0,21300409,0,0,0,2030031,3010191,0
18,263,907.059707446024,1,0,1498621.40872723,1498622.45575214,0,NumLock,11,0,1,26,0,3161171,9082191,6281092,3070070,0,0,2140100,0,0,0,0,1021071,0,2041020,3000161,0,0,0,4041010,0,0,0,0,0,2180011,0,0,0,0,-4101081,0,0,0,0,0,3070070,0,0,0,0
18,264,590.777706587687,0,0,1498624.49107616,1498625.53805679,0,NumLock,11,0,0,8,20,149447094,130953375,85515669,149095565,10700019,11211609,20400619,0,10101319,21110609,30401909,-4020001,41501009,1130030,21200019,3090170,21611509,31000109,0,0,41410719,11510819,0,0,12001019,0,21310509,41000909,3141021,4021060,4041151,40310319,0,41001909,31210909,3111100,0,10911219,20400009,2150100
18,265,1000.81040500663,0,0,1498630.58499162,1498631.63198188,0,NumLock,12,0,0,34,5,117874368,15082069,41710309,8251512,0,0,0,40901719,0,41310619,30400809,4181061,1080160,10800919,0,0,0,3141020,0,0,0,1140130,0,0,0,0,0,0,0,0,41710309,0,0,2130200,1010191,0,0,-4091000,1020121,0
18,266,1128.78952175379,0,0,1498633.83192021,1498634.8789505,0,NumLock,12,1,0,31,5,6133291,36492489,38244028,64782549,0,0,0,1091071,0,4021120,0,1021100,0,0,0,0,3110000,0,0,2071080,31311409,0,0,2151130,0,0,3081070,0,21911409,11100419,0,0,0,0,-4170031,40210809,0,0,0,20401709
18,267,697.970855981112,0,0,1498637.13770779,1498638.18472961,0,NumLock,12,0,0,1,20,98186767,134787616,96159666,153456736,-2111091,40110719,21501019,4151010,20101509,0,0,10211419,0,31000809,0,21510019,0,21411509,4061151,31901609,20801319,4101200,0,21311619,10202019,40301309,3141191,0,10801809,10401719,0,10611119,2191041,3041150,30500219,10410119,40910019,31501709,21110309,3181051
18,268,747.673165751621,1,0,1498639.97291716,1498641.0200052,0,NumLock,12,1,1,20,5,42921920,30661640,16483120,33941708,0,0,41810919,0,0,0,0,0,1111001,4130200,3200000,0,0,0,20211409,3120031,0,0,0,-1030061,0,0,0,3040150,0,1001200,11411709,20800219,0,10111419,0,0,0,3030070,0,0
18,269,419.625987997279,0,0,1498642.96107076,1498644.00810452,0,NumLock,12,0,0,10,10,67284728,35923031,85702968,124126187,0,0,10901619,0,20511219,0,31711809,4160081,0,-3051081,0,0,1070150,1091191,30710609,0,0,0,2020070,40311619,0,40210119,1160140,0,0,0,2001020,0,0,1201041,0,40301719,30811209,0,20511809,31300409
18,270,496.19125854224,0,0,1498645.59630485,1498646.64332822,0,NumLock,12,0,0,8,0,3141080,5262280,7202422,4131081,0,2020050,0,0,0,0,0,-1121030,0,0,0,0,0,0,0,2091110,0,3171170,0,0,0,0,0,2031141,0,4170130,1001151,0,0,0,0,4131081,0,0,0,0
18,271,447.977207833901,1,0,1498648.27858002,1498649.32560338,0,NumLock,12,0,1,3,20,120465156,47303389,104306969,182027353,10611309,20111019,-4080191,0,21710419,0,40801719,20100319,3050180,0,0,0,10411219,3000131,11010019,0,1171001,21711019,4181161,0,42000409,11601609,20311919,4021011,0,21100809,1090051,31110319,11610219,10010019,20911809,41610319,30411419,20911909,4141021,11310319
18,272,1143.02845764905,1,0,1498650.98439054,1498652.03141506,0,NumLock,12,0,1,26,20,190560194,126125986,158493977,139654968,0,40111219,21911919,2001081,40401619,21511909,21200119,11811919,31610409,10001119,30401709,40410019,21710519,0,20411619,0,3191001,0,2130190,0,3051020,42001409,30110009,31000909,4020101,-4180120,42000219,40601719,0,40600109,3031171,0,10910819,40501019,4010131,0
18,273,457.204722100869,1,0,1498654.38429453,1498655.43132521,0,NumLock,12,1,1,22,0,5190160,0,5241270,10413453,0,1060110,0,0,4130050,0,0,0,0,0,0,0,0,0,0,0,0,0,3161070,0,0,-2080200,0,0,0,0,0,0,0,2001141,0,0,0,4131130,1121051,3160131
18,274,510.130309965461,0,1,1498657.0312861,1498658.07830908,0,NumLock,12,1,1,5,20,181807485,69195017,94674568,228747512,1150090,31401719,40010719,11911819,-3131001,41101909,0,11900209,41200019,3060110,10202009,0,0,30612009,0,0,4010080,21310809,3060120,30301819,3021081,41100319,3001050,0,0,11010009,3180170,41300819,20411509,40411019,31410409,31801819,20700309,31301519,11410109,0
18,275,493.586997734383,0,0,1498659.65473461,1498660.70181996,0,NumLock,12,0,0,16,5,101304149,44191931,5321332,42530310,0,11410619,0,40901709,1180181,3080130,41701319,0,3030191,0,0,1161001,0,0,0,-1020111,42010819,0,0,0,4190141,0,0,0,1131191,0,0,0,40400109,0,0,0,0,0,2130201,0
18,276,463.430695701391,1,0,1498662.28996755,1498663.33698321,0,NumLock,12,1,1,15,10,16981770,85293417,101102718,76924469,0,0,3170001,11701619,0,2110150,0,0,0,0,0,0,30500819,0,-1170060,0,11611719,42010819,42010809,4071091,10010409,4000100,41010309,0,0,0,0,10700619,0,1110121,21011309,2010050,41001209,0,1091161,0
18,277,969.389121513814,0,0,1498664.98399403,1498666.03104088,0,NumLock,12,0,0,19,0,4351292,11283312,5242221,1051160,3191131,1160161,0,0,0,0,0,0,0,0,3041061,0,0,0,0,4171061,0,4071190,-1091021,0,0,0,4151200,0,0,0,0,1051160,0,0,0,0,0,0,0,0
18,278,904.207146726549,1,0,1498668.07804192,1498669.12506298,0,NumLock,12,1,1,27,0,4020101,7051281,7321283,5292191,0,0,0,0,4020101,0,0,0,0,0,0,4001130,0,0,0,0,3050151,0,0,0,0,0,0,3051111,0,1110091,-3160081,0,1121160,0,0,0,4171031,0,0,0
18,279,620.428554713726,0,0,1498671.18383343,1498672.2308591,0,NumLock,12,0,0,17,10,134523366,113492429,20830541,70305240,21411919,0,40500619,0,0,0,31310619,0,41300209,41401119,3150031,0,0,3110101,0,21800309,-3120150,40910719,0,4170111,10410219,0,0,3170020,0,3080191,0,0,41811209,0,0,4001161,3091151,0,0,21401719
18,280,608.753458596766,1,0,1498674.04258393,1498675.08961077,0,NumLock,12,0,1,6,0,12412243,2100100,3062102,2160051,0,1150141,0,0,3000000,-4121091,0,4141011,0,0,2100100,0,0,0,0,0,0,0,0,0,1031001,0,0,0,0,2031101,0,0,0,0,0,0,2160051,0,0,0
18,281,976.904329378158,1,0,1498676.85437691,1498677.9012844,0,NumLock,12,1,1,25,0,7192242,2031201,10332470,2061061,0,0,3031161,3060071,0,0,0,0,1101010,0,2031201,0,0,0,0,0,0,0,0,0,3170120,3141150,0,0,-4021200,0,0,0,0,0,0,0,2061061,0,0,0
18,282,1670.15319201164,0,0,1498680.00711902,1498681.0541497,0,NumLock,12,0,0,35,10,31132809,58577061,44640729,99614168,0,1031100,0,0,0,0,30101709,0,0,11101819,1101141,0,10400809,0,30711119,1160011,1041141,3061021,20110319,0,0,20410409,0,0,4120001,0,0,11000509,0,4141011,30000209,0,30010819,21401519,-3060101,0
18,283,795.965748373419,1,0,1498683.74819389,1498684.79522457,0,NumLock,12,1,1,13,20,103377057,99318196,209577804,78012648,21610709,3011191,10700319,11511609,12011419,21410309,1200141,1110151,20811209,20901909,2080110,30800919,-1111111,12001309,11110919,0,21311919,0,40310909,40900819,11210709,40111019,41111319,0,31912009,0,4021020,10900609,1150131,4151070,20610119,41200719,0,0,0,0
18,284,913.055474404246,1,0,1498686.64223377,1498687.68925599,0,NumLock,12,1,1,30,10,44462209,72462008,83220409,69152927,2040181,0,21710709,0,0,0,0,20711319,0,0,1070130,4090010,0,31000009,4191031,0,11510719,20600109,0,0,41310119,0,40800219,1110071,0,0,0,0,1200070,-1060140,11010419,0,11111809,3160070,0,41610419
18,285,498.103744583204,0,0,1498689.70097112,1498690.74799602,0,NumLock,12,1,0,4,10,78795248,80945228,26362381,105335427,42011709,0,0,-3121120,0,30501419,0,0,3161000,0,30401109,31411319,0,0,4141071,10811619,0,4180110,0,21011109,0,0,2150121,2040011,0,0,1161140,30200609,0,30010119,10011919,0,31911709,3201071,0,0
18,286,896.123736398295,0,0,1498692.39501146,1498693.44203945,0,NumLock,12,1,0,7,20,126545326,145147507,110815857,184946413,30100119,2091040,0,20511809,0,0,-3130030,40700709,30011619,21011219,0,4201101,41612019,20200919,2170170,11910819,2031151,42010109,30211209,4130091,0,41911719,0,10800019,2131010,20510709,1121100,10211819,10800019,0,40400419,31610119,40701319,30911609,0,20311109
18,287,1110.63553276472,1,0,1498695.46557095,1498696.51257238,0,NumLock,12,1,1,36,5,5171331,7332180,56631839,88573418,0,0,0,1080151,0,4091180,0,0,0,0,3171060,0,0,4161120,0,0,0,0,30911119,21610509,0,0,1050180,0,0,3060031,0,30400309,32000119,2191031,0,20800809,0,0,0,-3181150
18,288,1135.28689276427,1,0,1498698.65366673,1498699.70069125,0,NumLock,12,0,1,24,5,14552950,5150142,98053899,34632330,0,10411809,0,0,0,3041111,1100030,0,0,0,0,0,0,4030111,0,0,1120031,0,1011031,4030131,0,40110719,30401209,-1090190,0,21410619,0,0,0,0,0,4121111,0,0,30511219,0
18,289,764.049019897357,1,0,1498705.33582179,1498706.38286594,0,NumLock,13,1,1,25,0,7192242,2031201,10332470,2061061,0,0,3031161,3060071,0,0,0,0,1101010,0,2031201,0,0,0,0,0,0,0,0,0,3170120,3141150,0,0,-4021200,0,0,0,0,0,0,0,2061061,0,0,0
18,290,1020.93077474274,1,0,1498708.27693315,1498709.32395383,0,NumLock,13,0,1,26,20,156047894,89874696,72157078,176647584,10312009,1101020,10510709,20911319,31801519,41000709,40410609,0,0,10410709,0,11501719,40801619,0,22000409,3080100,2080140,0,21210219,1101031,0,3101140,0,0,11401709,-4041170,31301809,21600519,10500409,30210309,10801809,40010209,20010719,1071090,40311519,2131001
18,291,1259.65122599155,0,0,1498711.51214238,1498712.5592,0,NumLock,13,1,0,36,5,5171331,7332180,56631839,88573418,0,0,0,1080151,0,4091180,0,0,0,0,3171060,0,0,4161120,0,0,0,0,30911119,21610509,0,0,1050180,0,0,3060031,0,30400309,32000119,2191031,0,20800809,0,0,0,-3181150
18,292,1080.91385173611,1,0,1498715.01794181,1498716.06497827,0,NumLock,13,1,1,31,5,6133291,36492489,38244028,64782549,0,0,0,1091071,0,4021120,0,1021100,0,0,0,0,3110000,0,0,2071080,31311409,0,0,2151130,0,0,3081070,0,21911409,11100419,0,0,0,0,-4170031,40210809,0,0,0,20401709
18,293,518.826962914318,0,0,1498718.31194304,1498719.35897565,0,NumLock,13,0,0,3,20,169257645,158316535,90366309,120855836,0,41110809,-1060110,21111309,40410409,11501209,11911709,40001909,2150181,0,20110009,11111119,4070061,0,40901819,21511509,30510909,30101109,41711119,0,0,3161010,30801409,2090201,11401519,1201051,0,41310019,0,0,21800709,11000109,11211909,2010101,30501919,3021070
18,294,574.239013716578,0,0,1498721.0295326,1498722.07654596,0,NumLock,13,1,0,5,20,181807485,69195017,94674568,228747512,1150090,31401719,40010719,11911819,-3131001,41101909,0,11900209,41200019,3060110,10202009,0,0,30612009,0,0,4010080,21310809,3060120,30301819,3021081,41100319,3001050,0,0,11010009,3180170,41300819,20411509,40411019,31410409,31801819,20700309,31301519,11410109,0
18,295,720.270104706287,0,0,1498723.7706325,1498724.81764509,0,NumLock,13,0,0,1,20,135398715,88144667,129586015,126238605,-2200110,12000509,20510409,31001719,3150050,31612019,10201119,4021061,20701719,31312019,0,1031140,0,4080090,30211109,0,0,21510309,0,10001209,4050190,2091170,10910709,0,20910409,40710609,40911719,1101011,10610509,0,20001319,20311409,11001719,0,41711819,21500819
18,296,797.880929196253,1,0,1498726.69995213,1498727.74703362,0,NumLock,13,0,1,35,10,80822869,76743308,24373138,58412808,4140190,0,0,40801319,0,0,31810309,0,4071051,10110109,3030081,21901409,0,0,0,0,41701709,0,2041000,10100509,0,1020110,0,0,0,0,11211519,31000019,11511019,10610319,1031090,0,0,2100171,-2160190,0
18,297,621.597296092659,1,0,1498729.64105464,1498730.68813382,0,NumLock,13,1,1,22,0,5190160,0,5241270,10413453,0,1060110,0,0,4130050,0,0,0,0,0,0,0,0,0,0,0,0,0,3161070,0,0,-2080200,0,0,0,0,0,0,0,2001141,0,0,0,4131130,1121051,3160131
18,298,635.990601498634,0,0,1498732.34685592,1498733.39388352,0,NumLock,13,0,0,24,0,1141060,4291200,12293384,1051060,0,0,1141060,0,0,0,0,0,0,0,0,0,0,0,2100200,2191000,0,0,3030171,0,0,1191121,0,-4011021,0,4061071,0,0,0,0,0,0,0,1051060,0,0
18,299,1011.23784249648,1,0,1498735.06442816,1498736.11145999,0,NumLock,13,0,1,34,5,72933209,14642861,7210381,66245260,0,0,0,0,0,41111909,0,30711209,1110091,0,10601809,0,0,3030011,0,1011041,0,0,0,0,0,3000180,1100170,0,0,0,3110031,41711109,0,2131181,21201819,0,0,-1201151,0,0
18,300,924.525386188179,0,0,1498738.22905248,1498739.27607431,0,NumLock,13,0,0,8,10,63462058,81521789,88175158,86615238,0,0,0,0,0,40010619,21310409,-2141030,0,3050191,0,0,2090190,4170080,0,41510619,0,30700709,40311309,0,2150051,0,11600719,0,0,3111060,31002019,0,21500219,1051120,40211519,2041061,0,21811319,0,0
18,301,984.504998661578,0,0,1498741.32313078,1498742.37012181,0,NumLock,13,1,0,30,10,44462209,72462008,83220409,69152927,2040181,0,21710709,0,0,0,0,20711319,0,0,1070130,4090010,0,31000009,4191031,0,11510719,20600109,0,0,41310119,0,40800219,1110071,0,0,0,0,1200070,-1060140,11010419,0,11111809,3160070,0,41610419
18,302,1169.74243847653,0,0,1498744.47594257,1498745.52295978,0,NumLock,13,1,0,7,20,126545326,145147507,110815857,184946413,30100119,2091040,0,20511809,0,0,-3130030,40700709,30011619,21011219,0,4201101,41612019,20200919,2170170,11910819,2031151,42010109,30211209,4130091,0,41911719,0,10800019,2131010,20510709,1121100,10211819,10800019,0,40400419,31610119,40701319,30911609,0,20311109
18,303,390.500226523727,0,0,1498747.86407754,1498748.91110899,0,NumLock,13,0,0,10,5,2171000,25022919,67032197,11672502,0,0,0,2171000,0,0,0,0,0,-1171200,0,0,0,0,3141091,10000609,10710019,0,0,3100060,12011019,31811109,0,0,0,20110009,0,0,3190200,0,0,2151091,2130190,0,0,4201021
18,304,743.541764561087,0,0,1498750.46400994,1498751.51103754,0,NumLock,13,0,0,6,10,128646498,104734256,4230272,40382939,10311819,31301509,40011109,0,0,-3151161,3070081,0,40800819,30302019,0,30610619,0,3000100,0,0,30410609,10410909,0,0,0,3070091,0,1160181,0,0,0,3080120,4030040,2061051,20411619,0,0,0,10800109,0
18,305,541.426866082475,0,0,1498753.45215814,1498754.49918767,0,NumLock,13,1,0,15,10,16981770,85293417,101102718,76924469,0,0,3170001,11701619,0,2110150,0,0,0,0,0,0,30500819,0,-1170060,0,11611719,42010819,42010809,4071091,10010409,4000100,41010309,0,0,0,0,10700619,0,1110121,21011309,2010050,41001209,0,1091161,0
18,306,829.188264207914,1,0,1498756.19325842,1498757.24028949,0,NumLock,13,0,1,19,5,13762020,28972958,14711101,18061179,10610809,0,0,0,0,1121190,2030021,0,0,0,0,0,0,12001009,2180000,0,11611909,3180040,-2110071,0,1201011,0,0,0,0,11400019,0,10700109,0,0,4190040,0,0,0,3171030,0
18,307,443.61406029202,1,0,1498759.11082558,1498760.15786357,0,NumLock,13,0,1,16,0,8141371,13261271,2020080,0,3010140,1020030,0,0,0,0,0,4111201,0,0,4120000,0,1040110,4031140,0,-4070021,0,0,0,0,0,0,0,2020080,0,0,0,0,0,0,0,0,0,0,0,0
18,308,848.107170779258,1,0,1498761.73428102,1498762.78130785,0,NumLock,13,0,1,17,0,4311201,6301132,7122012,5200330,0,0,0,1160051,0,0,0,0,3151150,4130131,0,0,0,0,0,0,-2171001,0,0,0,4041011,0,3081001,0,0,0,0,0,0,3110160,0,0,0,0,2090170,0
18,309,763.021944323555,1,0,1498764.67538238,1498765.72240497,0,NumLock,13,1,1,27,0,4020101,7051281,7321283,5292191,0,0,0,0,4020101,0,0,0,0,0,0,4001130,0,0,0,0,3050151,0,0,0,0,0,0,3051111,0,1110091,-3160081,0,1121160,0,0,0,4171031,0,0,0
18,310,531.993397744372,1,0,1498767.61647604,1498768.66349863,0,NumLock,13,1,1,4,10,78795248,80945228,26362381,105335427,42011709,0,0,-3121120,0,30501419,0,0,3161000,0,30401109,31411319,0,0,4141071,10811619,0,4180110,0,21011109,0,0,2150121,2040011,0,0,1161140,30200609,0,30010119,10011919,0,31911709,3201071,0,0
18,311,1064.95183054358,0,0,1498770.26345991,1498771.31050213,0,NumLock,13,1,0,20,5,42921920,30661640,16483120,33941708,0,0,41810919,0,0,0,0,0,1111001,4130200,3200000,0,0,0,20211409,3120031,0,0,0,-1030061,0,0,0,3040150,0,1001200,11411709,20800219,0,10111419,0,0,0,3030070,0,0
18,312,921.995422802866,1,0,1498773.41631866,1498774.46333972,0,NumLock,13,1,1,13,20,103377057,99318196,209577804,78012648,21610709,3011191,10700319,11511609,12011419,21410309,1200141,1110151,20811209,20901909,2080110,30800919,-1111111,12001309,11110919,0,21311919,0,40310909,40900819,11210709,40111019,41111319,0,31912009,0,4021020,10900609,1150131,4151070,20610119,41200719,0,0,0,0
18,313,429.616109933704,1,0,1498779.94554452,1498780.99263178,0,NumLock,14,1,1,22,0,5190160,0,5241270,10413453,0,1060110,0,0,4130050,0,0,0,0,0,0,0,0,0,0,0,0,0,3161070,0,0,-2080200,0,0,0,0,0,0,0,2001141,0,0,0,4131130,1121051,3160131
18,314,1363.4520994965,1,0,1498782.53370904,1498783.58073357,0,NumLock,14,1,1,13,20,103377057,99318196,209577804,78012648,21610709,3011191,10700319,11511609,12011419,21410309,1200141,1110151,20811209,20901909,2080110,30800919,-1111111,12001309,11110919,0,21311919,0,40310909,40900819,11210709,40111019,41111319,0,31912009,0,4021020,10900609,1150131,4151070,20610119,41200719,0,0,0,0
18,315,857.768536079675,0,0,1498786.09831704,1498787.14534041,0,NumLock,14,0,0,26,5,9223241,71112228,40332511,64391299,4011151,0,0,0,0,1151080,4061010,0,0,0,31101709,0,0,0,40010519,0,0,0,0,0,4011171,0,0,2070161,0,-4151060,30100119,0,0,30710819,1170191,2200080,0,0,0,30310209
18,316,907.899307087064,1,0,1498789.09823466,1498790.14526265,0,NumLock,14,1,1,25,0,7192242,2031201,10332470,2061061,0,0,3031161,3060071,0,0,0,0,1101010,0,2031201,0,0,0,0,0,0,0,0,0,3170120,3141150,0,0,-4021200,0,0,0,0,0,0,0,2061061,0,0,0
18,317,1203.38302222081,1,0,1498792.12168379,1498793.16870946,0,NumLock,14,0,1,1,0,6530191,3181160,0,5202143,-1190070,0,0,0,1150090,0,0,4190031,0,2160040,0,0,0,0,0,1021120,0,0,0,0,0,0,0,0,0,0,0,0,0,0,1141031,0,2061071,0,0,2000041
18,318,1548.6714465078,0,0,1498795.38042105,1498796.42744481,0,NumLock,14,0,0,6,10,100236726,27243270,118492997,20821329,10001509,0,1091010,41610919,21200609,-3010141,0,11512019,11810519,0,0,4171190,2070171,0,0,21001909,0,0,0,40811209,31610219,41911419,0,0,4160150,0,0,0,4100150,11610919,3040090,2070170,0,0,0,0
18,319,1120.89243275113,1,0,1498798.99207436,1498800.03910158,0,NumLock,14,1,1,30,10,44462209,72462008,83220409,69152927,2040181,0,21710709,0,0,0,0,20711319,0,0,1070130,4090010,0,31000009,4191031,0,11510719,20600109,0,0,41310119,0,40800219,1110071,0,0,0,0,1200070,-1060140,11010419,0,11111809,3160070,0,41610419
18,320,775.194409769028,1,0,1498802.2978758,1498803.34489917,0,NumLock,14,0,1,19,10,35802878,28502910,77612967,103433608,4001150,0,0,21101419,0,0,0,0,10700309,0,0,4191061,21311809,3000040,0,0,0,0,-3091050,1100160,0,0,11600519,21710719,0,40110519,0,30000919,4011071,11900109,0,20810109,3000191,31610209,0,2101000
18,321,771.153474692255,1,0,1498805.25073695,1498806.29775916,0,NumLock,14,0,1,24,5,44011729,31684301,69312708,32302019,2111120,0,41900609,0,0,0,0,0,0,0,21311809,2131181,4200160,0,0,0,0,4041151,0,21600619,0,1130150,4090140,-2081090,0,0,40410709,0,0,0,0,0,0,1101110,31200909,0
18,322,752.65186582692,0,0,1498808.26241435,1498809.30944349,0,NumLock,14,0,0,34,0,7370142,3140041,5211101,6342480,0,0,4200011,3170131,0,0,0,0,0,0,0,0,0,0,3140041,0,0,0,0,2150080,0,3061021,0,0,0,0,0,0,1081150,0,2061180,0,0,-3200150,0,0
18,323,643.717152997851,0,0,1498811.21533478,1498812.26229963,0,NumLock,14,1,0,5,20,181807485,69195017,94674568,228747512,1150090,31401719,40010719,11911819,-3131001,41101909,0,11900209,41200019,3060110,10202009,0,0,30612009,0,0,4010080,21310809,3060120,30301819,3021081,41100319,3001050,0,0,11010009,3180170,41300819,20411509,40411019,31410409,31801819,20700309,31301519,11410109,0
18,324,498.331256443635,0,0,1498814.09754289,1498815.14457896,0,NumLock,14,0,0,16,20,135615665,95695401,87453507,212277773,41301509,0,11311809,30600509,0,0,0,41100119,11301719,30001509,11210219,1080060,3170001,42001319,0,-2001171,2171021,4060101,1120081,20100419,3201060,0,11111519,0,0,11210009,40710419,30400019,21700919,40610609,12001209,20301319,20811209,41701309,21600109,3151071
18,325,907.58286928758,1,0,1498816.70925355,1498817.75626345,0,NumLock,14,1,1,7,20,126545326,145147507,110815857,184946413,30100119,2091040,0,20511809,0,0,-3130030,40700709,30011619,21011219,0,4201101,41612019,20200919,2170170,11910819,2031151,42010109,30211209,4130091,0,41911719,0,10800019,2131010,20510709,1121100,10211819,10800019,0,40400419,31610119,40701319,30911609,0,20311109
18,326,831.78867562674,0,0,1498819.81504044,1498820.8620588,0,NumLock,14,1,0,27,0,4020101,7051281,7321283,5292191,0,0,0,0,4020101,0,0,0,0,0,0,4001130,0,0,0,0,3050151,0,0,0,0,0,0,3051111,0,1110091,-3160081,0,1121160,0,0,0,4171031,0,0,0
18,327,633.329366333783,0,0,1498822.88553911,1498823.93256402,0,NumLock,14,0,0,17,10,104425046,67964438,41923681,76432328,41010009,0,41401809,11411909,0,0,0,10601319,0,41310919,2101170,0,0,0,0,20401319,-4151030,0,30611319,0,0,4130011,4051061,0,0,2001130,1130160,0,40300619,2070161,20500019,0,2160010,11401519,0,0
18,328,455.935120815411,1,0,1498825.61487806,1498826.66189835,0,NumLock,14,1,1,4,10,78795248,80945228,26362381,105335427,42011709,0,0,-3121120,0,30501419,0,0,3161000,0,30401109,31411319,0,0,4141071,10811619,0,4180110,0,21011109,0,0,2150121,2040011,0,0,1161140,30200609,0,30010119,10011919,0,31911709,3201071,0,0
18,329,597.27700217627,0,0,1498828.17951724,1498829.22654407,0,NumLock,14,1,0,15,10,16981770,85293417,101102718,76924469,0,0,3170001,11701619,0,2110150,0,0,0,0,0,0,30500819,0,-1170060,0,11611719,42010819,42010809,4071091,10010409,4000100,41010309,0,0,0,0,10700619,0,1110121,21011309,2010050,41001209,0,1091161,0
18,330,388.549244496971,1,0,1498830.94414403,1498831.99115738,0,NumLock,14,0,1,10,20,143478587,109775717,103505716,150304157,3171071,12010909,30611609,40211409,4131001,0,31601109,20710319,1031160,-4101031,10311409,21201519,0,20710219,2041021,30210409,0,21200109,0,0,10111419,21310119,0,10311309,30101109,1161151,30510609,40510019,4101071,30911519,0,22000009,20510609,0,31100819,1170111
18,331,1192.98137701117,0,0,1498833.55583391,1498834.60286074,0,NumLock,14,1,0,36,5,5171331,7332180,56631839,88573418,0,0,0,1080151,0,4091180,0,0,0,0,3171060,0,0,4161120,0,0,0,0,30911119,21610509,0,0,1050180,0,0,3060031,0,30400309,32000119,2191031,0,20800809,0,0,0,-3181150
