sub_id,Trial,RT,Resp,Error,Fix_onset,Disp_onset,q1,q2,block,repeat,tid,tloc,d_setsize,quad1,quad2,quad3,quad4,loc1,loc2,loc3,loc4,loc5,loc6,loc7,loc8,loc9,loc10,loc11,loc12,loc13,loc14,loc15,loc16,loc17,loc18,loc19,loc20,loc21,loc22,loc23,loc24,loc25,loc26,loc27,loc28,loc29,loc30,loc31,loc32,loc33,loc34,loc35,loc36
14,1,1499.5265697944,0,0,261291.368673576,261292.415751607,1,65,1,0,0,33,0,9083292,0,5393302,5101202,0,1041031,4001170,0,0,0,0,0,4041091,0,0,0,0,0,0,0,0,0,0,0,0,1151091,2101021,2141190,0,0,0,0,0,0,0,2031161,-3070041,0,0,0
14,2,1073.32859054441,0,0,261294.956957058,261296.004023925,1,65,1,0,0,25,10,72355329,98494986,71902599,36102380,4151151,0,0,41201119,0,1101070,0,21701909,4200080,0,10201219,0,1120010,20110119,21000809,11900419,4051091,30111319,0,0,0,0,30700709,0,-1100181,40101709,0,0,0,0,2191061,0,0,30800219,0,3111100
14,3,884.014028939418,1,0,261298.157000097,261299.204060034,1,65,1,1,1,35,0,6072371,2191071,8131250,10352221,0,0,0,4051191,0,0,0,0,2021180,0,0,0,0,0,0,0,2191071,0,4031070,0,0,0,0,0,0,0,4100180,0,2181180,0,4101021,0,0,0,-4070020,0
14,4,1054.50669428683,0,0,261301.180562017,261302.227634274,1,65,1,0,0,7,20,79695739,190220653,219447303,47864778,1001031,0,10410109,3161130,41000609,11810219,-1191201,10110419,1011021,40101319,20711909,4191160,0,11802019,21401009,31700919,30011909,30300409,30811009,30800909,0,31811119,31500619,31501609,1010010,31200419,30811609,0,0,20611609,4040140,0,3001120,20211909,0,0
14,5,1028.28296963708,0,0,261304.368823326,261305.415707905,1,65,1,1,0,17,0,7161251,2181101,6072161,6282040,0,3110120,1050090,0,3001041,0,0,0,0,0,0,0,0,0,0,0,-2181101,0,4041021,0,0,0,0,0,0,0,2031140,0,0,0,0,0,0,2111000,4171040,0
14,6,660.024493728997,0,0,261307.521816821,261308.568879068,1,65,1,0,0,9,20,173895707,108359206,183600866,124544255,3151091,0,21110219,20610319,40810509,41212009,40900319,2060080,-4041161,0,3121021,0,10911519,20402009,10902019,42010709,20011909,1000020,0,40010609,40711409,4191070,11711909,40312009,3121120,3031031,40511709,0,40610509,0,0,10011109,31210709,21411409,0,21300519
14,7,914.54759251792,1,0,261310.298318496,261311.345386133,1,65,1,0,1,24,10,75152278,149247616,7303400,116664598,3140050,0,40200909,31811319,0,0,0,0,0,21101319,31211309,0,30300909,41501909,0,3010091,20110909,2011170,3011100,2091190,0,0,0,-2201110,0,0,0,40902019,0,0,0,31100609,0,1061050,2090011,41510909
14,8,1027.78077955008,1,0,261313.416007221,261314.463338941,1,65,1,1,1,36,0,10301283,4201061,0,13321421,0,3020151,3190121,0,4091011,0,0,0,0,0,0,4201061,0,0,0,0,0,0,0,0,0,0,0,0,0,0,0,4140200,4110120,0,0,0,0,3001031,0,-2070070
14,9,1095.09120360599,1,0,261316.533690172,261317.580754344,1,65,1,1,1,27,20,160543936,176833947,131627127,147159096,41801219,11100409,3130161,0,41300919,0,31300019,31911209,0,20210109,41401419,0,40110219,1051171,2040111,0,40610109,31410809,4071071,20600819,4120091,11100119,42010409,11902019,4030200,30711219,-3081180,30411509,0,21911919,0,0,30401209,21401619,3021131,40011709
14,10,789.916866313433,0,0,261319.768816433,261320.816142958,1,65,1,1,0,8,10,91544431,30711919,84993187,93998028,41601909,0,2000201,0,40512009,3140040,2120141,-2170131,0,0,0,0,0,0,0,0,30711919,0,0,0,22001419,20810609,2070050,40111109,0,0,0,4140031,12001409,21211509,40011609,0,4201110,0,11401319,1031041
14,11,1236.69331872952,0,0,261322.769062618,261323.81612217,1,65,1,0,0,22,5,37082958,45792850,61883378,8241321,11510519,0,0,20411219,1100200,4061020,0,0,0,0,0,3061181,0,0,2131050,0,40600619,0,40500209,0,0,-1081160,0,0,20302009,0,0,3080120,0,0,0,2010201,0,3151000,0,0
14,12,590.530186134856,0,0,261326.263218525,261327.310285392,1,65,1,0,0,28,0,14322564,3321231,3101120,2080141,3060191,4051181,0,0,0,3031021,0,4180171,0,0,0,0,2200120,0,1121111,0,0,0,3101120,0,0,0,0,0,0,0,0,-2080141,0,0,0,0,0,0,0,0
14,13,803.959857235895,0,0,261329.03972097,261330.086786297,1,65,1,1,0,26,5,48561962,43312338,86233759,5412391,0,0,0,0,2200031,40201809,3150091,3010031,0,0,0,0,21511619,0,0,21800719,0,0,0,0,40412019,0,0,2151130,0,-2170001,41500609,2170190,2061031,0,0,0,0,0,1181170,0
14,14,1097.85060377908,1,0,261332.086815939,261333.133918992,1,65,1,1,1,14,5,1000151,33885643,27022210,51722047,0,0,1000151,0,0,0,0,0,0,3091170,21211219,0,2171021,-3101091,3170011,0,0,1141131,0,0,0,0,3050141,2061060,0,21911009,0,0,0,10700009,0,0,0,10211619,0,30810419
14,15,1542.65259139356,1,0,261335.428034171,261336.475098728,1,65,1,1,1,4,20,91545227,119466686,109952575,114556347,2041051,11601619,0,-3180001,21911609,0,11900409,30200319,10710219,0,31311809,4121021,0,20011419,11800319,22011709,30210409,0,3090020,0,11211119,2120080,0,20200209,21410409,40710219,11210519,0,1060061,11610909,11411019,21411019,21001319,4090101,41801719,2170200
14,16,806.177232356276,1,0,261339.110416356,261340.157488997,1,65,1,0,1,15,5,4071101,39034162,12162669,107024267,0,4071101,0,0,0,0,0,0,0,0,1041151,0,4150111,2011070,-1120121,0,30711709,0,11011519,0,0,0,0,1151150,0,0,0,0,0,42011009,1170120,41001819,1130110,0,21711209,0
14,17,1335.0831810094,1,0,261342.063398764,261343.110464476,1,65,1,1,1,6,10,36932260,86423418,126064566,47582479,3080130,0,0,0,30811009,-3041121,0,0,0,21911609,40210309,0,20000209,2181041,1080180,0,1040070,0,0,30210409,3020000,0,31411919,0,40910919,20511319,0,0,4121171,31500209,1150090,10811009,0,0,0,0
14,18,2017.14084355626,1,0,261345.61639249,261346.663454352,1,65,1,0,1,2,20,100036816,117866365,104826816,159036975,0,-4041061,0,10210819,22000909,20810209,31811719,1061190,10100909,30900919,31310219,11111419,21400909,22011719,0,0,1131180,0,21500719,3131170,3170200,30410109,21401919,0,4001180,0,21211519,40201209,20400709,3001050,11111819,40510519,21511309,0,1190041,21110319
14,19,1302.75646928931,0,0,261349.851741068,261350.898851436,1,65,1,0,0,12,0,5102180,5330261,4102221,2090211,0,0,0,1011090,4091090,0,0,0,0,0,0,-4140100,0,0,0,1190161,0,0,0,0,1011050,0,0,0,0,0,3091171,0,0,0,0,1070170,0,0,0,1020041
14,20,785.338140645763,1,0,261353.287067627,261354.334132569,1,65,1,1,1,11,20,109607546,111085588,148695706,168445714,1061041,21101319,1050010,2080130,20501009,10900519,0,31901909,21011609,11101819,-3040091,0,41310819,20401719,4031021,0,0,31200119,2060100,40911609,0,40700009,0,21401219,2201141,20610309,20811319,1201020,41910119,0,0,20911709,31600019,20001519,41711219,11110109
14,21,1045.10633257451,1,0,261356.275334402,261357.322402808,1,65,1,0,1,5,5,4201241,46922289,24311238,56862288,0,0,0,0,-1050200,0,0,3151041,0,1190030,0,0,40410009,0,0,1191140,4131110,0,11701019,0,0,1000010,0,11610209,0,0,0,1160150,0,0,0,41510209,0,11100909,0,3091020
14,22,1200.44000519556,1,0,261359.393015043,261360.440091149,1,65,1,1,1,1,10,33323700,32730019,51911638,120966386,-3180040,2040201,0,10110109,2140160,3100120,1051051,0,11702019,30710019,0,0,2020000,0,0,0,0,0,0,0,11110319,0,0,0,40801319,0,0,1101170,31801409,0,10110609,0,30011009,32000219,4140061,11801909
14,23,1748.5574305756,0,0,261362.804822411,261363.851888123,1,65,1,0,0,30,10,109416886,93743799,65251068,48362779,30911519,0,0,1160060,31711409,2031060,11901319,31701519,0,12001409,0,3011021,41000909,31510309,2090120,0,0,4130031,2050140,0,0,41300919,0,0,21900009,0,0,0,0,-3201060,0,0,0,0,4050100,41111619
14,24,1208.05453299545,0,0,261366.769576925,261367.816651877,1,65,1,1,0,34,5,80062310,2330151,43652929,66154780,0,31911209,0,0,0,0,3160051,40910919,4080131,1130141,0,0,0,0,0,0,1200010,0,0,0,0,2051120,0,0,0,41601809,0,1141040,40200819,0,20501719,0,3141011,-1170191,0,0
14,25,1176.64633807726,1,0,261379.722664428,261380.769732835,1,65,2,0,1,33,10,77344910,23030500,54043618,92097068,3091111,30901319,0,0,0,1011051,40201319,0,2140110,22010409,0,0,0,0,0,1020091,0,0,0,0,2021171,10310119,30310709,0,0,0,11401619,11900319,0,20211009,40711509,1020101,-4031201,0,4011010,10211919
14,26,1562.68172524869,0,0,261382.981547209,261384.028604452,1,65,2,0,0,2,20,95164620,168348765,128795246,181486066,3150060,-4131051,0,30700009,0,4141201,32000109,1030171,20012019,20111519,0,0,41611219,11202009,31311019,1000071,31411219,31701709,31300209,11511719,11402019,31400319,0,0,2080161,0,41100819,41610319,11710119,0,40011909,2030111,31301509,31700119,2011161,21110819
14,27,900.564655545168,1,0,261386.781569614,261387.828646105,1,65,2,0,1,28,0,10502473,2090040,4131160,7081191,2141031,0,3200151,0,0,0,4070141,1091150,0,0,0,0,0,0,0,0,0,2090040,0,0,0,0,0,4131160,0,0,0,-4031011,3050180,0,0,0,0,0,0,0
14,28,1068.22670294787,0,0,261389.922797162,261390.969852865,1,65,2,1,0,1,10,33323700,32730019,51911638,120966386,-3180040,2040201,0,10110109,2140160,3100120,1051051,0,11702019,30710019,0,0,2020000,0,0,0,0,0,0,0,11110319,0,0,0,40801319,0,0,1101170,31801409,0,10110609,0,30011009,32000219,4140061,11801909
14,29,2153.73153690598,1,0,261393.240471952,261394.287538819,1,65,2,0,1,24,5,10151191,30301719,48194630,59492828,3010000,0,0,0,3051060,3010071,0,0,1080060,0,0,0,0,0,0,30301719,0,0,0,0,0,0,0,-1021181,31311509,4150031,11711909,0,0,0,21500009,0,0,31701619,2141000,4150200
14,30,620.487848122139,1,0,261397.487588787,261398.534654114,1,65,2,0,1,9,5,44992290,89034917,0,49023752,0,0,0,0,0,41911209,0,2071071,-1010010,10600719,0,3131120,0,0,41310809,1160030,31801109,1031130,0,0,0,0,0,0,0,0,0,3021031,0,0,3101071,0,0,41811619,0,1090031
14,31,623.155242647044,1,0,261400.228793391,261401.275861028,1,65,2,0,1,15,10,58483159,68974208,81272019,109938087,0,0,1201171,0,4070060,31601309,0,0,21610619,21401419,40401709,0,3140030,0,-4031050,0,0,0,31311009,0,0,4130040,41800809,0,0,0,4030161,42001219,11611009,0,30311609,21902009,1081081,0,0,3031160
14,32,1380.26065958547,1,0,261403.02882388,261404.075894982,1,65,2,0,1,30,5,21610609,17751869,64603198,24233893,21610609,0,0,0,0,0,0,0,0,0,0,0,3061130,0,10510719,0,0,4180020,0,0,31101919,0,0,31411209,2090070,0,0,4050031,0,-3180020,1181141,2061031,11700609,0,2061061,0
14,33,1041.25980264507,1,0,261406.640636176,261407.687709588,1,65,2,0,1,22,0,0,2212181,11272341,7360282,0,0,0,0,0,0,0,0,0,0,0,1031171,0,1181010,0,0,0,0,4060170,0,0,-3061040,4151131,0,0,0,0,3020081,0,0,0,0,0,1140040,0,3200161
14,34,680.025525391102,0,0,261409.923026214,261410.970090386,1,65,2,1,0,27,20,160543936,176833947,131627127,147159096,41801219,11100409,3130161,0,41300919,0,31300019,31911209,0,20210109,41401419,0,40110219,1051171,2040111,0,40610109,31410809,4071071,20600819,4120091,11100119,42010409,11902019,4030200,30711219,-3081180,30411509,0,21911919,0,0,30401209,21401619,3021131,40011709
14,35,984.898823197,1,0,261412.781882203,261413.828949454,1,65,2,0,1,25,20,137227386,158815983,88013897,132663776,30001619,0,0,10410619,21301309,0,41701909,30710809,3101121,32001109,10210419,41700919,10500709,11600719,11400519,0,1000180,40401409,1081090,11400019,31100019,3071180,10200109,0,-1151171,30010309,0,0,1060000,4031120,3050100,40211219,31900419,0,11110309,41300609
14,36,1455.41004365077,1,0,261416.005439427,261417.052514378,1,65,2,1,1,36,0,10301283,4201061,0,13321421,0,3020151,3190121,0,4091011,0,0,0,0,0,0,4201061,0,0,0,0,0,0,0,0,0,0,0,0,0,0,0,4140200,4110120,0,0,0,0,3001031,0,-2070070
14,37,1250.96497643972,1,1,261419.640778612,261420.687842014,1,65,2,0,0,12,0,6321350,5212322,9141181,0,3140160,0,0,0,0,0,3181190,0,0,0,0,-2040111,0,0,2041071,1131140,0,0,0,0,3100061,0,0,0,3041000,0,3000120,0,0,0,0,0,0,0,0,0
14,38,800.509067194071,0,0,261423.0173378,261424.064369251,1,65,2,1,0,14,5,1000151,33885643,27022210,51722047,0,0,1000151,0,0,0,0,0,0,3091170,21211219,0,2171021,-3101091,3170011,0,0,1141131,0,0,0,0,3050141,2061060,0,21911009,0,0,0,10700009,0,0,0,10211619,0,30810419
14,39,1457.28056898224,1,0,261426.05263718,261427.099694423,1,65,2,0,1,5,20,153947804,126163464,80994399,154005017,0,0,30400909,30610619,-1111140,20601109,20211509,30601409,20411109,20100309,0,30911519,20401109,10410119,0,30900109,10310109,3130190,0,40601309,3020141,0,2130200,21211309,0,3021121,11010319,2100030,0,31400719,31401209,10210309,4081071,2091061,31010409,41710209
14,40,1466.73174551688,1,0,261429.687954423,261430.735023984,1,65,2,1,1,11,20,109607546,111085588,148695706,168445714,1061041,21101319,1050010,2080130,20501009,10900519,0,31901909,21011609,11101819,-3040091,0,41310819,20401719,4031021,0,0,31200119,2060100,40911609,0,40700009,0,21401219,2201141,20610309,20811319,1201020,41910119,0,0,20911709,31600019,20001519,41711219,11110109
14,41,943.197927088477,0,0,261433.2174151,261434.264488511,1,65,2,1,0,6,10,36932260,86423418,126064566,47582479,3080130,0,0,0,30811009,-3041121,0,0,0,21911609,40210309,0,20000209,2181041,1080180,0,1040070,0,0,30210409,3020000,0,31411919,0,40910919,20511319,0,0,4121171,31500209,1150090,10811009,0,0,0,0
14,42,1332.88659376558,0,0,261436.29980791,261437.346871312,1,65,2,0,0,7,10,120686459,104213878,36181559,47743550,3081201,0,40500509,40411509,31501109,0,-1041050,4151081,0,0,0,40700519,0,40711919,0,21600409,0,1201031,1101000,0,0,0,20400519,3070031,11610009,0,0,2130131,0,0,0,0,0,11101519,30401709,4110191
14,43,755.139493121533,0,0,261439.758666747,261440.805729764,1,65,2,1,0,8,10,91544431,30711919,84993187,93998028,41601909,0,2000201,0,40512009,3140040,2120141,-2170131,0,0,0,0,0,0,0,0,30711919,0,0,0,22001419,20810609,2070050,40111109,0,0,0,4140031,12001409,21211509,40011609,0,4201110,0,11401319,1031041
14,44,1118.74051034101,0,0,261442.593993921,261443.641063098,1,65,2,1,0,17,0,7161251,2181101,6072161,6282040,0,3110120,1050090,0,3001041,0,0,0,0,0,0,0,0,0,0,0,-2181101,0,4041021,0,0,0,0,0,0,0,2031140,0,0,0,0,0,0,2111000,4171040,0
14,45,1144.05823787092,0,0,261445.923451211,261446.970515768,1,65,2,1,0,35,0,6072371,2191071,8131250,10352221,0,0,0,4051191,0,0,0,0,2021180,0,0,0,0,0,0,0,2191071,0,4031070,0,0,0,0,0,0,0,4100180,0,2181180,0,4101021,0,0,0,-4070020,0
14,46,1149.25867549027,1,0,261449.135252882,261450.182323984,1,65,2,1,1,4,20,91545227,119466686,109952575,114556347,2041051,11601619,0,-3180001,21911609,0,11900409,30200319,10710219,0,31311809,4121021,0,20011419,11800319,22011709,30210409,0,3090020,0,11211119,2120080,0,20200209,21410409,40710219,11210519,0,1060061,11610909,11411019,21411019,21001319,4090101,41801719,2170200
14,47,1179.92081603734,0,0,261452.370587217,261453.417651774,1,65,2,1,0,26,5,48561962,43312338,86233759,5412391,0,0,0,0,2200031,40201809,3150091,3010031,0,0,0,0,21511619,0,0,21800719,0,0,0,0,40412019,0,0,2151130,0,-2170001,41500609,2170190,2061031,0,0,0,0,0,1181170,0
14,48,1040.70545887225,0,0,261455.770622864,261456.817697815,1,65,2,1,0,34,5,80062310,2330151,43652929,66154780,0,31911209,0,0,0,0,3160051,40910919,4080131,1130141,0,0,0,0,0,0,1200010,0,0,0,0,2051120,0,0,0,41601809,0,1141040,40200819,0,20501719,0,3141011,-1170191,0,0
14,49,1071.54506639927,0,0,261462.417758793,261463.4648272,1,65,3,0,0,12,5,77333110,7372421,56962679,27541701,31710709,0,0,0,0,4010081,0,40611209,1001111,1111151,4071140,-2190130,0,0,0,0,0,0,11210419,0,0,0,0,41601209,0,4151051,0,21300419,0,0,0,3110121,0,3131161,0,0
14,50,686.877445579739,0,0,261465.72372538,261466.770743742,1,65,3,0,0,22,0,3391331,0,4120181,12171321,0,0,0,1201030,1040120,0,0,1150181,0,0,0,0,0,0,0,0,0,0,0,0,0,-1040151,3080030,0,0,0,0,0,0,0,0,0,4020201,4020070,0,4131050
14,51,1113.43151371693,1,0,261468.511943342,261469.559019063,1,65,3,0,1,25,0,7361243,6141180,4040111,7271200,0,3040181,3141061,0,0,0,0,0,1180001,0,0,0,2101130,0,0,4040050,0,0,0,0,0,0,0,0,-4040111,0,0,3101060,0,0,0,0,0,0,4170140,0
14,52,1490.95579897403,1,0,261471.688452947,261472.735521354,1,65,3,1,1,8,10,91544431,30711919,84993187,93998028,41601909,0,2000201,0,40512009,3140040,2120141,-2170131,0,0,0,0,0,0,0,0,30711919,0,0,0,22001419,20810609,2070050,40111109,0,0,0,4140031,12001409,21211509,40011609,0,4201110,0,11401319,1031041
14,53,736.873865418602,1,0,261475.229663788,261476.276744899,1,65,3,0,1,15,10,102575998,21352451,53853859,85735276,31111919,30500309,3171201,30500419,0,4121030,3171120,0,0,0,0,0,11000019,4161110,-3131191,0,0,3060131,0,2051131,31602009,0,0,0,20200719,0,0,4111110,0,21300819,30211509,0,0,0,10001119,20110719
14,54,787.143992522033,1,0,261478.159121617,261479.206183094,1,65,3,1,1,27,20,160543936,176833947,131627127,147159096,41801219,11100409,3130161,0,41300919,0,31300019,31911209,0,20210109,41401419,0,40110219,1051171,2040111,0,40610109,31410809,4071071,20600819,4120091,11100119,42010409,11902019,4030200,30711219,-3081180,30411509,0,21911919,0,0,30401209,21401619,3021131,40011709
14,55,1315.24460285436,0,0,261481.11209748,261482.159155108,1,65,3,0,0,2,10,48780650,124033956,67544798,72371770,41610409,-3120100,0,0,0,1050011,3000130,0,0,0,30011419,40910309,0,0,0,21210709,31901519,0,42000209,10211509,2151081,3071180,0,0,0,10110819,0,4130110,3131141,0,0,0,3200091,31510309,30400119,0
14,56,1206.45848484128,0,0,261484.535658862,261485.582735353,1,65,3,0,0,5,0,2042211,7303311,3172080,1051110,0,0,0,0,-1021141,0,0,0,1021070,2011100,2091071,0,0,0,0,0,3201140,0,0,0,0,0,1171020,0,2001060,0,0,0,1051110,0,0,0,0,0,0,0
14,57,1228.43552115955,0,0,261487.829822546,261488.876883253,1,65,3,0,0,33,10,61593589,32312338,135634467,54454280,3201151,0,0,0,3080141,10010819,31410209,3181160,10710109,0,0,0,21210919,0,0,0,11101419,0,0,40302009,0,2110201,0,31110419,32011819,0,30100019,40110009,3091080,0,0,4001000,-3201120,0,4051071,0
14,58,879.281318892026,1,0,261491.276918131,261492.323986923,1,65,3,1,1,11,20,109607546,111085588,148695706,168445714,1061041,21101319,1050010,2080130,20501009,10900519,0,31901909,21011609,11101819,-3040091,0,41310819,20401719,4031021,0,0,31200119,2060100,40911609,0,40700009,0,21401219,2201141,20610309,20811319,1201020,41910119,0,0,20911709,31600019,20001519,41711219,11110109
14,59,1173.19516307907,0,0,261494.324011945,261495.371080352,1,65,3,0,0,7,20,129777837,80782927,96845727,221135224,21700819,0,31001809,1011051,1071191,41500419,-1080130,11711409,20701009,3050040,20111219,11810019,4101011,0,0,20010419,0,21700219,20611309,0,3150080,1171011,10401609,0,40301409,21210309,0,22001709,41300119,2020131,0,41500919,40200819,21200609,11700909,41210009
14,60,1214.83100077603,0,0,261497.618165235,261498.665275603,1,65,3,1,0,35,0,6072371,2191071,8131250,10352221,0,0,0,4051191,0,0,0,0,2021180,0,0,0,0,0,0,0,2191071,0,4031070,0,0,0,0,0,0,0,4100180,0,2181180,0,4101021,0,0,0,-4070020,0
14,61,1128.02769351401,0,0,261500.924094096,261501.971217937,1,65,3,1,0,14,5,1000151,33885643,27022210,51722047,0,0,1000151,0,0,0,0,0,0,3091170,21211219,0,2171021,-3101091,3170011,0,0,1141131,0,0,0,0,3050141,2061060,0,21911009,0,0,0,10700009,0,0,0,10211619,0,30810419
14,62,1229.57000110182,1,0,261504.312369571,261505.359432203,1,65,3,0,1,28,5,11300309,61024629,84642809,8383201,11300309,0,0,0,0,0,0,0,0,0,3001070,0,1041160,11811009,2050180,1120191,0,42001019,0,0,41310109,0,3021091,40311609,0,0,0,-2101030,0,0,0,0,2181171,0,4101000,0
14,63,1528.74125714879,1,0,261507.759467851,261508.806529713,1,65,3,1,1,4,20,91545227,119466686,109952575,114556347,2041051,11601619,0,-3180001,21911609,0,11900409,30200319,10710219,0,31311809,4121021,0,20011419,11800319,22011709,30210409,0,3090020,0,11211119,2120080,0,20200209,21410409,40710219,11210519,0,1060061,11610909,11411019,21411019,21001319,4090101,41801719,2170200
14,64,1134.96738477261,0,0,261511.53597838,261512.583047171,1,65,3,1,0,34,5,80062310,2330151,43652929,66154780,0,31911209,0,0,0,0,3160051,40910919,4080131,1130141,0,0,0,0,0,0,1200010,0,0,0,0,2051120,0,0,0,41601809,0,1141040,40200819,0,20501719,0,3141011,-1170191,0,0
14,65,729.575005592778,1,0,261514.92425116,261515.971322646,1,65,3,1,1,17,0,7161251,2181101,6072161,6282040,0,3110120,1050090,0,3001041,0,0,0,0,0,0,0,0,0,0,0,-2181101,0,4041021,0,0,0,0,0,0,0,2031140,0,0,0,0,0,0,2111000,4171040,0
14,66,1197.61862629093,0,0,261517.830212126,261518.877235878,1,65,3,1,0,1,10,33323700,32730019,51911638,120966386,-3180040,2040201,0,10110109,2140160,3100120,1051051,0,11702019,30710019,0,0,2020000,0,0,0,0,0,0,0,11110319,0,0,0,40801319,0,0,1101170,31801409,0,10110609,0,30011009,32000219,4140061,11801909
14,67,1133.97688019904,1,0,261521.253739631,261522.300807268,1,65,3,1,1,26,5,48561962,43312338,86233759,5412391,0,0,0,0,2200031,40201809,3150091,3010031,0,0,0,0,21511619,0,0,21800719,0,0,0,0,40412019,0,0,2151130,0,-2170001,41500609,2170190,2061031,0,0,0,0,0,1181170,0
14,68,1011.40954476432,0,0,261524.524370267,261525.571438289,1,65,3,0,0,9,20,99925567,136338506,161327605,169303916,1080140,11710619,2101151,22011809,0,31100309,0,30810519,-1111020,10101809,0,30611609,0,0,40410519,3111151,11001609,41101809,11911319,40110819,41201719,20910319,30700309,2131101,3061200,0,11300819,21410509,2050070,0,0,1040071,40901719,30100619,41900519,31900409
14,69,1091.77168522729,1,0,261527.642110577,261528.689123549,1,65,3,1,1,36,0,10301283,4201061,0,13321421,0,3020151,3190121,0,4091011,0,0,0,0,0,0,4201061,0,0,0,0,0,0,0,0,0,0,0,0,0,0,0,4140200,4110120,0,0,0,0,3001031,0,-2070070
14,70,1525.81208918127,1,0,261530.900912132,261531.947980923,1,65,3,0,1,30,5,47083830,46052590,23731670,26180559,0,20901609,3060161,0,20000919,0,0,3121141,0,1021000,0,0,0,2131080,2100201,0,40800309,0,2021061,0,0,0,0,21710609,0,0,0,21000509,0,-1060040,0,0,0,0,4120010,0
14,71,1031.05795223382,0,0,261534.665658639,261535.712723581,1,65,3,0,0,24,20,239576785,68613947,144689484,130165086,0,31801019,40311019,41201009,41500909,40311119,40300509,4151201,0,0,4100070,10601919,0,0,0,11110809,1100140,41701009,31101109,20711019,2061040,10110919,2091130,-4201120,30801519,11710509,31901119,2131111,0,41410619,11411119,21400609,2000200,31511209,0,20300219
14,72,1291.3269783312,1,0,261537.87746416,261538.924532181,1,65,3,1,1,6,10,36932260,86423418,126064566,47582479,3080130,0,0,0,30811009,-3041121,0,0,0,21911609,40210309,0,20000209,2181041,1080180,0,1040070,0,0,30210409,3020000,0,31411919,0,40910919,20511319,0,0,4121171,31500209,1150090,10811009,0,0,0,0
14,73,1256.6970451735,1,0,261544.854018497,261545.901081899,1,65,4,0,1,28,5,42470919,60422759,4060040,79174629,0,0,0,41300919,0,0,1170000,0,0,0,4041170,2170071,0,0,0,10310409,3200090,40701019,0,0,0,0,4060040,0,0,0,0,-2051020,0,40010219,0,1011071,0,4191100,31911219,0
14,74,1148.41330121271,0,0,261548.289352755,261549.336416927,1,65,4,0,0,7,0,6052131,7382202,3040101,4291341,0,0,0,0,0,0,-4021111,2031020,0,0,2070031,0,2111170,0,0,0,0,3201001,0,0,0,0,0,3040101,0,0,0,0,0,0,0,1160190,3131151,0,0,0
14,75,801.534218218876,0,0,261551.607033319,261552.654102111,1,65,4,1,0,17,0,7161251,2181101,6072161,6282040,0,3110120,1050090,0,3001041,0,0,0,0,0,0,0,0,0,0,0,-2181101,0,4041021,0,0,0,0,0,0,0,2031140,0,0,0,0,0,0,2111000,4171040,0
14,76,861.255521886051,0,0,261554.654125978,261555.70119862,1,65,4,1,0,27,20,160543936,176833947,131627127,147159096,41801219,11100409,3130161,0,41300919,0,31300019,31911209,0,20210109,41401419,0,40110219,1051171,2040111,0,40610109,31410809,4071071,20600819,4120091,11100119,42010409,11902019,4030200,30711219,-3081180,30411509,0,21911919,0,0,30401209,21401619,3021131,40011709
14,77,1110.63361744164,0,0,261557.618900895,261558.66594043,1,65,4,1,0,11,20,109607546,111085588,148695706,168445714,1061041,21101319,1050010,2080130,20501009,10900519,0,31901909,21011609,11101819,-3040091,0,41310819,20401719,4031021,0,0,31200119,2060100,40911609,0,40700009,0,21401219,2201141,20610309,20811319,1201020,41910119,0,0,20911709,31600019,20001519,41711219,11110109
14,78,920.185730763478,1,0,261560.854197889,261561.9012713,1,65,4,0,1,33,20,106955627,186539893,95324898,129439407,0,40501519,30500009,0,0,3131061,0,21611919,11211119,21401809,20501509,1091200,41311319,40511819,11011409,0,40000619,10710209,0,4161151,21300209,4021201,0,3120180,31110119,20800919,10811119,40601709,0,1180171,2101120,21311119,-1031041,20401619,31510819,11301809
14,79,1438.96374150063,0,0,261563.889535765,261564.936612256,1,65,4,1,0,1,10,33323700,32730019,51911638,120966386,-3180040,2040201,0,10110109,2140160,3100120,1051051,0,11702019,30710019,0,0,2020000,0,0,0,0,0,0,0,11110319,0,0,0,40801319,0,0,1101170,31801409,0,10110609,0,30011009,32000219,4140061,11801909
14,80,1095.87690891931,1,0,261567.489591354,261568.536699412,1,65,4,1,1,36,0,10301283,4201061,0,13321421,0,3020151,3190121,0,4091011,0,0,0,0,0,0,4201061,0,0,0,0,0,0,0,0,0,0,0,0,0,0,0,4140200,4110120,0,0,0,0,3001031,0,-2070070
14,81,1141.02051092777,0,0,261570.807260754,261571.854329546,1,65,4,1,0,34,5,80062310,2330151,43652929,66154780,0,31911209,0,0,0,0,3160051,40910919,4080131,1130141,0,0,0,0,0,0,1200010,0,0,0,0,2051120,0,0,0,41601809,0,1141040,40200819,0,20501719,0,3141011,-1170191,0,0
14,82,1611.1579342687,1,0,261574.113165747,261575.160243393,1,65,4,0,1,2,0,5121221,1101021,8581361,6131071,0,-4060020,0,0,0,0,0,0,1061201,0,0,0,0,0,0,0,1101021,0,0,2201100,0,0,4200081,0,2180180,0,0,0,0,0,0,3011070,0,3120001,0,0
14,83,1490.61356869061,1,0,261577.842634047,261578.889699759,1,65,4,1,1,4,20,91545227,119466686,109952575,114556347,2041051,11601619,0,-3180001,21911609,0,11900409,30200319,10710219,0,31311809,4121021,0,20011419,11800319,22011709,30210409,0,3090020,0,11211119,2120080,0,20200209,21410409,40710219,11210519,0,1060061,11610909,11411019,21411019,21001319,4090101,41801719,2170200
14,84,1365.73261787998,0,0,261581.548582771,261582.59563501,1,65,4,0,0,25,10,91113377,44064178,93167027,71613769,40000709,31310619,0,0,3030100,0,2101090,3170050,11500809,0,20012009,0,0,0,3041050,0,0,21011119,0,0,0,3091140,40511909,2140160,-4201200,21810709,21411909,40312019,0,0,0,1201131,0,30100619,0,0
14,85,787.815364456037,0,0,261585.113325891,261586.160404692,1,65,4,0,0,9,20,119827966,57067327,112476236,207236664,0,30001309,11611809,40300319,11100219,21612019,0,2141121,-3061170,0,1171190,1091090,0,1090101,11502019,10900009,11010909,20302009,0,32011819,21201119,10710709,30400919,10910419,3191200,4050051,0,40210909,30211309,30012009,0,4090000,0,40311119,31501209,30900109
14,86,1270.855139388,1,0,261588.113403268,261589.160415086,1,65,4,0,1,30,10,108413138,24922290,78203559,119076168,2200111,3011080,0,0,0,30600419,41701419,30900109,0,3031131,0,0,20800119,0,0,0,1091040,0,0,0,0,0,32000809,1030151,41111409,4061190,0,0,30010709,-3131031,0,21600209,41001309,2021091,21311819,0
14,87,1487.35294933431,0,0,261591.548672852,261592.595755503,1,65,4,0,0,24,5,33371881,0,41444131,97613699,30011509,0,0,1110191,1090060,0,0,1160121,0,0,0,0,0,0,0,0,0,0,31910819,4201070,0,0,0,-4151131,0,0,1181111,2050041,2041201,0,31710719,0,41400319,20411419,0,0
14,88,905.112969281618,1,0,261595.184012807,261596.231082369,1,65,4,1,1,8,10,91544431,30711919,84993187,93998028,41601909,0,2000201,0,40512009,3140040,2120141,-2170131,0,0,0,0,0,0,0,0,30711919,0,0,0,22001419,20810609,2070050,40111109,0,0,0,4140031,12001409,21211509,40011609,0,4201110,0,11401319,1031041
14,89,1144.03591013979,1,0,261598.184052843,261599.231105467,1,65,4,1,1,35,0,6072371,2191071,8131250,10352221,0,0,0,4051191,0,0,0,0,2021180,0,0,0,0,0,0,0,2191071,0,4031070,0,0,0,0,0,0,0,4100180,0,2181180,0,4101021,0,0,0,-4070020,0
14,90,1787.3518714332,0,0,261601.45466962,261602.501756505,1,65,4,0,0,12,20,149016145,77003427,202938194,121517366,1170061,2110180,10801019,30411709,40700219,11012019,41700519,0,11110419,21511809,0,-1110110,0,20900419,3181070,0,0,30300019,32011519,0,3030030,31511209,3071080,30100009,40501919,22011019,40701409,10312019,20500919,0,40701309,3070050,21111809,0,4011051,21810209
14,91,916.19445552351,1,0,261605.395897245,261606.442961033,1,65,4,0,1,22,10,55217148,83603998,159775018,5131242,0,30801819,1071201,1030200,0,0,10302019,0,12011909,31110209,20012019,0,0,0,0,0,1071061,31410709,31001219,1101061,0,-2161090,1090011,41700409,0,41810009,40911219,0,0,0,0,3010201,0,0,0,2121041
14,92,1202.38020841498,0,0,261608.513584046,261609.560660152,1,65,4,0,0,5,0,6300292,2161100,4091091,7511182,0,1190161,0,0,-3040000,0,2070131,0,0,0,0,0,0,2161100,0,0,0,0,0,0,0,0,0,0,0,4091091,0,0,0,2190111,0,4191030,1130041,0,0,0
14,93,1041.10158368712,0,0,261611.784262801,261612.831278468,1,65,4,1,0,14,5,1000151,33885643,27022210,51722047,0,0,1000151,0,0,0,0,0,0,3091170,21211219,0,2171021,-3101091,3170011,0,0,1141131,0,0,0,0,3050141,2061060,0,21911009,0,0,0,10700009,0,0,0,10211619,0,30810419
14,94,619.374541012803,1,0,261614.972473295,261616.019553635,1,65,4,0,1,15,5,6190121,68881319,8160391,108204927,0,0,0,3130091,3060030,0,0,0,0,41700009,3030140,0,0,0,-4140151,20011019,0,0,0,0,0,3040110,3110081,0,0,2010200,0,21710019,3171070,0,0,41811919,0,0,41511919,0
14,95,1217.31938843732,1,0,261617.725446926,261618.772533811,1,65,4,1,1,6,10,36932260,86423418,126064566,47582479,3080130,0,0,0,30811009,-3041121,0,0,0,21911609,40210309,0,20000209,2181041,1080180,0,1040070,0,0,30210409,3020000,0,31411919,0,40910919,20511319,0,0,4121171,31500209,1150090,10811009,0,0,0,0
14,96,1086.05270518456,1,0,261621.113780915,261622.160794657,1,65,4,1,1,26,5,48561962,43312338,86233759,5412391,0,0,0,0,2200031,40201809,3150091,3010031,0,0,0,0,21511619,0,0,21800719,0,0,0,0,40412019,0,0,2151130,0,-2170001,41500609,2170190,2061031,0,0,0,0,0,1181170,0
14,97,1439.50769130606,1,0,261627.784389838,261628.83146325,1,65,5,0,1,7,20,109818497,49583248,219358342,123655967,11902009,30611309,1011001,21501909,2050200,40701909,-2040160,0,0,11100809,11210819,1200160,0,4171141,0,21900319,0,0,31910119,0,32001619,21410419,30711919,21301519,41611119,30301519,10110109,4080101,30601319,11810619,21011609,3090141,30201609,1060050,0,21800519
14,98,622.67134670401,1,0,261631.349133728,261632.396212913,1,65,5,1,1,8,10,91544431,30711919,84993187,93998028,41601909,0,2000201,0,40512009,3140040,2120141,-2170131,0,0,0,0,0,0,0,0,30711919,0,0,0,22001419,20810609,2070050,40111109,0,0,0,4140031,12001409,21211509,40011609,0,4201110,0,11401319,1031041
14,99,674.694970977725,0,0,261634.05505435,261635.102128146,1,65,5,0,0,28,20,160637125,58584517,167058234,82775408,11010219,1120201,10600519,41810619,31600519,41100709,10912019,2081101,10401219,4151030,0,0,10401219,21300409,1130131,10000809,11600919,0,30811609,0,1021140,31101619,0,41001709,30111019,21210019,11801119,-3201081,41410209,4001140,22001119,0,2051050,0,10110809,0
14,100,1671.69266045676,1,0,261636.902145162,261637.949212799,1,65,5,1,1,4,20,91545227,119466686,109952575,114556347,2041051,11601619,0,-3180001,21911609,0,11900409,30200319,10710219,0,31311809,4121021,0,20011419,11800319,22011709,30210409,0,3090020,0,11211119,2120080,0,20200209,21410409,40710219,11210519,0,1060061,11610909,11411019,21411019,21001319,4090101,41801719,2170200
14,101,779.678444610909,1,0,261640.655129187,261641.702204138,1,65,5,1,1,1,10,33323700,32730019,51911638,120966386,-3180040,2040201,0,10110109,2140160,3100120,1051051,0,11702019,30710019,0,0,2020000,0,0,0,0,0,0,0,11110319,0,0,0,40801319,0,0,1101170,31801409,0,10110609,0,30011009,32000219,4140061,11801909
14,102,689.72346195369,1,0,261643.561047807,261644.608118524,1,65,5,1,1,26,5,48561962,43312338,86233759,5412391,0,0,0,0,2200031,40201809,3150091,3010031,0,0,0,0,21511619,0,0,21800719,0,0,0,0,40412019,0,0,2151130,0,-2170001,41500609,2170190,2061031,0,0,0,0,0,1181170,0
14,103,728.28538637259,0,0,261646.455200096,261647.502265808,1,65,5,1,0,14,5,1000151,33885643,27022210,51722047,0,0,1000151,0,0,0,0,0,0,3091170,21211219,0,2171021,-3101091,3170011,0,0,1141131,0,0,0,0,3050141,2061060,0,21911009,0,0,0,10700009,0,0,0,10211619,0,30810419
14,104,480.221547535621,1,0,261649.302286288,261650.349360855,1,65,5,0,1,15,20,186485424,122075986,79845198,140457976,21610019,40901909,30111209,0,40810419,0,30410409,20501419,2140040,4070160,11701809,1001021,0,40810609,-1160140,10410719,41910019,11011509,4050201,30510909,10511809,21610009,0,2061051,0,0,11101219,30400109,11301719,20702019,31011219,1041151,4100040,41901719,0,0
14,105,993.693256372353,0,0,261651.97291446,261653.019975168,1,65,5,1,0,36,0,10301283,4201061,0,13321421,0,3020151,3190121,0,4091011,0,0,0,0,0,0,4201061,0,0,0,0,0,0,0,0,0,0,0,0,0,0,0,4140200,4110120,0,0,0,0,3001031,0,-2070070
14,106,1716.01360087516,0,0,261655.137713938,261656.184718056,1,65,5,1,0,6,10,36932260,86423418,126064566,47582479,3080130,0,0,0,30811009,-3041121,0,0,0,21911609,40210309,0,20000209,2181041,1080180,0,1040070,0,0,30210409,3020000,0,31411919,0,40910919,20511319,0,0,4121171,31500209,1150090,10811009,0,0,0,0
14,107,1031.54993231874,0,0,261659.031819646,261660.078880739,1,65,5,0,0,24,10,65854229,35143600,97240889,75674089,3021081,2030021,10402009,10100409,40300709,0,0,0,0,1031101,3111061,0,0,10401019,20600419,0,0,0,30800119,0,1200171,0,20200419,-4030161,0,0,41010019,40901409,30600409,0,0,0,1161131,0,0,3011140
14,108,2193.84523897315,1,0,261662.196560225,261663.243639026,1,65,5,0,1,25,5,36060211,5362351,158483547,5171161,2000071,0,0,0,31900009,0,0,2160131,0,1181191,0,0,0,4181160,0,0,0,0,41301109,40010809,0,0,31310409,40800019,-4041110,1020091,0,0,0,0,0,0,0,0,1170020,4001141
14,109,1136.83598526404,0,0,261666.490739307,261667.537792316,1,65,5,0,0,30,5,40573279,62952941,46743741,1070190,11910719,0,0,0,0,4171120,4091121,20400319,0,0,4200151,0,0,0,11501509,40110109,4140071,3001101,0,41601519,0,0,0,0,3131101,2011121,0,0,0,-1070190,0,0,0,0,0,0
14,110,1968.83478728705,1,0,261669.702575625,261670.749594757,1,65,5,1,1,35,0,6072371,2191071,8131250,10352221,0,0,0,4051191,0,0,0,0,2021180,0,0,0,0,0,0,0,2191071,0,4031070,0,0,0,0,0,0,0,4100180,0,2181180,0,4101021,0,0,0,-4070020,0
14,111,1258.34852768457,1,0,261673.784930708,261674.83200104,1,65,5,0,1,2,0,6092262,3140341,7090111,7370051,0,-4071061,0,0,2021201,0,0,0,0,0,0,2020180,0,1120161,0,0,0,0,0,0,0,4030020,0,0,0,0,3060091,0,3200021,0,4170030,0,0,0,0,0
14,112,1017.41185606807,1,0,261677.279086231,261678.326151173,1,65,5,1,1,17,0,7161251,2181101,6072161,6282040,0,3110120,1050090,0,3001041,0,0,0,0,0,0,0,0,0,0,0,-2181101,0,4041021,0,0,0,0,0,0,0,2031140,0,0,0,0,0,0,2111000,4171040,0
14,113,1078.52017408004,0,0,261680.385007855,261681.432073182,1,65,5,1,0,34,5,80062310,2330151,43652929,66154780,0,31911209,0,0,0,0,3160051,40910919,4080131,1130141,0,0,0,0,0,0,1200010,0,0,0,0,2051120,0,0,0,41601809,0,1141040,40200819,0,20501719,0,3141011,-1170191,0,0
14,114,933.62702766899,0,0,261683.56156789,261684.608578937,1,65,5,0,0,33,5,48243869,7522251,13981620,76523968,0,3020040,0,0,11111619,0,0,31001209,3111001,0,2191100,2200031,0,3131120,0,0,0,0,2071101,0,0,0,0,11910519,0,0,0,30011509,0,0,0,0,-2111050,4091190,0,40310219
14,115,1027.56520139519,1,0,261686.561545947,261687.608608194,1,65,5,0,1,12,0,6342262,2060171,4191001,6490413,0,0,0,0,0,2141131,4201131,0,0,0,0,-2060171,0,0,0,0,0,0,0,0,4191001,0,0,0,0,0,0,0,1170090,2090141,0,0,0,1050111,0,2180071
14,116,1436.8795628543,0,0,261689.832177352,261690.879242294,1,65,5,0,0,9,10,18864402,126338194,45412049,20834032,0,11512009,0,1011120,0,2120171,3100101,0,-1121001,31411709,10600619,0,10602019,0,40910809,21301619,11511419,0,2100021,0,0,0,31501619,0,11810409,0,0,11611919,4091081,3001021,0,0,2130011,0,0,0
14,117,1031.35706690955,1,0,261693.396917392,261694.443994653,1,65,5,0,1,22,0,6311342,11374371,4110030,0,3080061,0,0,0,0,0,0,1060090,2171191,1141111,4101000,3131180,0,0,3001080,0,0,0,0,0,0,-4110030,0,0,0,0,0,0,0,0,0,0,0,0,0,0
14,118,941.896759031806,0,0,261696.679321288,261697.726425496,1,65,5,1,0,27,20,160543936,176833947,131627127,147159096,41801219,11100409,3130161,0,41300919,0,31300019,31911209,0,20210109,41401419,0,40110219,1051171,2040111,0,40610109,31410809,4071071,20600819,4120091,11100119,42010409,11902019,4030200,30711219,-3081180,30411509,0,21911919,0,0,30401209,21401619,3021131,40011709
14,119,1013.61691093189,1,0,261699.820526509,261700.867599535,1,65,5,1,1,11,20,109607546,111085588,148695706,168445714,1061041,21101319,1050010,2080130,20501009,10900519,0,31901909,21011609,11101819,-3040091,0,41310819,20401719,4031021,0,0,31200119,2060100,40911609,0,40700009,0,21401219,2201141,20610309,20811319,1201020,41910119,0,0,20911709,31600019,20001519,41711219,11110109
14,120,824.349699512823,0,0,261702.914678721,261703.961746358,1,65,5,0,0,5,10,42973578,124613117,85883448,45190341,4010040,0,3191120,21600009,-2131090,10001209,0,2040110,0,0,0,1000151,40100219,0,10901019,0,40700819,31910909,0,0,0,2171001,0,31500519,0,31501319,20710609,0,0,3020021,0,0,0,2170201,0,40000119
14,121,1031.78321867017,0,0,261709.091222202,261710.13828676,1,65,6,1,0,35,0,6072371,2191071,8131250,10352221,0,0,0,4051191,0,0,0,0,2021180,0,0,0,0,0,0,0,2191071,0,4031070,0,0,0,0,0,0,0,4100180,0,2181180,0,4101021,0,0,0,-4070020,0
14,122,779.24805827206,0,0,261712.173613087,261713.220675335,1,65,6,0,0,28,5,18712700,71313247,38411610,6210180,0,0,2151121,11410409,0,0,0,2121040,3030130,0,0,0,0,10600219,20601109,0,0,40111919,0,0,3050050,0,0,4070051,0,1180200,30111309,-2110050,0,4100130,0,0,0,0,0,0
14,123,1628.81455369643,1,0,261715.197186557,261716.244251499,1,65,6,1,1,17,0,7161251,2181101,6072161,6282040,0,3110120,1050090,0,3001041,0,0,0,0,0,0,0,0,0,0,0,-2181101,0,4041021,0,0,0,0,0,0,0,2031140,0,0,0,0,0,0,2111000,4171040,0
14,124,623.676094808616,1,0,261718.950169427,261719.9972259,1,65,6,1,1,4,20,91545227,119466686,109952575,114556347,2041051,11601619,0,-3180001,21911609,0,11900409,30200319,10710219,0,31311809,4121021,0,20011419,11800319,22011709,30210409,0,3090020,0,11211119,2120080,0,20200209,21410409,40710219,11210519,0,1060061,11610909,11411019,21411019,21001319,4090101,41801719,2170200
14,125,664.995109662414,1,0,261721.714896301,261722.761958933,1,65,6,0,1,15,10,48230240,47842628,137074475,59453589,0,0,42010109,0,4190070,0,2030061,0,0,4120150,0,11600109,30111309,0,-2011060,0,0,0,40101609,0,0,0,41210709,11000409,30310419,3150120,11301209,0,3081040,0,4171051,0,1181080,30310009,0,20710409
14,126,1218.29988402897,1,0,261724.585512846,261725.632574709,1,65,6,1,1,8,10,91544431,30711919,84993187,93998028,41601909,0,2000201,0,40512009,3140040,2120141,-2170131,0,0,0,0,0,0,0,0,30711919,0,0,0,22001419,20810609,2070050,40111109,0,0,0,4140031,12001409,21211509,40011609,0,4201110,0,11401319,1031041
14,127,630.490288778674,0,0,261728.044379383,261729.091451254,1,65,6,0,0,22,0,1080170,2140190,6333541,7171380,0,0,1080170,0,0,0,0,0,0,0,0,0,0,0,0,2140190,0,0,4101200,1071181,0,-1161160,0,0,0,0,0,0,1010130,0,3090090,3071160,0,0,0,0
14,128,1390.06677013822,1,0,261730.879713871,261731.926770344,1,65,6,0,1,7,10,100524119,78174728,12231119,143216778,0,0,0,10701719,40711419,0,-4130031,3080131,41900819,4101200,0,3151190,0,30611519,0,40310819,0,0,1121110,0,0,11110009,0,0,0,0,0,3121140,2080101,0,0,21401319,4091071,41700009,40211719,30611419
14,129,1672.51147242496,1,0,261734.456219473,261735.503300968,1,65,6,0,1,12,0,0,6191241,4111080,11433540,0,0,0,0,0,0,0,0,0,0,0,-3020011,0,0,1021190,0,0,2150040,0,0,0,0,0,0,0,4111080,0,0,0,0,1140130,0,4041120,0,3201090,3051200
14,130,1344.08972767415,0,0,261738.385674992,261739.432737624,1,65,6,0,0,5,0,3081071,5301380,7251072,9301342,0,0,0,0,-3081071,0,0,0,0,0,0,0,0,0,2100190,3201190,0,0,0,0,0,0,3080051,0,0,0,4171021,0,3061081,4170130,0,0,0,0,0,2070131
14,131,1031.44291319768,1,0,261741.868071497,261742.915148758,1,65,6,0,1,30,20,171015036,174229094,108906347,98896156,30300909,31210219,4111181,0,41700919,21500019,2090170,0,40101619,3181020,41911919,1201181,30710319,31810509,11301509,11501609,32010019,10601009,31511009,0,4191130,0,2191180,31011509,40001519,0,0,11201109,40711509,-2171081,20810409,2181120,10310119,0,11510809,0
14,132,1000.73765698471,0,0,261745.126959283,261746.173988809,1,65,6,1,0,1,10,33323700,32730019,51911638,120966386,-3180040,2040201,0,10110109,2140160,3100120,1051051,0,11702019,30710019,0,0,2020000,0,0,0,0,0,0,0,11110319,0,0,0,40801319,0,0,1101170,31801409,0,10110609,0,30011009,32000219,4140061,11801909
14,133,1003.73804272385,0,0,261748.32696806,261749.374040317,1,65,6,1,0,27,20,160543936,176833947,131627127,147159096,41801219,11100409,3130161,0,41300919,0,31300019,31911209,0,20210109,41401419,0,40110219,1051171,2040111,0,40610109,31410809,4071071,20600819,4120091,11100119,42010409,11902019,4030200,30711219,-3081180,30411509,0,21911919,0,0,30401209,21401619,3021131,40011709
14,134,1040.29355064267,0,0,261751.456418113,261752.503489214,1,65,6,1,0,11,20,109607546,111085588,148695706,168445714,1061041,21101319,1050010,2080130,20501009,10900519,0,31901909,21011609,11101819,-3040091,0,41310819,20401719,4031021,0,0,31200119,2060100,40911609,0,40700009,0,21401219,2201141,20610309,20811319,1201020,41910119,0,0,20911709,31600019,20001519,41711219,11110109
14,135,607.685971393948,0,0,261754.679984191,261755.727051443,1,65,6,0,0,9,10,2221221,100024717,53882569,57363926,0,0,0,0,0,1090060,0,0,-1131161,31001409,0,21311719,0,31410019,3050000,0,3141051,10110519,0,0,4020170,3200200,11301719,4150171,0,0,31210309,20510709,11011519,4140170,0,10800509,0,0,0,10901019
14,136,1089.83687145519,1,0,261757.397733509,261758.444735703,1,65,6,1,1,36,0,10301283,4201061,0,13321421,0,3020151,3190121,0,4091011,0,0,0,0,0,0,4201061,0,0,0,0,0,0,0,0,0,0,0,0,0,0,0,4140200,4110120,0,0,0,0,3001031,0,-2070070
14,137,720.099576516077,0,0,261760.715350555,261761.762410877,1,65,6,0,0,2,5,21124279,65412568,76271968,4302101,11900919,-3011150,0,3131130,0,0,0,0,3081080,0,0,1031130,0,0,2181100,0,31700019,30500319,41500909,0,4170140,30600919,0,0,0,0,0,0,0,0,0,0,0,0,2151020,2151081
14,138,1748.30104658031,1,0,261763.52715084,261764.574211932,1,65,6,1,1,6,10,36932260,86423418,126064566,47582479,3080130,0,0,0,30811009,-3041121,0,0,0,21911609,40210309,0,20000209,2181041,1080180,0,1040070,0,0,30210409,3020000,0,31411919,0,40910919,20511319,0,0,4121171,31500209,1150090,10811009,0,0,0,0
14,139,613.752186211059,1,0,261767.397782399,261768.444849651,1,65,6,1,1,14,5,1000151,33885643,27022210,51722047,0,0,1000151,0,0,0,0,0,0,3091170,21211219,0,2171021,-3101091,3170011,0,0,1141131,0,0,0,0,3050141,2061060,0,21911009,0,0,0,10700009,0,0,0,10211619,0,30810419
14,140,954.283262952231,0,0,261770.233104954,261771.280173746,1,65,6,1,0,26,5,48561962,43312338,86233759,5412391,0,0,0,0,2200031,40201809,3150091,3010031,0,0,0,0,21511619,0,0,21800719,0,0,0,0,40412019,0,0,2151130,0,-2170001,41500609,2170190,2061031,0,0,0,0,0,1181170,0
14,141,758.228419872466,1,0,261773.433142218,261774.480209855,1,65,6,0,1,33,20,180593706,161088284,118035665,114346050,30600109,0,2200050,40700819,0,4181091,40400709,40600509,21910419,10900309,11311109,41600719,41601909,22001419,3070191,10400709,20201919,0,20801009,10910409,0,0,0,21810819,20900409,2001000,41612019,41210119,40101509,20500909,3180071,0,-4201200,0,4041191,1111051
14,142,773.187232902274,0,0,261776.386122701,261777.433191108,1,65,6,1,0,34,5,80062310,2330151,43652929,66154780,0,31911209,0,0,0,0,3160051,40910919,4080131,1130141,0,0,0,0,0,0,1200010,0,0,0,0,2051120,0,0,0,41601809,0,1141040,40200819,0,20501719,0,3141011,-1170191,0,0
14,143,1119.20515820384,0,0,261779.339123203,261780.386160043,1,65,6,0,0,25,5,80165047,17072550,8412501,30511519,4130200,3011090,21911719,30301919,0,0,0,0,20810119,2081041,10810309,0,3031010,0,0,0,1150190,0,4171150,0,0,0,0,1190150,-3051201,0,0,0,30511519,0,0,0,0,0,0,0
14,144,1454.79564598645,0,0,261782.57447794,261783.621494377,1,65,6,0,0,24,20,137894555,171996649,167548464,134884227,11510409,21111819,0,0,40210709,0,40100019,20800419,4161180,4040001,1111080,2061101,40310209,0,41401819,40900419,1070011,41102009,31401419,1071070,41211719,40001409,10800309,-1040101,21310219,10101709,10610509,0,40610009,0,41301809,0,1160181,21700819,30111409,0
14,145,819.093057594728,1,0,261789.398027234,261790.44510565,1,65,7,0,1,24,20,170146956,150316816,198376805,90493268,20010919,31402019,3041051,21311019,0,2170101,40810609,20800319,30600919,4071070,0,31402009,42000619,0,40200119,21300719,1141061,10201219,0,41910919,41710619,20511809,0,-2131001,20301019,31400419,40411019,4050100,1070101,21200409,0,1161120,0,31510019,0,31501519
14,146,783.84603196173,1,0,261792.292187992,261793.339274107,1,65,7,0,1,7,0,8241431,4211191,0,11411300,3031160,0,0,0,0,0,-1150121,4060150,0,2111051,0,0,0,0,2100140,0,0,0,0,0,0,0,0,0,0,0,0,0,3041120,4200030,0,0,4170150,0,0,0
14,147,1376.45301068551,1,0,261795.174624765,261796.221637352,1,65,7,1,1,4,20,91545227,119466686,109952575,114556347,2041051,11601619,0,-3180001,21911609,0,11900409,30200319,10710219,0,31311809,4121021,0,20011419,11800319,22011709,30210409,0,3090020,0,11211119,2120080,0,20200209,21410409,40710219,11210519,0,1060061,11610909,11411019,21411019,21001319,4090101,41801719,2170200
14,148,597.473342058947,0,0,261798.668729857,261799.715795569,1,65,7,0,0,5,20,155719016,192384954,56154087,66256379,41201709,11610109,40510709,21401919,-2161081,20810919,3040040,4071121,10911409,41301409,4071051,21500219,21200009,0,11910809,40400419,20100319,31900719,12011219,10710409,2121031,10700519,0,20610909,0,0,0,12000809,4081081,11401409,30510919,4081141,4181020,0,0,0
14,149,980.188055924373,0,0,261801.468759961,261802.515828368,1,65,7,0,0,2,5,34664560,15463010,2170040,84423447,2141150,-4051111,0,0,0,3201070,0,4060020,21211209,0,0,11101719,0,0,0,1191031,1170170,2000090,0,2170040,0,0,0,0,0,0,0,12000319,41811619,0,0,30611509,0,0,0,0
14,150,957.165080704726,1,0,261804.51586109,261805.562920257,1,65,7,1,1,17,0,7161251,2181101,6072161,6282040,0,3110120,1050090,0,3001041,0,0,0,0,0,0,0,0,0,0,0,-2181101,0,4041021,0,0,0,0,0,0,0,2031140,0,0,0,0,0,0,2111000,4171040,0
14,151,980.388620606391,0,0,261807.574711227,261808.621786178,1,65,7,1,0,36,0,10301283,4201061,0,13321421,0,3020151,3190121,0,4091011,0,0,0,0,0,0,4201061,0,0,0,0,0,0,0,0,0,0,0,0,0,0,0,4140200,4110120,0,0,0,0,3001031,0,-2070070
14,152,946.636783366557,0,0,261810.751280886,261811.798308487,1,65,7,1,0,27,20,160543936,176833947,131627127,147159096,41801219,11100409,3130161,0,41300919,0,31300019,31911209,0,20210109,41401419,0,40110219,1051171,2040111,0,40610109,31410809,4071071,20600819,4120091,11100119,42010409,11902019,4030200,30711219,-3081180,30411509,0,21911919,0,0,30401209,21401619,3021131,40011709
14,153,835.629825596698,1,0,261813.798457467,261814.845389597,1,65,7,1,1,34,5,80062310,2330151,43652929,66154780,0,31911209,0,0,0,0,3160051,40910919,4080131,1130141,0,0,0,0,0,0,1200010,0,0,0,0,2051120,0,0,0,41601809,0,1141040,40200819,0,20501719,0,3141011,-1170191,0,0
14,154,1375.67577452865,0,0,261816.704231342,261817.751303214,1,65,7,1,0,14,5,1000151,33885643,27022210,51722047,0,0,1000151,0,0,0,0,0,0,3091170,21211219,0,2171021,-3101091,3170011,0,0,1141131,0,0,0,0,3050141,2061060,0,21911009,0,0,0,10700009,0,0,0,10211619,0,30810419
14,155,749.774677155074,1,0,261820.257214674,261821.304269607,1,65,7,0,1,28,10,80634198,133716157,69345318,57033339,0,40900209,0,4131050,0,31511809,0,4091130,0,0,41001119,0,2190091,0,0,20001619,40311409,30211919,0,0,4201090,1171140,2151150,0,30710819,0,31111119,-4080180,0,0,0,0,0,1150131,11501019,40302009
14,156,946.59751735162,0,0,261823.210186688,261824.25725394,1,65,7,0,0,22,5,68352499,12191819,21742240,35741089,0,0,0,2081120,3050151,21811209,41410019,0,0,0,1170070,0,0,0,0,0,1011130,10010619,10300019,0,4191070,-4051101,0,0,3200050,0,0,31600909,0,0,4140180,0,0,0,0,0
14,157,700.211723335087,0,0,261826.24552495,261827.292583732,1,65,7,0,0,9,10,93178647,89424050,78784729,43611938,2150190,11901119,0,0,4051171,10901719,21211709,41911609,-1051130,3120180,0,40602009,3081101,0,41610719,1010041,0,0,0,0,41801909,0,1171041,31801619,0,4010160,0,31611119,0,0,0,12000819,0,0,0,0
14,158,920.249249349581,1,0,261828.998509744,261830.045550434,1,65,7,1,1,11,20,109607546,111085588,148695706,168445714,1061041,21101319,1050010,2080130,20501009,10900519,0,31901909,21011609,11101819,-3040091,0,41310819,20401719,4031021,0,0,31200119,2060100,40911609,0,40700009,0,21401219,2201141,20610309,20811319,1201020,41910119,0,0,20911709,31600019,20001519,41711219,11110109
14,159,912.991195364157,0,0,261832.092647328,261833.13970842,1,65,7,1,0,35,0,6072371,2191071,8131250,10352221,0,0,0,4051191,0,0,0,0,2021180,0,0,0,0,0,0,0,2191071,0,4031070,0,0,0,0,0,0,0,4100180,0,2181180,0,4101021,0,0,0,-4070020,0
14,160,1561.00522028282,1,0,261835.186797615,261836.233867177,1,65,7,0,1,33,20,150124966,130586686,165204895,97522998,0,41611419,2070191,21001409,11410609,40200119,2130010,0,31701209,0,4091070,30210719,31101519,11501309,10311309,40300609,0,3070151,30210019,0,1161201,20600919,40210309,0,21300309,21411419,30310719,0,10200419,1050161,1101011,0,-1060060,41700019,10711019,31700309
14,161,1368.84425731841,1,0,261838.833931619,261839.881019274,1,65,7,1,1,1,10,33323700,32730019,51911638,120966386,-3180040,2040201,0,10110109,2140160,3100120,1051051,0,11702019,30710019,0,0,2020000,0,0,0,0,0,0,0,11110319,0,0,0,40801319,0,0,1101170,31801409,0,10110609,0,30011009,32000219,4140061,11801909
14,162,2133.98149973364,0,0,261842.398644712,261843.445713888,1,65,7,0,0,12,5,23641311,53283189,18393420,36022100,1121091,0,1010111,0,0,0,21510109,0,0,0,0,-1161161,0,0,21011109,31110919,0,0,0,0,2161080,11001119,0,0,3151090,0,2080131,31800919,0,1141141,0,0,0,0,0,3080040
14,163,762.095737678465,1,0,261846.657538657,261847.704579732,1,65,7,1,1,26,5,48561962,43312338,86233759,5412391,0,0,0,0,2200031,40201809,3150091,3010031,0,0,0,0,21511619,0,0,21800719,0,0,0,0,40412019,0,0,2151130,0,-2170001,41500609,2170190,2061031,0,0,0,0,0,1181170,0
14,164,1126.51826158981,0,0,261849.575204362,261850.622273153,1,65,7,1,0,6,10,36932260,86423418,126064566,47582479,3080130,0,0,0,30811009,-3041121,0,0,0,21911609,40210309,0,20000209,2181041,1080180,0,1040070,0,0,30210409,3020000,0,31411919,0,40910919,20511319,0,0,4121171,31500209,1150090,10811009,0,0,0,0
14,165,574.431503686355,1,0,261852.834063661,261853.881130528,1,65,7,0,1,15,10,23092491,71693990,84663486,94742568,11710219,0,0,4150190,3161001,4071081,0,0,0,2121191,0,0,21900719,40400909,-4180030,3091141,0,0,0,20400019,10700109,20400409,0,0,1151030,32011919,0,31010019,31001119,0,0,0,0,30711419,0,2020011
14,166,1201.78610470612,0,0,261855.645863561,261856.692721503,1,65,7,0,0,30,0,0,4362200,7454382,6222222,0,0,0,0,0,0,0,0,0,0,0,0,0,0,0,3181040,1181160,0,0,0,1041040,2071040,0,0,0,3181181,1161121,0,0,-3161151,0,0,0,0,3061071,0
14,167,871.154408057919,1,0,261859.069422633,261860.11649412,1,65,7,0,1,25,0,1141080,5321281,8420424,4061090,0,0,0,0,0,0,0,0,1141080,0,2161131,0,0,0,0,0,0,3160150,0,0,0,1080201,0,3110201,-3050021,0,1180001,0,0,0,0,0,0,0,0,4061090
14,168,928.341898630606,0,0,261862.092991483,261863.1400622,1,65,7,1,0,8,10,91544431,30711919,84993187,93998028,41601909,0,2000201,0,40512009,3140040,2120141,-2170131,0,0,0,0,0,0,0,0,30711919,0,0,0,22001419,20810609,2070050,40111109,0,0,0,4140031,12001409,21211509,40011609,0,4201110,0,11401319,1031041
14,169,855.625467840582,1,0,261868.163652992,261869.210716779,1,65,8,1,1,26,5,48561962,43312338,86233759,5412391,0,0,0,0,2200031,40201809,3150091,3010031,0,0,0,0,21511619,0,0,21800719,0,0,0,0,40412019,0,0,2151130,0,-2170001,41500609,2170190,2061031,0,0,0,0,0,1181170,0
14,170,917.735454248032,0,0,261871.116631166,261872.163709966,1,65,8,1,0,36,0,10301283,4201061,0,13321421,0,3020151,3190121,0,4091011,0,0,0,0,0,0,4201061,0,0,0,0,0,0,0,0,0,0,0,0,0,0,0,4140200,4110120,0,0,0,0,3001031,0,-2070070
14,171,1066.46127195563,1,0,261874.210781453,261875.257847935,1,65,8,1,1,34,5,80062310,2330151,43652929,66154780,0,31911209,0,0,0,0,3160051,40910919,4080131,1130141,0,0,0,0,0,0,1200010,0,0,0,0,2051120,0,0,0,41601809,0,1141040,40200819,0,20501719,0,3141011,-1170191,0,0
14,172,1371.30454281578,0,0,261877.446109628,261878.493176495,1,65,8,0,0,2,5,47252881,13513599,47703017,5191321,0,-1110150,40811509,4170081,0,0,0,1161141,0,0,2041100,0,10411419,0,0,0,0,1061080,21301519,11610719,0,0,0,0,0,10700619,4090160,0,0,0,1150180,0,4041141,0,0,0
14,173,1177.61605474516,0,0,261880.963793965,261882.010862757,1,65,8,1,0,1,10,33323700,32730019,51911638,120966386,-3180040,2040201,0,10110109,2140160,3100120,1051051,0,11702019,30710019,0,0,2020000,0,0,0,0,0,0,0,11110319,0,0,0,40801319,0,0,1101170,31801409,0,10110609,0,30011009,32000219,4140061,11801909
14,174,2043.18114279886,0,0,261884.352071365,261885.399143621,1,65,8,0,0,24,20,129213525,116246905,75464279,149396935,12010209,0,2080080,41710809,0,30101509,31910009,11400909,0,0,21711519,31010109,10111919,21500309,1090021,10211019,0,20612009,0,10200509,3141050,3160141,11900409,-1050130,4000031,42012009,0,10501519,40400719,31410419,1111030,0,10911709,11710409,2151011,41200119
14,175,1102.87549920031,0,0,261888.587427257,261889.63448835,1,65,8,0,0,12,0,4110020,9352331,11602501,0,0,0,0,0,0,0,0,0,4110020,3130200,0,-4131051,0,0,2091080,0,0,0,2061101,0,0,4191180,2160180,3190040,0,0,0,0,0,0,0,0,0,0,0,0
14,176,509.391964355018,1,0,261891.869799202,261892.916858755,1,65,8,0,1,15,5,6303403,73832779,63431009,38442481,2041201,0,0,0,0,0,0,2081121,2181081,0,0,0,30901509,40911019,-1020121,0,0,1000130,0,0,0,0,21400219,2020181,0,0,40010609,3171131,31200309,0,0,4071041,0,0,0,0
14,177,780.739012057893,0,0,261894.481601489,261895.528670281,1,65,8,0,0,7,5,57173978,31951010,44803580,24581439,0,0,20801419,30110209,0,0,-3201180,0,3061170,0,0,1050191,0,0,0,30900819,0,0,0,0,40601309,2161150,2041121,0,0,0,0,0,0,1000110,0,20310019,0,2181150,0,1090160
14,178,840.887237427523,0,0,261897.505159945,261898.552229892,1,65,8,1,0,35,0,6072371,2191071,8131250,10352221,0,0,0,4051191,0,0,0,0,2021180,0,0,0,0,0,0,0,2191071,0,4031070,0,0,0,0,0,0,0,4100180,0,2181180,0,4101021,0,0,0,-4070020,0
14,179,580.186285107629,0,0,261900.564041649,261901.611093887,1,65,8,1,0,8,10,91544431,30711919,84993187,93998028,41601909,0,2000201,0,40512009,3140040,2120141,-2170131,0,0,0,0,0,0,0,0,30711919,0,0,0,22001419,20810609,2070050,40111109,0,0,0,4140031,12001409,21211509,40011609,0,4201110,0,11401319,1031041
14,180,1379.25629643723,1,0,261903.281706275,261904.328770063,1,65,8,1,1,27,20,160543936,176833947,131627127,147159096,41801219,11100409,3130161,0,41300919,0,31300019,31911209,0,20210109,41401419,0,40110219,1051171,2040111,0,40610109,31410809,4071071,20600819,4120091,11100119,42010409,11902019,4030200,30711219,-3081180,30411509,0,21911919,0,0,30401209,21401619,3021131,40011709
14,181,573.00137373386,1,0,261906.822922121,261907.869983983,1,65,8,0,1,22,10,78372630,42724227,34190559,130328737,0,30011709,0,4120021,1060000,2180091,0,0,41000809,0,10911709,0,0,20311409,11501109,0,0,0,0,0,0,-2020010,30100419,0,2070130,0,0,41501809,11801409,1141071,0,2200020,40411819,30101509,3171100,0
14,182,1152.58204346173,1,0,261909.540593677,261910.587665163,1,65,8,1,1,14,5,1000151,33885643,27022210,51722047,0,0,1000151,0,0,0,0,0,0,3091170,21211219,0,2171021,-3101091,3170011,0,0,1141131,0,0,0,0,3050141,2061060,0,21911009,0,0,0,10700009,0,0,0,10211619,0,30810419
14,183,1103.38518753997,1,0,261912.787688954,261913.834753896,1,65,8,1,1,11,20,109607546,111085588,148695706,168445714,1061041,21101319,1050010,2080130,20501009,10900519,0,31901909,21011609,11101819,-3040091,0,41310819,20401719,4031021,0,0,31200119,2060100,40911609,0,40700009,0,21401219,2201141,20610309,20811319,1201020,41910119,0,0,20911709,31600019,20001519,41711219,11110109
14,184,537.250819208566,0,0,261916.046549793,261917.093624359,1,65,8,1,0,4,20,91545227,119466686,109952575,114556347,2041051,11601619,0,-3180001,21911609,0,11900409,30200319,10710219,0,31311809,4121021,0,20011419,11800319,22011709,30210409,0,3090020,0,11211119,2120080,0,20200209,21410409,40710219,11210519,0,1060061,11610909,11411019,21411019,21001319,4090101,41801719,2170200
14,185,1228.11561857816,0,0,261918.83481241,261919.881876967,1,65,8,0,0,9,0,8231222,2080061,5161360,5181232,0,3110071,0,0,0,2020040,0,0,-3101111,0,0,0,0,0,0,0,0,2080061,0,0,0,0,3090180,2071180,0,0,0,3080061,0,2101171,0,0,0,0,0,0
14,186,989.274674444459,0,0,261922.187803518,261923.234875005,1,65,8,0,0,28,0,6202272,3141111,1110041,12302401,0,0,0,2101191,0,0,0,4101081,0,0,0,3141111,0,0,0,0,0,0,0,0,1110041,0,0,0,0,0,0,-4200060,2051030,0,0,0,2040201,4011110,0,0
14,187,1164.99664948788,0,0,261925.293720137,261926.340788159,1,65,8,0,0,25,20,221765944,182488156,159983714,64824610,10010219,30600409,41900009,21700209,0,40901719,3140051,32002009,41511319,0,40911809,40911819,4161130,41411319,11401809,40510119,0,3180151,41500909,42000109,11910219,0,21010109,0,-3050040,30300619,10211709,4111110,1001181,0,3061091,4030100,31410909,0,0,21210219
14,188,1397.44031237205,1,0,261928.51728737,261929.564351157,1,65,8,1,1,6,10,36932260,86423418,126064566,47582479,3080130,0,0,0,30811009,-3041121,0,0,0,21911609,40210309,0,20000209,2181041,1080180,0,1040070,0,0,30210409,3020000,0,31411919,0,40910919,20511319,0,0,4121171,31500209,1150090,10811009,0,0,0,0
14,189,1230.2098062064,1,0,261932.105558918,261933.152634255,1,65,8,0,1,33,10,100214779,33701388,7432342,148956137,4181191,0,40600919,21910309,30511209,0,0,0,3011151,0,0,2090060,0,20910809,10700519,0,0,0,3150130,0,3121201,0,0,1161011,0,0,0,0,41711309,40911009,11500809,3100201,-1010091,0,10511809,40210909
14,190,1379.27053999738,1,0,261935.56442815,261936.611498866,1,65,8,0,1,30,20,93446766,123935356,99674496,156565654,11410119,11111119,4131050,32011919,0,0,11301619,2170031,21310909,4181150,40901919,31400619,4130000,31100609,2011040,0,10210019,0,20701119,0,11901719,20511219,0,1060190,21700119,20600119,3200011,30010609,20100509,-4131080,0,0,10901709,40200319,20511319,30710109
14,191,895.393474958837,1,0,261939.011521425,261940.058599841,1,65,8,0,1,5,10,24092931,91694138,113024647,77823828,0,0,0,0,-3170080,11500409,4201131,3051170,2170141,41612019,21610409,0,4010071,3150130,0,21311509,0,0,41011319,0,0,0,41701319,0,0,0,30312009,31601019,0,0,0,0,3120021,31000809,10000819,2101160
14,192,1151.63195980131,0,0,261942.129198986,261943.176272397,1,65,8,1,0,17,0,7161251,2181101,6072161,6282040,0,3110120,1050090,0,3001041,0,0,0,0,0,0,0,0,0,0,0,-2181101,0,4041021,0,0,0,0,0,0,0,2031140,0,0,0,0,0,0,2111000,4171040,0
14,193,828.393329458777,0,0,261948.588107483,261949.63517127,1,65,9,0,0,24,0,3081041,1151111,15422170,5391151,0,0,0,0,0,3081041,0,0,0,0,0,0,1151111,0,0,0,0,0,0,0,3160080,4170070,0,-4081010,0,4011010,0,0,0,0,0,2200120,0,0,0,3191031
14,194,943.552091193851,0,0,261951.529317785,261952.576386962,1,65,9,0,0,22,10,89293229,98185558,10353411,82742766,40410709,3030181,0,0,20910219,0,0,4040101,20902019,40111209,0,4111011,40601619,0,0,10211719,0,3150000,0,0,0,-1051021,0,4090170,4081090,0,1131130,0,30410209,0,31512019,0,0,10710219,10110319,0
14,195,1183.48901916761,0,0,261954.647011515,261955.694059904,1,65,9,1,0,27,20,160543936,176833947,131627127,147159096,41801219,11100409,3130161,0,41300919,0,31300019,31911209,0,20210109,41401419,0,40110219,1051171,2040111,0,40610109,31410809,4071071,20600819,4120091,11100119,42010409,11902019,4030200,30711219,-3081180,30411509,0,21911919,0,0,30401209,21401619,3021131,40011709
14,196,711.955727369059,1,0,261958.023511419,261959.070560578,1,65,9,1,1,34,5,80062310,2330151,43652929,66154780,0,31911209,0,0,0,0,3160051,40910919,4080131,1130141,0,0,0,0,0,0,1200010,0,0,0,0,2051120,0,0,0,41601809,0,1141040,40200819,0,20501719,0,3141011,-1170191,0,0
14,197,1555.83442465286,1,0,261960.917716063,261961.964721721,1,65,9,0,1,7,20,130686777,104323876,180217366,148108335,0,30210519,40401609,1191010,3081171,21300919,-1031160,30300319,3170070,21600309,0,0,1111010,30700219,30010519,20901819,0,0,0,32001209,20001309,2181151,41211219,30611509,10700409,41510519,2000041,2081081,10410909,30100609,31801109,21201809,0,11111109,41401709,0
14,198,923.735070828116,1,0,261964.67067314,261965.717779658,1,65,9,0,1,12,5,20111309,33043501,49524150,11831590,0,0,0,0,0,20111309,0,0,0,0,20701109,-4000130,0,2171130,0,3090031,0,3081101,0,3070170,0,2081051,0,0,10811719,31501109,2060101,0,1031181,0,0,0,0,0,10800409,0
14,199,560.795801487984,0,0,261967.776623636,261968.823635068,1,65,9,1,0,14,5,1000151,33885643,27022210,51722047,0,0,1000151,0,0,0,0,0,0,3091170,21211219,0,2171021,-3101091,3170011,0,0,1141131,0,0,0,0,3050141,2061060,0,21911009,0,0,0,10700009,0,0,0,10211619,0,30810419
14,200,981.103493104456,0,0,261970.494244377,261971.54130316,1,65,9,1,0,11,20,109607546,111085588,148695706,168445714,1061041,21101319,1050010,2080130,20501009,10900519,0,31901909,21011609,11101819,-3040091,0,41310819,20401719,4031021,0,0,31200119,2060100,40911609,0,40700009,0,21401219,2201141,20610309,20811319,1201020,41910119,0,0,20911709,31600019,20001519,41711219,11110109
14,201,904.127469228115,1,0,261973.588388505,261974.635459991,1,65,9,1,1,36,0,10301283,4201061,0,13321421,0,3020151,3190121,0,4091011,0,0,0,0,0,0,4201061,0,0,0,0,0,0,0,0,0,0,0,0,0,0,0,4140200,4110120,0,0,0,0,3001031,0,-2070070
14,202,685.744505462935,1,0,261976.635489633,261977.682541872,1,65,9,1,1,35,0,6072371,2191071,8131250,10352221,0,0,0,4051191,0,0,0,0,2021180,0,0,0,0,0,0,0,2191071,0,4031070,0,0,0,0,0,0,0,4100180,0,2181180,0,4101021,0,0,0,-4070020,0
14,203,971.740472596139,0,0,261979.541406329,261980.588519776,1,65,9,0,0,25,0,2011121,7061102,8681391,1000141,2011121,0,0,0,0,0,0,0,0,0,0,0,3020021,0,0,0,0,4041081,0,4160180,0,2160051,0,0,-1180030,0,1181130,0,0,0,0,1000141,0,0,0,0
14,204,895.329956401838,0,0,261982.612030882,261983.65909313,1,65,9,0,0,5,5,32113899,41811319,34962870,39833739,11911419,0,0,0,-4201200,10700219,1160010,4141051,0,0,0,0,0,41811319,0,0,0,0,0,0,1031071,0,0,0,0,3031190,30900609,2071070,0,0,0,4011100,0,30701409,3050160,0
14,205,560.789642127929,0,0,261985.588587145,261986.635602812,1,65,9,1,0,8,10,91544431,30711919,84993187,93998028,41601909,0,2000201,0,40512009,3140040,2120141,-2170131,0,0,0,0,0,0,0,0,30711919,0,0,0,22001419,20810609,2070050,40111109,0,0,0,4140031,12001409,21211509,40011609,0,4201110,0,11401319,1031041
14,206,1781.00848474423,1,0,261988.21209494,261989.259153722,1,65,9,1,1,6,10,36932260,86423418,126064566,47582479,3080130,0,0,0,30811009,-3041121,0,0,0,21911609,40210309,0,20000209,2181041,1080180,0,1040070,0,0,30210409,3020000,0,31411919,0,40910919,20511319,0,0,4121171,31500209,1150090,10811009,0,0,0,0
14,207,740.066731639672,0,0,261992.118017025,261993.165085817,1,65,9,0,0,9,10,71972039,14190540,93313157,42416998,11201819,31100019,0,21600019,0,3000051,0,3030081,-2040050,0,0,12000509,0,2190031,0,0,0,0,0,0,40400919,0,0,11000419,0,0,41911819,10311719,4061141,11101719,1171090,0,4081030,1090180,10600119,0
14,208,644.510182028171,1,0,261995.082758066,261996.129823778,1,65,9,0,1,15,0,1121020,9132233,5201240,3160031,0,0,0,0,0,0,1121020,0,0,0,0,2010060,1031081,4021031,-2070061,0,0,0,0,0,0,0,0,0,2051120,3150120,0,0,0,0,0,0,0,3160031,0,0
14,209,1327.25576980738,0,0,261997.976913049,261999.023981841,1,65,9,1,0,4,20,91545227,119466686,109952575,114556347,2041051,11601619,0,-3180001,21911609,0,11900409,30200319,10710219,0,31311809,4121021,0,20011419,11800319,22011709,30210409,0,3090020,0,11211119,2120080,0,20200209,21410409,40710219,11210519,0,1060061,11610909,11411019,21411019,21001319,4090101,41801719,2170200
14,210,814.95703701512,0,0,262001.518131205,262002.565192682,1,65,9,1,0,17,0,7161251,2181101,6072161,6282040,0,3110120,1050090,0,3001041,0,0,0,0,0,0,0,0,0,0,0,-2181101,0,4041021,0,0,0,0,0,0,0,2031140,0,0,0,0,0,0,2111000,4171040,0
14,211,1127.59730717517,1,0,262004.50639336,262005.553464461,1,65,9,1,1,1,10,33323700,32730019,51911638,120966386,-3180040,2040201,0,10110109,2140160,3100120,1051051,0,11702019,30710019,0,0,2020000,0,0,0,0,0,0,0,11110319,0,0,0,40801319,0,0,1101170,31801409,0,10110609,0,30011009,32000219,4140061,11801909
14,212,1539.36040526605,0,0,262007.800555119,262008.847616211,1,65,9,1,0,26,5,48561962,43312338,86233759,5412391,0,0,0,0,2200031,40201809,3150091,3010031,0,0,0,0,21511619,0,0,21800719,0,0,0,0,40412019,0,0,2151130,0,-2170001,41500609,2170190,2061031,0,0,0,0,0,1181170,0
14,213,1103.4902818792,1,0,262011.447650627,262012.494720189,1,65,9,0,1,30,20,100065798,168858634,65523787,170238434,11011009,40311209,3201060,2011121,0,20510519,21910819,0,1110061,11510409,20701509,41012019,31400109,0,10301619,3121131,20200119,30611719,0,1181160,10710519,21700819,0,1131070,30800219,0,0,41011619,20010009,-3050130,20101819,10010709,4041130,41911309,0,30101709
14,214,1323.45043070382,0,0,262014.706511466,262015.753577178,1,65,9,0,0,33,10,34363428,56323788,109314567,73724670,0,10800719,0,0,0,0,0,20501509,3061200,0,0,41111419,4041110,0,1171040,10000219,0,0,3181170,2021160,0,0,40800609,21301219,0,42010409,0,2071081,0,0,21800209,0,-4000081,30311609,11511609,4030081
14,215,1466.72674105503,1,0,262018.271266904,262019.318325687,1,65,9,0,1,2,5,37383621,34261330,65773629,3130001,10600709,-1130021,0,0,20411609,0,3141101,0,2100181,1090101,0,2161020,0,0,0,0,0,31010209,0,0,2081200,41101009,20401219,0,0,2190201,0,0,0,3130001,0,0,0,0,0,0
14,216,799.733755819034,1,0,262021.883112692,262022.930183023,1,65,9,0,1,28,20,132065987,118368036,99256506,129143886,41700819,0,2101161,4041161,20010919,21100209,21410809,21700909,0,40900009,11801909,10101609,40212009,11211309,0,2080031,0,2061160,10001119,0,41810219,0,11501109,10511019,20312009,2020030,3101001,-4050040,1070181,0,20310709,10911009,31700719,20600019,40501209,0
14,217,1508.72559694108,0,0,262027.989047404,262029.036086554,1,65,10,1,0,14,5,1000151,33885643,27022210,51722047,0,0,1000151,0,0,0,0,0,0,3091170,21211219,0,2171021,-3101091,3170011,0,0,1141131,0,0,0,0,3050141,2061060,0,21911009,0,0,0,10700009,0,0,0,10211619,0,30810419
14,218,701.258047221927,0,0,262031.565534527,262032.61259716,1,65,10,0,0,9,10,56115118,116353827,35362789,47254930,0,11801819,1161081,20800319,20201819,0,0,1070080,-1080000,0,0,0,41701319,0,3041180,40501209,0,31110119,0,0,10411519,0,0,20901119,4050151,0,0,0,0,1151160,21501309,2161041,21300419,0,1141001,0
14,219,898.986315616639,0,0,262034.353799069,262035.400855157,1,65,10,1,0,36,0,10301283,4201061,0,13321421,0,3020151,3190121,0,4091011,0,0,0,0,0,0,4201061,0,0,0,0,0,0,0,0,0,0,0,0,0,0,0,4140200,4110120,0,0,0,0,3001031,0,-2070070
14,220,652.770289365435,1,0,262037.342083553,262038.389155039,1,65,10,1,1,34,5,80062310,2330151,43652929,66154780,0,31911209,0,0,0,0,3160051,40910919,4080131,1130141,0,0,0,0,0,0,1200010,0,0,0,0,2051120,0,0,0,41601809,0,1141040,40200819,0,20501719,0,3141011,-1170191,0,0
14,221,1221.68330589193,1,0,262040.142095948,262041.189174749,1,65,10,1,1,1,10,33323700,32730019,51911638,120966386,-3180040,2040201,0,10110109,2140160,3100120,1051051,0,11702019,30710019,0,0,2020000,0,0,0,0,0,0,0,11110319,0,0,0,40801319,0,0,1101170,31801409,0,10110609,0,30011009,32000219,4140061,11801909
14,222,1533.21257870994,1,0,262043.518609711,262044.565674653,1,65,10,1,1,11,20,109607546,111085588,148695706,168445714,1061041,21101319,1050010,2080130,20501009,10900519,0,31901909,21011609,11101819,-3040091,0,41310819,20401719,4031021,0,0,31200119,2060100,40911609,0,40700009,0,21401219,2201141,20610309,20811319,1201020,41910119,0,0,20911709,31600019,20001519,41711219,11110109
14,223,807.163887337083,0,0,262047.283384705,262048.33042424,1,65,10,1,0,4,20,91545227,119466686,109952575,114556347,2041051,11601619,0,-3180001,21911609,0,11900409,30200319,10710219,0,31311809,4121021,0,20011419,11800319,22011709,30210409,0,3090020,0,11211119,2120080,0,20200209,21410409,40710219,11210519,0,1060061,11610909,11411019,21411019,21001319,4090101,41801719,2170200
14,224,802.273728215368,1,0,262050.236334776,262051.283404338,1,65,10,1,1,35,0,6072371,2191071,8131250,10352221,0,0,0,4051191,0,0,0,0,2021180,0,0,0,0,0,0,0,2191071,0,4031070,0,0,0,0,0,0,0,4100180,0,2181180,0,4101021,0,0,0,-4070020,0
14,225,832.895062892931,1,0,262053.212844844,262054.259910171,1,65,10,0,1,25,5,71066248,6381261,15403450,45311860,30002019,0,21401419,4060130,0,0,0,11411609,4191071,0,0,2190121,4191140,0,0,0,0,0,0,0,0,0,0,1141140,-3161191,0,11101119,41210519,0,0,0,0,0,3030150,0,1071191
14,226,1356.40462880838,0,0,262056.142285349,262057.189354911,1,65,10,0,0,7,20,179499513,206828403,103532789,44943150,40712019,32010809,11502019,30800319,30500509,11911719,-1061110,0,21001009,41901109,20411819,0,21610619,30701019,30001219,41200909,21001709,0,31200309,1110001,3090200,10410209,20501109,31000919,0,4160021,2060021,0,31301319,0,0,1181060,10210519,1150161,0,1100091
14,227,678.295510850148,1,0,262059.648207588,262060.695271761,1,65,10,0,1,22,5,89903600,39181920,44682640,13821629,0,1030201,3160120,40800219,4201141,0,0,40711919,0,30910819,0,0,4200030,0,0,0,0,4071071,1191170,0,0,-2091061,41400409,0,0,0,0,0,3021020,0,0,0,0,0,10800609,0
14,228,1458.61407375196,0,0,262062.424708494,262063.471820401,1,65,10,0,0,33,0,8091222,4152180,4191021,6192141,0,2000051,0,0,0,0,0,2050081,4041090,1051120,3101060,0,0,0,0,0,0,0,0,0,4191021,0,0,0,0,0,0,0,0,0,0,0,-3131020,0,0,3061121
14,229,619.58126508398,1,0,262066.118868944,262067.165939275,1,65,10,1,1,26,5,48561962,43312338,86233759,5412391,0,0,0,0,2200031,40201809,3150091,3010031,0,0,0,0,21511619,0,0,21800719,0,0,0,0,40412019,0,0,2151130,0,-2170001,41500609,2170190,2061031,0,0,0,0,0,1181170,0
14,230,919.484331883723,0,0,262068.871840265,262069.918915986,1,65,10,1,0,17,0,7161251,2181101,6072161,6282040,0,3110120,1050090,0,3001041,0,0,0,0,0,0,0,0,0,0,0,-2181101,0,4041021,0,0,0,0,0,0,0,2031140,0,0,0,0,0,0,2111000,4171040,0
14,231,1567.68929742975,1,0,262071.871919182,262072.918947938,1,65,10,1,1,6,10,36932260,86423418,126064566,47582479,3080130,0,0,0,30811009,-3041121,0,0,0,21911609,40210309,0,20000209,2181041,1080180,0,1040070,0,0,30210409,3020000,0,31411919,0,40910919,20511319,0,0,4121171,31500209,1150090,10811009,0,0,0,0
14,232,987.733290763572,0,0,262075.542515787,262076.589575724,1,65,10,0,0,30,10,64292369,45123578,74653039,110035149,0,0,2081141,21410319,0,0,0,0,40800909,0,0,20611719,0,11701809,10700009,0,0,2110041,31810409,2191050,4070060,1150170,4130131,0,31301219,0,0,4181081,40801119,-2151121,0,21401719,41500109,0,0,0
14,233,989.366680121748,1,0,262078.777840112,262079.824910829,1,65,10,0,1,12,20,192149685,100873817,164923865,133303788,2121151,20611619,41311709,3081050,41310619,40100209,11911609,0,31701719,32000019,11300309,-2171031,0,21200719,0,0,2191020,32010719,20510419,0,0,40300419,21200809,40500209,41402009,1010000,0,11510119,10911619,3000131,41110609,1080121,40100019,4191151,21400019,0
14,234,1164.03732678737,0,0,262081.860230997,262082.907294015,1,65,10,0,0,28,5,57393670,66112828,7383071,28162581,0,0,30500809,2200161,0,3191081,0,21501619,0,40201709,4200100,0,0,0,21711019,0,0,0,2191000,4041071,0,0,0,1151000,0,0,0,-4051131,0,3001131,0,21110319,0,0,0,0
14,235,1159.52519935672,1,0,262085.189679433,262086.236750149,1,65,10,0,1,24,20,155668049,175927615,138308026,130489507,0,30611709,0,4200051,41201209,4121101,41302019,4120041,30111919,31400919,20602009,20701109,30701119,40400409,1110031,0,31012019,0,20611509,30801119,0,21111709,0,-4181101,1181160,40410319,20011109,10301709,21311109,3021201,0,0,2041141,41711119,31101509,21001719
14,236,709.754905576119,1,0,262088.460308528,262089.507424285,1,65,10,1,1,27,20,160543936,176833947,131627127,147159096,41801219,11100409,3130161,0,41300919,0,31300019,31911209,0,20210109,41401419,0,40110219,1051171,2040111,0,40610109,31410809,4071071,20600819,4120091,11100119,42010409,11902019,4030200,30711219,-3081180,30411509,0,21911919,0,0,30401209,21401619,3021131,40011709
14,237,757.568981760414,0,0,262091.401510361,262092.448580308,1,65,10,0,0,15,0,9532500,10260071,2171140,2040201,0,3201190,4200170,2131140,0,0,0,0,0,0,0,0,0,0,-4040020,2130010,0,4090041,0,0,0,0,2171140,0,0,0,0,0,0,0,0,0,0,2040201,0,0
14,238,645.170005125692,1,0,262094.225085062,262095.272138456,1,65,10,1,1,8,10,91544431,30711919,84993187,93998028,41601909,0,2000201,0,40512009,3140040,2120141,-2170131,0,0,0,0,0,0,0,0,30711919,0,0,0,22001419,20810609,2070050,40111109,0,0,0,4140031,12001409,21211509,40011609,0,4201110,0,11401319,1031041
14,239,1393.20150724961,0,0,262096.978052534,262098.025110932,1,65,10,0,0,2,10,50011118,76003757,87132728,51764829,0,-4160090,0,11800609,0,0,30910409,3140010,0,0,31601109,0,0,0,2000010,21100619,21302019,0,0,0,10900419,2150091,31610309,0,41311809,0,1160100,0,4201020,0,0,11211419,4020130,1131151,31201109,0
14,240,872.11527058389,1,0,262100.578087719,262101.625151892,1,65,10,0,1,5,0,4230032,6261120,5171221,6270301,0,0,0,0,-3170011,0,0,0,1060021,2131100,0,0,0,0,0,4130020,0,0,1100120,0,0,4071101,0,0,0,0,0,0,0,0,0,0,4160140,0,2110161,0
14,241,1064.55994979478,0,0,262106.613451388,262107.660525184,1,65,11,0,0,5,5,44851679,29353881,45225351,40301719,40800619,0,0,0,-4051060,0,0,0,0,0,0,3021051,3001081,2020140,0,0,0,21311609,0,1161041,11611709,0,21110419,4071020,4170081,3101081,0,0,0,40301719,0,0,0,0,0,0
14,242,732.294754794566,1,0,262109.907613917,262110.954676164,1,65,11,0,1,33,20,78845165,175144194,117392556,152238437,10201409,10300519,11910219,2000080,11601609,0,0,2021120,30810209,0,0,41201519,20110319,41810109,20400919,0,10310519,41310809,30310119,0,2160190,30800909,2151080,1060040,20700009,0,30210209,1021160,10900819,41202019,40700009,0,-4011031,2101061,10701919,41600419
14,243,656.128303817241,0,0,262112.84881267,262113.895884927,1,65,11,1,0,17,0,7161251,2181101,6072161,6282040,0,3110120,1050090,0,3001041,0,0,0,0,0,0,0,0,0,0,0,-2181101,0,4041021,0,0,0,0,0,0,0,2031140,0,0,0,0,0,0,2111000,4171040,0
14,244,939.696707151597,0,0,262115.731210561,262116.778292442,1,65,11,0,0,7,20,179577865,104976987,118655366,124009075,40011619,41001319,40811619,0,10200919,11902009,-4050061,0,31600319,0,2021171,20011519,0,41010319,1121060,0,20501509,20311409,21112019,40110209,0,0,11810509,20201019,4180010,20110519,1131081,41601009,3031200,11011319,1141110,0,4191090,11810309,40411119,10811919
14,245,958.631012006663,0,0,262118.837154512,262119.884248712,1,65,11,1,0,8,10,91544431,30711919,84993187,93998028,41601909,0,2000201,0,40512009,3140040,2120141,-2170131,0,0,0,0,0,0,0,0,30711919,0,0,0,22001419,20810609,2070050,40111109,0,0,0,4140031,12001409,21211509,40011609,0,4201110,0,11401319,1031041
14,246,1168.81738702068,1,0,262121.884249097,262122.931293251,1,65,11,1,1,1,10,33323700,32730019,51911638,120966386,-3180040,2040201,0,10110109,2140160,3100120,1051051,0,11702019,30710019,0,0,2020000,0,0,0,0,0,0,0,11110319,0,0,0,40801319,0,0,1101170,31801409,0,10110609,0,30011009,32000219,4140061,11801909
14,247,1301.49572211667,1,0,262125.272485305,262126.319556407,1,65,11,1,1,34,5,80062310,2330151,43652929,66154780,0,31911209,0,0,0,0,3160051,40910919,4080131,1130141,0,0,0,0,0,0,1200010,0,0,0,0,2051120,0,0,0,41601809,0,1141040,40200819,0,20501719,0,3141011,-1170191,0,0
14,248,497.754594514845,1,0,262128.790178881,262129.837242283,1,65,11,0,1,15,10,39453288,59493419,35903598,96084147,3050160,0,20100409,10001719,3201000,0,3100000,0,0,0,0,10200019,0,31010419,-4041111,2021161,1010090,11210619,2201070,0,22001519,0,11701009,0,0,0,0,0,0,0,40500709,0,30301609,21111719,0,4170110
14,249,903.19586370606,0,0,262131.472562991,262132.519627163,1,65,11,0,0,30,0,1160120,5200232,9251292,6172342,0,0,0,0,0,0,0,1160120,0,0,0,3170111,0,0,0,0,2030121,0,0,0,0,3140091,0,2090090,0,0,4021111,0,0,-2031151,0,0,0,0,0,4141191
14,250,905.450580088655,0,0,262134.437306341,262135.484368973,1,65,11,1,0,36,0,10301283,4201061,0,13321421,0,3020151,3190121,0,4091011,0,0,0,0,0,0,4201061,0,0,0,0,0,0,0,0,0,0,0,0,0,0,0,4140200,4110120,0,0,0,0,3001031,0,-2070070
14,251,890.135678142542,1,0,262137.472638058,262138.519680672,1,65,11,0,1,2,5,40261439,5250221,84923838,36611570,4191060,-4160120,0,0,0,0,1200050,30710209,0,0,0,0,0,0,0,4050020,1200201,0,41601019,0,2110081,0,10511719,0,0,0,30701019,0,0,3051160,2050001,0,31510409,0,0,0
14,252,846.608912193915,1,0,262140.602102354,262141.649150743,1,65,11,0,1,24,20,158244147,127864156,159006786,161335967,2120001,0,3170071,30210619,0,40011909,20010819,31110619,31610109,3150140,2080041,40410909,41311209,0,0,10110419,10200819,20600619,10301819,41501619,41600419,40411009,0,-3191201,22000719,0,0,0,1201200,31301409,1180041,30400119,41300409,31301219,21501519,3150051
14,253,730.341462825891,0,0,262143.696226464,262144.74329718,1,65,11,1,0,4,20,91545227,119466686,109952575,114556347,2041051,11601619,0,-3180001,21911609,0,11900409,30200319,10710219,0,31311809,4121021,0,20011419,11800319,22011709,30210409,0,3090020,0,11211119,2120080,0,20200209,21410409,40710219,11210519,0,1060061,11610909,11411019,21411019,21001319,4090101,41801719,2170200
14,254,1002.40646279417,1,0,262146.649211567,262147.696278819,1,65,11,1,1,6,10,36932260,86423418,126064566,47582479,3080130,0,0,0,30811009,-3041121,0,0,0,21911609,40210309,0,20000209,2181041,1080180,0,1040070,0,0,30210409,3020000,0,31411919,0,40910919,20511319,0,0,4121171,31500209,1150090,10811009,0,0,0,0
14,255,785.77468637377,1,0,262149.813963309,262150.861020552,1,65,11,0,1,28,0,7271311,3061011,0,8421292,1030020,0,0,0,3200180,0,0,0,3041111,0,0,0,0,0,0,3061011,0,0,0,0,0,0,0,0,0,0,0,-2160101,1081100,0,0,4030051,0,0,0,1150040
14,256,936.749061045703,1,0,262152.672841625,262153.719878465,1,65,11,1,1,14,5,1000151,33885643,27022210,51722047,0,0,1000151,0,0,0,0,0,0,3091170,21211219,0,2171021,-3101091,3170011,0,0,1141131,0,0,0,0,3050141,2061060,0,21911009,0,0,0,10700009,0,0,0,10211619,0,30810419
14,257,620.538278017193,1,0,262155.755195554,262156.802261266,1,65,11,0,1,9,10,96344847,55633148,15473443,97154527,0,0,0,40211519,20811609,10800619,0,21401019,-3120081,0,0,0,4111120,0,21510119,30011909,0,0,0,4091001,0,4100080,3060031,0,0,2141141,2081190,40900719,0,11412009,2020071,0,20911719,21910009,0,0
14,258,1086.79760462837,0,0,262158.519932437,262159.567002768,1,65,11,0,0,12,5,82192950,45221239,66660398,3232250,3030081,0,3130161,40900609,0,0,32010919,3121180,0,0,1141180,-2080040,42000019,0,0,0,0,0,0,31300009,0,0,0,4050080,0,0,31310309,0,0,2121080,0,0,0,0,1111170,0
14,259,709.639802225865,0,0,262161.672908994,262162.719973166,1,65,11,1,0,27,20,160543936,176833947,131627127,147159096,41801219,11100409,3130161,0,41300919,0,31300019,31911209,0,20210109,41401419,0,40110219,1051171,2040111,0,40610109,31410809,4071071,20600819,4120091,11100119,42010409,11902019,4030200,30711219,-3081180,30411509,0,21911919,0,0,30401209,21401619,3021131,40011709
14,260,778.204814065248,0,0,262164.602357583,262165.649415211,1,65,11,0,0,22,0,3170210,5121331,4312350,4281112,0,2110160,0,0,0,0,0,0,1060050,3071131,0,0,0,0,2050200,0,0,0,0,0,0,-3171170,0,0,0,1141180,0,0,1081041,0,0,0,0,3200071,0,0
14,261,667.571653379127,0,0,262167.472976439,262168.52004985,1,65,11,1,0,11,20,109607546,111085588,148695706,168445714,1061041,21101319,1050010,2080130,20501009,10900519,0,31901909,21011609,11101819,-3040091,0,41310819,20401719,4031021,0,0,31200119,2060100,40911609,0,40700009,0,21401219,2201141,20610309,20811319,1201020,41910119,0,0,20911709,31600019,20001519,41711219,11110109
14,262,1903.93460378982,1,0,262170.249475419,262171.296546135,1,65,11,0,1,25,10,9384421,54883099,79583978,136544265,1031170,0,0,0,0,1071170,0,4111081,3171000,1091080,0,0,0,10710509,2180091,0,0,40901419,0,0,0,20911309,10610819,2001141,-4150000,41910709,0,0,31410319,10810809,0,31410509,0,21301609,41611019,0
14,263,1721.98203561129,0,0,262174.249591677,262175.296595795,1,65,11,1,0,26,5,48561962,43312338,86233759,5412391,0,0,0,0,2200031,40201809,3150091,3010031,0,0,0,0,21511619,0,0,21800719,0,0,0,0,40412019,0,0,2151130,0,-2170001,41500609,2170190,2061031,0,0,0,0,0,1181170,0
14,264,922.844656161033,0,0,262178.155456788,262179.202549063,1,65,11,1,0,35,0,6072371,2191071,8131250,10352221,0,0,0,4051191,0,0,0,0,2021180,0,0,0,0,0,0,0,2191071,0,4031070,0,0,0,0,0,0,0,4100180,0,2181180,0,4101021,0,0,0,-4070020,0
14,265,782.921355741564,0,0,262184.75553047,262185.802594257,1,65,12,0,0,9,10,78504019,79385767,91235148,5240151,10900019,1010151,40810809,0,0,0,21702009,0,-4081031,20501919,11510819,0,4201170,0,0,0,1170050,42001809,0,32000419,10500609,4141131,0,4180171,20201009,0,20211809,0,0,0,0,0,2180021,3060130,0,0
14,266,1252.98101699445,0,0,262187.720261502,262188.767335298,1,65,12,0,0,25,20,120846716,90226956,100974336,209555944,0,2131070,42001419,2091081,10011409,31501219,0,11300509,21810009,0,31312009,21801119,21300909,0,10700819,1011060,4101040,0,0,40201419,4121060,20101019,0,21200709,-1090040,10100019,4160070,3110171,40700209,30601009,11910609,30611109,31001709,20210009,41411119,0
14,267,1831.20392938145,0,0,262191.190895524,262192.237960467,1,65,12,1,0,1,10,33323700,32730019,51911638,120966386,-3180040,2040201,0,10110109,2140160,3100120,1051051,0,11702019,30710019,0,0,2020000,0,0,0,0,0,0,0,11110319,0,0,0,40801319,0,0,1101170,31801409,0,10110609,0,30011009,32000219,4140061,11801909
14,268,673.939292610157,0,0,262195.179174618,262196.226239945,1,65,12,0,0,7,0,8282261,5111182,4151141,4092140,2071040,0,4180201,0,0,0,-2031020,0,0,1071091,0,0,4040091,0,0,0,0,0,0,4151141,0,0,0,0,0,0,0,1051030,0,0,0,0,3041110,0,0,0
14,269,1106.76822444657,1,0,262198.014512956,262199.061574049,1,65,12,0,1,30,10,14584290,67422108,99934309,109906208,0,0,1051100,0,0,0,11402009,0,2131181,0,11210619,0,0,0,0,11100109,4110171,41001209,31311209,0,3070150,1110021,0,30311209,30000519,0,4131201,0,0,-4151161,20811909,42000509,41811609,0,0,1131020
14,270,697.675985458773,0,0,262201.261603614,262202.308662397,1,65,12,0,0,22,0,7663543,7270252,2191142,0,0,3201161,1180150,0,0,0,2081161,1201071,0,0,3170141,4100111,0,0,0,0,0,0,0,0,0,-1011041,0,0,0,0,1180101,0,0,0,0,0,0,0,0,0
14,271,690.449498302769,0,0,262204.167519925,262205.214585637,1,65,12,1,0,17,0,7161251,2181101,6072161,6282040,0,3110120,1050090,0,3001041,0,0,0,0,0,0,0,0,0,0,0,-2181101,0,4041021,0,0,0,0,0,0,0,2031140,0,0,0,0,0,0,2111000,4171040,0
14,272,1046.30317614647,1,0,262206.908727224,262207.955788317,1,65,12,0,1,12,0,3101080,8481153,3191000,11351113,3101080,0,0,0,0,0,0,0,0,0,0,-2140001,0,4181141,0,0,0,2160011,0,0,0,0,0,0,3191000,0,0,0,3151051,0,0,4160001,0,4040061,0,0
14,273,1623.41085675871,0,0,262210.108835321,262211.15583328,1,65,12,0,0,33,10,42830979,63696878,85902908,64592568,0,0,0,0,2120160,0,40710819,0,0,0,0,32002009,3011050,10611819,3180090,10710509,3001201,1180200,0,1130060,0,0,31910019,0,1060201,41201319,10601309,0,21100919,20910409,20400119,0,-2181121,0,0,0
14,274,1107.46731352992,1,0,262213.826446823,262214.873518695,1,65,12,1,1,36,0,10301283,4201061,0,13321421,0,3020151,3190121,0,4091011,0,0,0,0,0,0,4201061,0,0,0,0,0,0,0,0,0,0,0,0,0,0,0,4140200,4110120,0,0,0,0,3001031,0,-2070070
14,275,805.983981932513,0,0,262217.002951039,262218.050020986,1,65,12,1,0,8,10,91544431,30711919,84993187,93998028,41601909,0,2000201,0,40512009,3140040,2120141,-2170131,0,0,0,0,0,0,0,0,30711919,0,0,0,22001419,20810609,2070050,40111109,0,0,0,4140031,12001409,21211509,40011609,0,4201110,0,11401319,1031041
14,276,1383.27759865206,1,0,262219.873579903,262220.92064754,1,65,12,1,1,4,20,91545227,119466686,109952575,114556347,2041051,11601619,0,-3180001,21911609,0,11900409,30200319,10710219,0,31311809,4121021,0,20011419,11800319,22011709,30210409,0,3090020,0,11211119,2120080,0,20200209,21410409,40710219,11210519,0,1060061,11610909,11411019,21411019,21001319,4090101,41801719,2170200
14,277,754.815740976483,1,0,262223.344206997,262224.391274249,1,65,12,1,1,34,5,80062310,2330151,43652929,66154780,0,31911209,0,0,0,0,3160051,40910919,4080131,1130141,0,0,0,0,0,0,1200010,0,0,0,0,2051120,0,0,0,41601809,0,1141040,40200819,0,20501719,0,3141011,-1170191,0,0
14,278,1810.89646881446,1,0,262226.250196066,262227.297200569,1,65,12,1,1,6,10,36932260,86423418,126064566,47582479,3080130,0,0,0,30811009,-3041121,0,0,0,21911609,40210309,0,20000209,2181041,1080180,0,1040070,0,0,30210409,3020000,0,31411919,0,40910919,20511319,0,0,4121171,31500209,1150090,10811009,0,0,0,0
14,279,838.826541381422,1,0,262230.308993078,262231.35606495,1,65,12,1,1,11,20,109607546,111085588,148695706,168445714,1061041,21101319,1050010,2080130,20501009,10900519,0,31901909,21011609,11101819,-3040091,0,41310819,20401719,4031021,0,0,31200119,2060100,40911609,0,40700009,0,21401219,2201141,20610309,20811319,1201020,41910119,0,0,20911709,31600019,20001519,41711219,11110109
14,280,932.330479146913,0,0,262233.391384733,262234.43845391,1,65,12,1,0,26,5,48561962,43312338,86233759,5412391,0,0,0,0,2200031,40201809,3150091,3010031,0,0,0,0,21511619,0,0,21800719,0,0,0,0,40412019,0,0,2151130,0,-2170001,41500609,2170190,2061031,0,0,0,0,0,1181170,0
14,281,973.871231544763,0,0,262236.473774848,262237.520847874,1,65,12,0,0,5,20,125496267,143777295,59132678,214937993,12010509,20100009,40200819,3180151,-3171180,41601409,0,3201040,2031150,0,31400619,31711119,21511409,21711219,21711809,3180001,1141100,11410019,21611119,11910219,21410119,1091050,0,0,0,0,3110171,0,40810409,11701109,10101919,0,40101119,40810509,30011319,41401609
14,282,973.697999084834,1,0,262239.567957087,262240.615050516,1,65,12,0,1,24,20,139586677,61305769,121598683,160715834,4111070,0,0,40211919,0,41511909,41600709,1150161,11000909,11501319,2081120,0,11800809,2011121,30901319,0,0,3010081,10400909,3161090,11011609,21311219,31710709,-2081100,21210409,10510519,10201119,20511219,31911219,0,11800809,40610209,21511519,0,4170040,30200819
14,283,1260.52971649915,1,0,262242.756192218,262243.803262549,1,65,12,0,1,2,5,4040000,69787129,27421651,35312210,0,-4040000,0,0,0,0,0,0,0,10402009,2201101,1011061,0,0,3071130,40300409,10701419,2100000,4070091,0,0,0,0,0,0,20301509,3050051,31111109,4201101,0,0,0,0,0,0,0
14,284,988.432764832396,0,0,262246.203288188,262247.250373148,1,65,12,0,0,28,5,4241070,35872640,30153499,78044229,0,0,0,0,3201020,0,0,0,1040050,0,0,1091190,0,0,31601409,3180041,0,0,10301009,0,0,11711419,4140060,0,4001011,0,0,-3110151,30701019,40101919,0,4131140,0,0,0,0
14,285,1044.40031416016,1,0,262249.309217125,262250.356281683,1,65,12,1,1,35,0,6072371,2191071,8131250,10352221,0,0,0,4051191,0,0,0,0,2021180,0,0,0,0,0,0,0,2191071,0,4031070,0,0,0,0,0,0,0,4100180,0,2181180,0,4101021,0,0,0,-4070020,0
14,286,496.750616293866,0,0,262252.521013792,262253.568084509,1,65,12,0,0,15,5,10401261,6161412,74223418,56043039,0,3060070,0,0,3181180,4160011,0,0,0,0,1101081,2050201,0,0,-3010130,0,0,0,1111171,0,11201609,0,0,0,0,21500119,40410519,0,4141111,0,30600209,0,0,21301719,0,0
14,287,894.044186803512,1,0,262255.203397132,262256.250463614,1,65,12,1,1,27,20,160543936,176833947,131627127,147159096,41801219,11100409,3130161,0,41300919,0,31300019,31911209,0,20210109,41401419,0,40110219,1051171,2040111,0,40610109,31410809,4071071,20600819,4120091,11100119,42010409,11902019,4030200,30711219,-3081180,30411509,0,21911919,0,0,30401209,21401619,3021131,40011709
14,288,627.197717723902,1,0,262258.30931606,262259.356392936,1,65,12,1,1,14,5,1000151,33885643,27022210,51722047,0,0,1000151,0,0,0,0,0,0,3091170,21211219,0,2171021,-3101091,3170011,0,0,1141131,0,0,0,0,3050141,2061060,0,21911009,0,0,0,10700009,0,0,0,10211619,0,30810419
14,289,940.183682774659,0,0,262264.262320411,262265.309385738,1,65,13,1,0,36,0,10301283,4201061,0,13321421,0,3020151,3190121,0,4091011,0,0,0,0,0,0,4201061,0,0,0,0,0,0,0,0,0,0,0,0,0,0,0,4140200,4110120,0,0,0,0,3001031,0,-2070070
14,290,621.104555553757,0,0,262267.262360062,262268.309425389,1,65,13,1,0,4,20,91545227,119466686,109952575,114556347,2041051,11601619,0,-3180001,21911609,0,11900409,30200319,10710219,0,31311809,4121021,0,20011419,11800319,22011709,30210409,0,3090020,0,11211119,2120080,0,20200209,21410409,40710219,11210519,0,1060061,11610909,11411019,21411019,21001319,4090101,41801719,2170200
14,291,1060.60871051159,0,0,262269.932978995,262270.980051251,1,65,13,0,0,24,0,7201221,8381291,4312091,4200111,0,0,3100080,4101141,0,0,0,0,0,3141100,2200130,0,3040061,0,0,0,0,0,0,0,0,0,0,-3181001,0,0,1131090,0,0,0,0,0,4200111,0,0,0
14,292,1081.80312119657,1,0,262273.20361271,262274.250729622,1,65,13,0,1,5,0,5391162,4131251,8140291,2041031,1120130,0,2120011,0,-2151021,0,0,0,0,0,1041090,0,0,0,0,3090161,0,0,0,0,0,0,4050151,4090140,0,0,0,0,0,0,0,0,0,0,0,2041031
14,293,1423.86287788395,0,0,262276.415405142,262277.462475089,1,65,13,0,0,33,10,80412737,20594630,168614796,49903249,0,0,10001319,40110409,0,0,0,30301009,0,0,0,4081080,4191041,0,10301419,0,2021090,0,0,41011519,41600409,3100200,40312009,2090040,40500619,0,0,21011609,3020080,20710409,2081100,0,-3080051,0,0,0
14,294,1056.94388208212,0,0,262280.015448027,262281.062542996,1,65,13,1,0,1,10,33323700,32730019,51911638,120966386,-3180040,2040201,0,10110109,2140160,3100120,1051051,0,11702019,30710019,0,0,2020000,0,0,0,0,0,0,0,11110319,0,0,0,40801319,0,0,1101170,31801409,0,10110609,0,30011009,32000219,4140061,11801909
14,295,782.366627012379,1,0,262283.23901526,262284.286079047,1,65,13,0,1,22,10,49972540,74545616,44162009,113233366,0,0,3011160,0,0,0,3130071,41700219,2131090,0,31510119,0,10301519,11311119,1021150,0,20401709,0,0,4091110,0,-3020000,1040130,0,31900619,0,4110150,0,0,0,40110319,30911909,0,22010519,0,20200619
14,296,843.036474485416,0,0,262286.121400832,262287.168484637,1,65,13,1,0,8,10,91544431,30711919,84993187,93998028,41601909,0,2000201,0,40512009,3140040,2120141,-2170131,0,0,0,0,0,0,0,0,30711919,0,0,0,22001419,20810609,2070050,40111109,0,0,0,4140031,12001409,21211509,40011609,0,4201110,0,11401319,1031041
14,297,1501.48332637036,1,0,262289.156727929,262290.203791717,1,65,13,1,1,27,20,160543936,176833947,131627127,147159096,41801219,11100409,3130161,0,41300919,0,31300019,31911209,0,20210109,41401419,0,40110219,1051171,2040111,0,40610109,31410809,4071071,20600819,4120091,11100119,42010409,11902019,4030200,30711219,-3081180,30411509,0,21911919,0,0,30401209,21401619,3021131,40011709
14,298,942.453797557391,1,0,262292.709713571,262293.756768889,1,65,13,0,1,9,20,169265905,156509883,93184117,109006097,40311709,3040140,21111209,41101519,0,31710009,0,30911319,-1080000,31511109,21501909,10200219,30911019,0,30001619,20312009,11000919,1071080,20802019,4020040,20710109,0,30410809,3050010,4091011,10100119,0,40902019,10911719,4190191,10101519,0,0,40900519,0,2000130
14,299,1131.15203671623,1,0,262295.850954978,262296.897986043,1,65,13,1,1,11,20,109607546,111085588,148695706,168445714,1061041,21101319,1050010,2080130,20501009,10900519,0,31901909,21011609,11101819,-3040091,0,41310819,20401719,4031021,0,0,31200119,2060100,40911609,0,40700009,0,21401219,2201141,20610309,20811319,1201020,41910119,0,0,20911709,31600019,20001519,41711219,11110109
14,300,1167.29602130363,0,0,262299.050953361,262300.098022923,1,65,13,0,0,12,20,186014704,142715776,144499874,52203759,0,30300319,0,41501919,41100209,20801519,0,21300619,31010119,0,42010109,-1061180,0,40601009,31900919,3041020,21901519,2200020,2131180,12000719,11611819,21200309,10101219,31401309,31601709,20310409,4141201,0,0,11600019,4041161,20000109,11301309,3181100,0,2080061
14,301,1052.72240022896,1,0,262302.415710801,262303.462770354,1,65,13,1,1,34,5,80062310,2330151,43652929,66154780,0,31911209,0,0,0,0,3160051,40910919,4080131,1130141,0,0,0,0,0,0,1200010,0,0,0,0,2051120,0,0,0,41601809,0,1141040,40200819,0,20501719,0,3141011,-1170191,0,0
14,302,752.284237649292,1,0,262305.61574614,262306.662805308,1,65,13,1,1,35,0,6072371,2191071,8131250,10352221,0,0,0,4051191,0,0,0,0,2021180,0,0,0,0,0,0,0,2191071,0,4031070,0,0,0,0,0,0,0,4100180,0,2181180,0,4101021,0,0,0,-4070020,0
14,303,1351.81435430422,0,0,262308.486400797,262309.533428783,1,65,13,1,0,6,10,36932260,86423418,126064566,47582479,3080130,0,0,0,30811009,-3041121,0,0,0,21911609,40210309,0,20000209,2181041,1080180,0,1040070,0,0,30210409,3020000,0,31411919,0,40910919,20511319,0,0,4121171,31500209,1150090,10811009,0,0,0,0
14,304,1297.23420424853,1,0,262311.921700409,262312.968760346,1,65,13,0,1,25,0,4200171,5060212,8271373,5170181,0,0,4200171,0,0,0,0,0,0,0,1010091,0,0,0,0,0,0,4050121,0,0,3120051,0,1010151,0,-4141171,0,0,3160000,2010181,0,0,0,0,0,0,0
14,305,943.836192367598,0,0,262315.392322113,262316.439394369,1,65,13,0,0,15,5,47273020,87474698,28070080,3231031,3051100,0,4121011,0,0,0,0,0,40100909,0,4141191,20900619,0,0,-1021060,40810119,20601709,0,0,0,0,0,21910019,0,3160050,3000011,0,0,0,0,0,0,0,2160031,0,1071000
14,306,1219.3904784508,1,0,262318.486484334,262319.533542732,1,65,13,1,1,17,0,7161251,2181101,6072161,6282040,0,3110120,1050090,0,3001041,0,0,0,0,0,0,0,0,0,0,0,-2181101,0,4041021,0,0,0,0,0,0,0,2031140,0,0,0,0,0,0,2111000,4171040,0
14,307,1171.10367020359,1,0,262321.921812432,262322.968879299,1,65,13,0,1,2,5,21993982,15983039,44921738,29580580,0,-4190201,11501509,0,4131171,2171101,0,0,0,0,0,0,0,10811909,2101070,0,3070060,0,0,4120110,20701309,0,0,0,0,20100319,0,4040071,4030190,0,0,0,0,21510319,0,0
14,308,996.475754247513,0,0,262325.345378048,262326.392447995,1,65,13,1,0,14,5,1000151,33885643,27022210,51722047,0,0,1000151,0,0,0,0,0,0,3091170,21211219,0,2171021,-3101091,3170011,0,0,1141131,0,0,0,0,3050141,2061060,0,21911009,0,0,0,10700009,0,0,0,10211619,0,30810419
14,309,864.278620283585,0,0,262328.580712383,262329.627773091,1,65,13,1,0,26,5,48561962,43312338,86233759,5412391,0,0,0,0,2200031,40201809,3150091,3010031,0,0,0,0,21511619,0,0,21800719,0,0,0,0,40412019,0,0,2151130,0,-2170001,41500609,2170190,2061031,0,0,0,0,0,1181170,0
14,310,897.524233849254,1,0,262331.604275459,262332.6513481,1,65,13,0,1,28,5,50942360,53915447,26432590,7171152,0,41610109,1120161,0,0,4121070,0,0,4091020,11001919,0,0,0,0,0,31301619,11611909,0,1081060,20201319,0,0,3070011,0,0,0,2080200,-4130151,0,0,0,3041001,0,0,0,0
14,311,1156.4520560205,0,0,262334.651373507,262335.698436525,1,65,13,0,0,30,10,72611937,48152910,115365727,40243341,0,11700219,0,30010109,0,30901609,0,0,0,0,0,20911019,0,0,21010619,0,2181121,4050151,0,40900809,1171191,0,1060180,21910519,20311609,30011419,0,3120181,0,-3170121,0,0,1150140,0,30601719,2201180
14,312,796.907757408917,1,0,262337.980818093,262339.027880726,1,65,13,0,1,7,20,173998776,150024916,139305925,113827227,3001051,20510419,31001809,41600209,30011719,4181040,-1051150,1030060,41611319,4121020,20911919,0,0,30100619,31611309,41010009,21100019,1170021,31801919,10511209,0,30900419,22010109,31900919,11101309,1080041,0,10711009,41101909,40611209,0,0,1201191,0,20201909,0
14,313,1011.10119104851,1,0,262344.039707881,262345.086779368,1,65,14,0,1,7,20,140915666,151084837,143675676,144923875,30300609,21701719,41801219,0,41000819,0,-1030060,3021190,2060050,20200509,32010809,10601009,2100191,3070080,2090201,40610619,0,40401419,2021061,11900109,0,31300719,41410309,30701009,11401209,10911219,4030041,0,0,20200219,22011019,31411909,30900219,0,40400509,0
14,314,870.501129305921,1,0,262347.169159089,262348.216227111,1,65,14,1,1,34,5,80062310,2330151,43652929,66154780,0,31911209,0,0,0,0,3160051,40910919,4080131,1130141,0,0,0,0,0,0,1200010,0,0,0,0,2051120,0,0,0,41601809,0,1141040,40200819,0,20501719,0,3141011,-1170191,0,0
14,315,599.243392527569,0,0,262350.26331669,262351.310384712,1,65,14,1,0,14,5,1000151,33885643,27022210,51722047,0,0,1000151,0,0,0,0,0,0,3091170,21211219,0,2171021,-3101091,3170011,0,0,1141131,0,0,0,0,3050141,2061060,0,21911009,0,0,0,10700009,0,0,0,10211619,0,30810419
14,316,1141.56330586411,1,0,262352.980991711,262354.028057808,1,65,14,0,1,33,20,106234216,139725826,115199375,213870295,1011141,21311019,30900819,0,0,0,30210419,11900309,10900509,41110509,4050030,0,31001619,30812009,0,2151050,30600609,0,41210219,0,20701409,4191110,21300819,11411909,10101719,2161110,4121080,4051100,30810519,41212009,30610909,0,-4061131,30711909,31710909,40701809
14,317,630.45564229833,0,0,262356.369349567,262357.416334053,1,65,14,0,0,15,5,54241739,10433382,25252119,36072208,0,0,41500209,0,2030111,0,10711419,0,0,3080070,2171161,0,0,1110041,-3051010,1021100,0,0,21211019,0,0,0,0,4041100,0,0,0,0,3051180,0,0,0,21110709,0,0,11910319
14,318,794.394347234629,1,0,262359.216358767,262360.263421785,1,65,14,0,1,30,5,42372210,21411209,45354219,42420569,2111090,31910709,0,3030070,0,2120171,0,3200170,0,0,21411209,0,0,0,0,0,0,0,0,0,1031080,0,1130061,0,30310419,11801509,1081150,0,0,-1010150,0,41410419,0,0,0,0
14,319,1174.44744112436,0,0,262362.228156666,262363.275226612,1,65,14,0,0,5,10,71556210,57585148,73102647,107824698,1160160,21701019,0,1111011,-2111041,4161060,41311919,0,0,10401919,0,0,0,0,4041120,41111009,0,2031100,22000719,0,0,30300109,0,0,0,0,20801819,0,31511709,2111020,0,0,40510719,3181141,0,30510109
14,320,507.32818862889,0,0,262365.628197318,262366.675268804,1,65,14,1,0,4,20,91545227,119466686,109952575,114556347,2041051,11601619,0,-3180001,21911609,0,11900409,30200319,10710219,0,31311809,4121021,0,20011419,11800319,22011709,30210409,0,3090020,0,11211119,2120080,0,20200209,21410409,40710219,11210519,0,1060061,11610909,11411019,21411019,21001319,4090101,41801719,2170200
14,321,621.296266152058,1,0,262368.334111781,262369.381181343,1,65,14,0,1,24,0,8091301,5071290,2100040,8152453,4051170,0,0,0,0,0,0,0,4040131,0,4070150,0,0,0,0,0,0,1001140,0,0,0,0,0,-2100040,0,0,0,0,0,4050161,0,0,2051091,0,0,2051201
14,322,869.230373180471,1,0,262371.134146119,262372.181207982,1,65,14,1,1,27,20,160543936,176833947,131627127,147159096,41801219,11100409,3130161,0,41300919,0,31300019,31911209,0,20210109,41401419,0,40110219,1051171,2040111,0,40610109,31410809,4071071,20600819,4120091,11100119,42010409,11902019,4030200,30711219,-3081180,30411509,0,21911919,0,0,30401209,21401619,3021131,40011709
14,323,788.591060729232,0,0,262374.098877536,262375.145945943,1,65,14,1,0,11,20,109607546,111085588,148695706,168445714,1061041,21101319,1050010,2080130,20501009,10900519,0,31901909,21011609,11101819,-3040091,0,41310819,20401719,4031021,0,0,31200119,2060100,40911609,0,40700009,0,21401219,2201141,20610309,20811319,1201020,41910119,0,0,20911709,31600019,20001519,41711219,11110109
14,324,1446.80770603009,0,0,262376.957736989,262378.004809245,1,65,14,1,0,1,10,33323700,32730019,51911638,120966386,-3180040,2040201,0,10110109,2140160,3100120,1051051,0,11702019,30710019,0,0,2020000,0,0,0,0,0,0,0,11110319,0,0,0,40801319,0,0,1101170,31801409,0,10110609,0,30011009,32000219,4140061,11801909
14,325,974.726999702398,1,0,262380.522493197,262381.569559294,1,65,14,0,1,2,0,5151041,8221241,3120070,9213340,0,-4151040,0,1000001,0,0,0,0,0,0,0,4151200,4070041,0,0,0,0,0,0,0,0,3120070,0,0,0,0,0,4041150,0,0,0,3051140,2121050,0,0,0
14,326,1048.14598429948,1,0,262383.616633475,262384.663707657,1,65,14,1,1,36,0,10301283,4201061,0,13321421,0,3020151,3190121,0,4091011,0,0,0,0,0,0,4201061,0,0,0,0,0,0,0,0,0,0,0,0,0,0,0,4140200,4110120,0,0,0,0,3001031,0,-2070070
14,327,754.410761990584,0,0,262386.899028903,262387.946097694,1,65,14,0,0,28,10,73862218,48081648,107886838,90143018,0,0,30300909,40411109,0,0,0,0,3150200,0,31310119,1000190,0,11611209,0,4160130,0,0,41100819,1171200,0,1191160,0,41412019,0,20001609,3010031,-4051091,0,30501419,4080080,41500219,0,0,0,10010209
14,328,1802.0081052091,0,0,262389.793180807,262390.840242669,1,65,14,0,0,12,20,160278876,95942766,130306696,152006075,30801919,41401019,2150200,1041160,30000319,11801919,1181121,0,41901219,0,20300519,-3010001,0,11410309,20110509,10300519,0,30810909,41612019,0,41601019,2001140,3080190,10800719,0,0,31211609,0,4120201,2050190,10910219,10501109,30601809,41700119,40711609,11410819
14,329,924.227820883971,1,0,262393.699102122,262394.746169374,1,65,14,1,1,6,10,36932260,86423418,126064566,47582479,3080130,0,0,0,30811009,-3041121,0,0,0,21911609,40210309,0,20000209,2181041,1080180,0,1040070,0,0,30210409,3020000,0,31411919,0,40910919,20511319,0,0,4121171,31500209,1150090,10811009,0,0,0,0
14,330,1004.95413440512,0,0,262396.840322356,262397.887384604,1,65,14,0,0,25,0,8142341,0,8392320,4110161,2011131,0,0,0,2000200,0,0,4131010,0,0,0,0,0,0,0,0,0,0,0,0,0,4061010,1110130,1090090,-2131090,0,0,0,0,0,0,0,4110161,0,0,0
14,331,841.127068153583,1,0,262399.958006847,262401.005067939,1,65,14,1,1,26,5,48561962,43312338,86233759,5412391,0,0,0,0,2200031,40201809,3150091,3010031,0,0,0,0,21511619,0,0,21800719,0,0,0,0,40412019,0,0,2151130,0,-2170001,41500609,2170190,2061031,0,0,0,0,0,1181170,0
14,332,909.31982267648,0,0,262403.016862758,262404.063929625,1,65,14,1,0,8,10,91544431,30711919,84993187,93998028,41601909,0,2000201,0,40512009,3140040,2120141,-2170131,0,0,0,0,0,0,0,0,30711919,0,0,0,22001419,20810609,2070050,40111109,0,0,0,4140031,12001409,21211509,40011609,0,4201110,0,11401319,1031041
14,333,717.004490375984,1,0,262406.063956957,262407.111020745,1,65,14,1,1,35,0,6072371,2191071,8131250,10352221,0,0,0,4051191,0,0,0,0,2021180,0,0,0,0,0,0,0,2191071,0,4031070,0,0,0,0,0,0,0,4100180,0,2181180,0,4101021,0,0,0,-4070020,0
14,334,665.646078647114,0,0,262408.993402467,262410.04046587,1,65,14,0,0,9,10,72062387,56001920,83421937,70013931,21501209,3130000,0,21700019,0,0,21610009,0,-4121150,0,0,0,1080201,0,21700409,30200309,0,3021001,0,0,0,0,31310319,0,41510509,0,10601109,11600009,0,4141131,4160050,0,0,4191061,4121061,41800619
14,335,581.149842357263,0,0,262411.769905682,262412.816971779,1,65,14,0,0,22,5,18841780,47492081,74073548,50862402,0,0,4001051,0,11810619,3030110,0,0,0,0,0,3200051,4091011,0,0,0,40201019,0,30311709,0,41700809,-2061030,0,0,0,0,0,4021081,41700219,4140001,0,0,0,1001101,0,0
14,336,637.15588778723,1,0,262414.416994646,262415.464054198,1,65,14,1,1,17,0,7161251,2181101,6072161,6282040,0,3110120,1050090,0,3001041,0,0,0,0,0,0,0,0,0,0,0,-2181101,0,4041021,0,0,0,0,0,0,0,2031140,0,0,0,0,0,0,2111000,4171040,0
14,337,821.750443079509,1,0,262420.252352617,262421.299427568,1,65,15,1,1,26,5,48561962,43312338,86233759,5412391,0,0,0,0,2200031,40201809,3150091,3010031,0,0,0,0,21511619,0,0,21800719,0,0,0,0,40412019,0,0,2151130,0,-2170001,41500609,2170190,2061031,0,0,0,0,0,1181170,0
