sub_id,Trial,RT,Resp,Error,Fix_onset,Disp_onset,q1,q2,block,repeat,tid,tloc,d_setsize,quad1,quad2,quad3,quad4,loc1,loc2,loc3,loc4,loc5,loc6,loc7,loc8,loc9,loc10,loc11,loc12,loc13,loc14,loc15,loc16,loc17,loc18,loc19,loc20,loc21,loc22,loc23,loc24,loc25,loc26,loc27,loc28,loc29,loc30,loc31,loc32,loc33,loc34,loc35,loc36
11,1,855.764538166113,1,0,291750.942524772,291751.989598569,1,8,1,0,1,36,5,16000770,43651858,25371550,35391919,0,0,0,0,0,11810719,4190051,0,0,0,30900419,0,0,0,1151020,11600419,0,0,0,1111110,0,0,21110319,3150121,0,0,0,21000309,4120010,0,0,0,4171200,2010200,0,-4090200
11,2,1327.63467077166,0,0,291753.98963514,291755.036698157,1,8,1,0,0,5,10,39423108,0,136885187,100473519,11610019,1201051,0,0,-4200110,0,11610909,10801019,0,0,0,0,0,0,0,0,0,0,2191001,0,40100509,41101919,31110409,1170140,21211209,0,0,2040131,4141011,1150130,0,1140200,21300519,40700519,30001009,0
11,3,945.92547492357,1,1,291757.519077339,291758.566144976,1,8,1,1,0,12,0,2120211,7472252,7271021,2121070,0,1060050,0,0,0,0,0,0,1060161,0,0,-1161100,0,0,0,0,4160011,2151141,0,4161021,3110000,0,0,0,0,0,0,0,0,0,0,0,2121070,0,0,0
11,4,600.212438672315,0,0,291760.577938255,291761.625003967,1,8,1,1,0,11,10,147245704,86452410,34731541,20270400,0,21701819,0,31010519,40910509,11600219,31710919,10311719,0,0,-2180041,0,41700809,1070051,0,41501509,0,0,0,0,3081061,1050161,0,30600319,0,0,0,2180101,0,0,3070200,0,3000070,11000019,0,1020010
11,5,1457.0427624858,1,0,291763.31918559,291764.366214731,1,8,1,1,1,23,20,46963247,84768147,167470083,136257147,1200050,0,0,0,3151050,10900619,0,10410819,21300709,2021051,11211119,4020071,12010809,0,3101150,21100619,20801519,10501809,30501709,0,11101509,21601509,-1140110,20812009,40900809,30100419,11312009,30000919,0,20711519,30401509,0,31610609,1081061,2041111,20410419
11,6,1433.20674973074,1,0,291766.989786045,291768.036843672,1,8,1,1,1,1,20,90266988,133005877,104306555,188395233,-4070160,10401119,10501909,0,1070091,20001309,41101219,0,3121181,3160050,40100619,0,40311619,11611919,0,3191050,30510419,4120201,10301319,10010919,0,41501919,0,1071170,10110209,0,31311019,0,40111219,10701419,30800619,1160130,40110609,31800809,12000009,21710419
11,7,786.082754551899,1,0,291770.542755133,291771.589826235,1,8,1,0,1,22,0,3090001,6341363,5211111,7180290,0,0,0,0,0,0,0,0,3090001,0,2030131,0,0,0,1190081,3121151,0,0,0,0,0,-3190091,0,0,2021020,0,0,0,3130130,0,4050160,0,0,0,0,0
11,8,1153.17690756638,0,0,291773.401623055,291774.448682993,1,8,1,0,0,3,20,121859256,158528084,97321837,180298745,0,41800109,-3021070,1151101,30810509,3161040,20201909,10012009,11701509,11600709,30601209,10611119,30110419,2070101,30010909,11110719,2001080,30411819,0,2120000,0,41800519,21800209,0,0,31601109,0,3080100,40702019,1091180,41511109,11901709,41501209,0,40511419,0
11,9,1103.23938669171,0,0,291776.801671791,291777.84871864,1,8,1,1,0,14,10,59425939,69294697,16012980,115213056,1111110,2001041,0,4101160,0,0,0,31911519,20301109,0,0,3061030,41400319,-1170060,3141170,10510409,0,10011709,2000080,4011191,0,0,0,0,0,0,10001709,0,0,21911319,0,21800109,0,0,40800119,30701509
11,10,714.245574548841,1,0,291780.001691347,291781.04874936,1,8,1,1,1,13,10,36075639,8543362,128215977,68007027,0,0,0,0,3041010,0,1121011,10601809,21311809,0,1101040,1080150,-3181111,3181061,0,0,0,0,0,30200519,3191021,21712019,41510409,0,31602009,0,0,11401619,20011409,0,4171181,21311209,0,0,11111609,0
11,11,831.691389379557,0,1,291782.872309433,291783.919372835,1,8,1,1,1,29,5,35193100,15641349,44053190,76632850,0,32001009,0,1191011,0,0,2001080,0,0,0,0,10311319,4180010,0,0,0,0,1150020,0,0,1050000,0,2201181,0,0,40802009,0,30811409,-1090131,0,0,4031201,0,0,0,40700109
11,12,685.392750543542,0,0,291785.919399013,291786.96646434,1,8,1,0,0,20,5,4201140,72204080,9292472,91224347,0,0,0,0,0,2131000,0,0,2070140,0,4150060,0,2201161,31000619,0,0,31701119,3151121,0,-4020171,4081141,0,0,0,0,1191160,0,40701909,0,0,0,0,0,0,20411019,30111419
11,13,707.365167269018,0,0,291788.825301465,291789.872375646,1,8,1,0,0,28,0,5241150,4141241,1141180,9200292,0,0,0,0,4070060,0,1171090,0,0,2021041,0,0,0,0,0,0,0,2120200,0,0,0,0,1141180,0,0,0,0,-2010001,3150090,0,0,0,0,0,0,4040201
11,14,833.543051616289,1,0,291791.778282333,291792.825351895,1,8,1,0,1,24,0,6421431,2151361,7311242,1170201,0,0,2130060,1191180,0,0,3100191,0,0,0,1010160,0,0,0,1141201,0,0,0,0,0,0,4141101,0,-3170141,0,0,0,1170201,0,0,0,0,0,0,0,0
11,15,1032.03931712778,1,0,291794.860689001,291795.907733541,1,8,1,0,1,10,10,87442059,107696847,37213159,66484308,0,0,0,40010609,41110309,0,0,3140011,3181130,-2151160,20300209,0,0,31701619,20700809,0,1131031,31712019,4121120,31910909,0,0,0,0,0,0,1181130,0,21811409,0,20900109,0,21511619,1121151,1140020,0
11,16,492.103082069661,0,0,291798.060714332,291799.107833168,1,8,1,1,0,16,0,4031010,13651092,5141150,1120201,0,0,0,0,0,4031010,0,0,0,4200010,0,2150010,0,0,0,-3100041,4201031,0,2071140,0,0,3070010,0,0,0,0,0,0,0,0,0,1120201,0,0,0,0
11,17,1408.50996423978,1,0,291800.743092282,291801.790156454,1,8,1,1,1,4,5,74602599,28922941,5100361,53222728,0,0,41711519,-2090071,0,30801009,0,0,0,0,0,20610619,3131020,0,2020150,0,2110021,1051131,4040161,0,0,0,0,1060200,0,0,0,0,0,0,2100000,0,40111609,0,0,11011119
11,18,1029.78999022162,1,0,291804.201955738,291805.249021451,1,8,1,0,1,35,5,121384439,47503321,8261011,28552240,40801119,0,0,3001191,0,42011409,0,31500519,4070201,0,0,3071071,3021141,0,0,0,41411109,0,0,0,0,4081000,0,4180011,0,0,0,21201109,4181010,0,0,0,0,0,-3170121,0
11,19,911.133858142421,0,0,291807.284336999,291808.33141041,1,8,1,0,0,9,10,59212388,88926605,41572600,65942628,0,0,41200519,0,0,3011160,0,11810519,-3190190,10711519,0,21301709,0,4201120,20700419,0,11411119,20600719,30300219,3001120,1120061,3051180,0,4100020,0,0,0,0,0,0,0,0,20611519,0,4030090,41301019
11,20,655.191408237442,0,0,291810.284372031,291811.331441207,1,8,1,0,0,26,20,102574746,139885625,157337796,128815526,0,11701609,3100000,0,4150060,2011040,20500009,40900209,20211819,3150051,10911509,31600519,31610009,31111009,0,10701719,0,20800809,3190161,30001409,20701019,20010709,10001619,41211719,0,-2011041,30210119,21401419,21410019,2170190,40901309,0,41811519,0,1121070,0
11,21,1286.34298813995,1,0,291813.096171546,291814.143239568,1,8,1,0,1,32,20,70014569,93974886,151347774,202256095,2000081,0,0,40101619,11500619,3020031,0,11301209,2091010,10400509,0,0,32011509,3151080,11500119,22011409,11700109,3200151,22001419,2041200,0,31301609,22001209,21900909,10300509,0,41800919,40611009,0,21500009,41301409,-2020000,2010131,31401109,41712009,21700419
11,22,1104.41159282345,0,0,291816.5079793,291817.555041547,1,8,1,1,0,6,20,88553148,199455444,217909024,83564690,3020090,0,30101119,0,21110609,-3091180,30200119,0,1030031,2131031,30500819,32010019,0,11700019,20501309,31001609,40800019,30810619,30511609,0,41000709,1161041,40310109,10010919,21701909,41511409,31701319,0,21201019,2001171,41910909,4111181,4040201,0,0,10300209
11,23,854.684722609818,0,0,291819.813896996,291820.860961169,1,8,1,1,0,19,0,8243322,0,5200172,8273361,1021150,0,0,0,3051071,4171101,0,0,0,0,0,0,0,0,0,0,0,0,-3010121,0,0,2190051,0,0,0,0,0,0,0,2091031,2171150,0,4011180,0,0,0
11,24,988.752766803373,1,0,291822.766866316,291823.813934338,1,8,1,1,1,30,5,2200031,83201749,44331899,52172069,2200031,0,0,0,0,0,0,0,0,2020141,21210319,0,2080011,11811109,4070150,0,42010019,0,0,0,0,0,3020090,41311809,0,0,0,0,4201100,-3130010,40700909,0,4140050,0,0,0
11,25,762.268684571609,0,0,291835.355237569,291836.402305591,1,8,2,0,0,35,0,4071180,7332102,0,11440374,0,4071180,0,0,0,0,0,0,0,0,0,3010061,0,0,3161010,0,0,1161031,0,0,0,0,0,0,0,0,0,2030061,3010121,0,0,0,0,2200041,-4200151,0
11,26,681.913088425063,0,0,291838.35527491,291839.402341777,1,8,2,0,0,32,5,30300009,61035208,13111730,54023772,0,0,0,30300009,0,0,0,0,0,4011040,0,21801819,0,1110010,0,4011020,0,30101319,2000111,0,0,0,0,0,11111619,0,0,4131101,4060141,40611219,2021200,-3200111,0,0,0,0
11,27,531.482663529459,1,0,291841.28471965,291842.331786517,1,8,2,1,1,19,0,8243322,0,5200172,8273361,1021150,0,0,0,3051071,4171101,0,0,0,0,0,0,0,0,0,0,0,0,-3010121,0,0,2190051,0,0,0,0,0,0,0,2091031,2171150,0,4011180,0,0,0
11,28,1289.28639966762,1,0,291843.931813234,291844.978869707,1,8,2,1,1,1,20,90266988,133005877,104306555,188395233,-4070160,10401119,10501909,0,1070091,20001309,41101219,0,3121181,3160050,40100619,0,40311619,11611919,0,3191050,30510419,4120201,10301319,10010919,0,41501919,0,1071170,10110209,0,31311019,0,40111219,10701419,30800619,1160130,40110609,31800809,12000009,21710419
11,29,670.863553939853,1,0,291847.449493336,291848.496558663,1,8,2,1,1,14,10,59425939,69294697,16012980,115213056,1111110,2001041,0,4101160,0,0,0,31911519,20301109,0,0,3061030,41400319,-1170060,3141170,10510409,0,10011709,2000080,4011191,0,0,0,0,0,0,10001709,0,0,21911319,0,21800109,0,0,40800119,30701509
11,30,1225.23159050616,1,0,291850.273056873,291851.320117581,1,8,2,0,1,9,0,5322160,2091180,5371262,6242172,3161110,0,0,0,0,0,0,0,-2161050,2091180,0,0,0,0,0,0,0,0,0,0,1121131,2130120,0,2120011,0,0,0,0,4051131,0,2191041,0,0,0,0,0
11,31,1265.19592764089,1,0,291853.684857312,291854.731924564,1,8,2,1,1,4,5,74602599,28922941,5100361,53222728,0,0,41711519,-2090071,0,30801009,0,0,0,0,0,20610619,3131020,0,2020150,0,2110021,1051131,4040161,0,0,0,0,1060200,0,0,0,0,0,0,2100000,0,40111609,0,0,11011119
11,32,571.21371437097,0,0,291857.17901399,291858.226073158,1,8,2,0,0,26,20,105049703,150686695,35635101,151096505,21111319,10800509,21612019,21101719,10000809,10211919,0,0,10211409,0,31311519,11410919,40911519,21811119,0,4131000,41110619,0,0,0,3101161,12000409,10000119,3060140,2171151,-2101040,3201081,0,3140050,40200819,20810219,22000819,11101109,41801319,2041151,10001019
11,33,1453.36677029263,1,0,291859.837867361,291860.884931918,1,8,2,1,1,23,20,46963247,84768147,167470083,136257147,1200050,0,0,0,3151050,10900619,0,10410819,21300709,2021051,11211119,4020071,12010809,0,3101150,21100619,20801519,10501809,30501709,0,11101509,21601509,-1140110,20812009,40900809,30100419,11312009,30000919,0,20711519,30401509,0,31610609,1081061,2041111,20410419
11,34,786.145503225271,1,0,291863.543793373,291864.590853695,1,8,2,1,1,12,0,2120211,7472252,7271021,2121070,0,1060050,0,0,0,0,0,0,1060161,0,0,-1161100,0,0,0,0,4160011,2151141,0,4161021,3110000,0,0,0,0,0,0,0,0,0,0,0,2121070,0,0,0
11,35,833.65892485017,1,0,291866.52030498,291867.567356448,1,8,2,1,1,13,10,36075639,8543362,128215977,68007027,0,0,0,0,3041010,0,1121011,10601809,21311809,0,1101040,1080150,-3181111,3181061,0,0,0,0,0,30200519,3191021,21712019,41510409,0,31602009,0,0,11401619,20011409,0,4171181,21311209,0,0,11111609,0
11,36,580.342678702436,1,0,291869.449740866,291870.496800418,1,8,2,1,1,16,0,4031010,13651092,5141150,1120201,0,0,0,0,0,4031010,0,0,0,4200010,0,2150010,0,0,0,-3100041,4201031,0,2071140,0,0,3070010,0,0,0,0,0,0,0,0,0,1120201,0,0,0,0
11,37,908.461844141129,0,0,291872.214479673,291873.261542306,1,8,2,0,0,28,0,2171120,8623432,1041160,2341180,0,0,0,0,0,2171120,0,0,0,2200050,0,0,0,0,3201151,0,1171090,2051141,0,0,0,0,0,0,1041160,0,0,-1201020,0,0,0,0,0,1140160,0,0
11,38,1051.89136887202,1,0,291875.343925491,291876.390981579,1,8,2,0,1,24,10,101154941,21880260,25771319,157516736,0,31010119,20601019,4071061,40211409,0,1061101,1170041,3030191,0,0,0,0,0,1080151,0,20800109,0,0,21700219,0,0,0,-2041060,0,0,2030040,21311509,30211019,0,0,41811019,40011619,2171051,22000519,0
11,39,757.532894785982,1,0,291878.614551122,291879.661608365,1,8,2,1,1,30,5,2200031,83201749,44331899,52172069,2200031,0,0,0,0,0,0,0,0,2020141,21210319,0,2080011,11811109,4070150,0,42010019,0,0,0,0,0,3020090,41311809,0,0,0,0,4201100,-3130010,40700909,0,4140050,0,0,0
11,40,1294.70972967101,0,0,291881.532227991,291882.579288698,1,8,2,1,0,6,20,88553148,199455444,217909024,83564690,3020090,0,30101119,0,21110609,-3091180,30200119,0,1030031,2131031,30500819,32010019,0,11700019,20501309,31001609,40800019,30810619,30511609,0,41000709,1161041,40310109,10010919,21701909,41511409,31701319,0,21201019,2001171,41910909,4111181,4040201,0,0,10300209
11,41,552.988507668488,0,0,291884.9440292,291885.991089137,1,8,2,0,0,22,5,30902650,51203328,37190390,46193890,4060011,1190050,21311319,0,1171120,3170150,0,0,0,0,0,0,0,21201719,0,0,0,30001609,3130181,31910009,0,-2150200,0,0,0,0,0,0,3111010,0,42011809,0,0,1071071,0,0
11,42,436.979752092157,0,0,291887.555823788,291888.6028895,1,8,2,0,0,20,10,105326437,50474278,67685268,4030100,3140171,41101219,4131000,2051090,11701219,0,21500619,0,21701119,21401419,11411219,0,11600409,0,0,2040101,0,4021130,0,-1160200,31211609,20510309,3201141,0,11602009,0,0,0,4030100,0,0,0,0,0,0,0
11,43,966.184815391898,0,0,291890.120559978,291891.1676203,1,8,2,0,0,36,10,64124827,107714156,18034792,56871861,0,21801109,21712009,0,0,0,20611709,0,0,10811019,0,40601309,4190010,10410709,0,41701109,0,0,0,4001171,0,2171191,0,10711319,0,0,1151111,0,3000000,0,30610519,3040071,4060121,12010109,0,-4151041
11,44,1006.22575986199,1,0,291893.202948938,291894.261776362,1,8,2,0,1,5,20,124003999,147586235,148586396,108920933,3031000,40910009,4171161,0,-2040001,3140090,40411119,0,30300619,30500709,31201709,21410019,21300909,10710519,30311319,0,0,2151051,4001050,1181180,0,0,41201519,40901519,40201109,0,21100019,10111419,10211909,11611909,22000009,10010709,31902009,11001809,2071160,0
11,45,621.874576900154,0,0,291896.402973113,291897.45004306,1,8,2,1,0,29,5,35193100,15641349,44053190,76632850,0,32001009,0,1191011,0,0,2001080,0,0,0,0,10311319,4180010,0,0,0,0,1150020,0,0,1050000,0,2201181,0,0,40802009,0,30811409,-1090131,0,0,4031201,0,0,0,40700109
11,46,1177.56649421062,0,0,291899.250064695,291900.297130407,1,8,2,0,0,3,5,48002912,32222029,85883157,6031110,40601419,0,-1150161,1051071,0,0,1200131,0,4000130,30100919,0,0,0,0,2121110,0,0,0,0,40101009,0,0,3170110,12010119,0,30601919,0,4000080,0,0,2031030,0,0,0,0,0
11,47,1006.13105943194,1,0,291902.532460892,291903.579518905,1,8,2,1,1,11,10,147245704,86452410,34731541,20270400,0,21701819,0,31010519,40910509,11600219,31710919,10311719,0,0,-2180041,0,41700809,1070051,0,41501509,0,0,0,0,3081061,1050161,0,30600319,0,0,0,2180101,0,0,3070200,0,3000070,11000019,0,1020010
11,48,876.58669159282,0,0,291905.697194926,291906.744262178,1,8,2,0,0,10,20,102110328,95606666,191333393,116473387,3111070,31001409,0,4011191,1091151,31401119,20101219,10302009,1091160,-1181020,21901719,30411909,20911909,0,0,0,0,21200109,41500409,41400419,11310519,21200809,21110019,11010509,10610019,31100619,2090071,40811009,0,0,31000109,0,20010009,21511119,2131100,1010041
11,49,830.35288011888,0,0,291915.544356186,291916.591426517,1,8,3,1,0,30,5,2200031,83201749,44331899,52172069,2200031,0,0,0,0,0,0,0,0,2020141,21210319,0,2080011,11811109,4070150,0,42010019,0,0,0,0,0,3020090,41311809,0,0,0,0,4201100,-3130010,40700909,0,4140050,0,0,0
11,50,943.685772013851,1,0,291918.579700221,291919.626779792,1,8,3,0,1,5,5,44311639,22633870,69172339,48663220,0,40010409,0,0,-1200180,0,3101050,0,0,0,1151170,1171091,20311609,0,0,0,0,0,4161021,32010409,0,31810819,0,0,0,1190090,0,0,4110201,0,0,0,40502019,4051000,0,0
11,51,775.917090417352,0,0,291921.591490036,291922.638554978,1,8,3,1,0,13,10,36075639,8543362,128215977,68007027,0,0,0,0,3041010,0,1121011,10601809,21311809,0,1101040,1080150,-3181111,3181061,0,0,0,0,0,30200519,3191021,21712019,41510409,0,31602009,0,0,11401619,20011409,0,4171181,21311209,0,0,11111609,0
11,52,1040.22243223153,0,0,291924.450348719,291925.497407887,1,8,3,0,0,3,10,77963778,94335137,74844478,60912128,0,0,-1060110,21410819,2171160,20000809,30300809,0,3020071,2111130,4130030,41500019,0,21000809,0,0,4091140,21502009,0,0,1001130,0,41111919,0,2120010,30611419,0,0,30900319,0,30011809,0,0,0,0,0
11,53,925.577978370711,0,0,291927.732738372,291928.779801774,1,8,3,0,0,24,10,101354767,64934248,49004238,29602050,30400709,0,3011110,11910509,11310809,0,3020021,0,41701609,0,0,0,41801909,0,0,2121020,0,21011319,10711219,20000519,0,0,2170090,-4111101,0,0,12011309,0,1190110,0,0,0,0,4070110,3041111,21300719
11,54,564.451105252374,0,0,291930.768063929,291931.815125792,1,8,3,1,0,14,10,59425939,69294697,16012980,115213056,1111110,2001041,0,4101160,0,0,0,31911519,20301109,0,0,3061030,41400319,-1170060,3141170,10510409,0,10011709,2000080,4011191,0,0,0,0,0,0,10001709,0,0,21911319,0,21800109,0,0,40800119,30701509
11,55,508.818471978884,1,0,291933.450508863,291934.497515291,1,8,3,0,1,26,20,144954945,144489015,35572529,169387165,30411009,41710119,21502019,0,10911009,4130121,21600209,11500419,3190040,2201201,41200619,11611119,30500919,21911809,22011509,3040130,0,12011709,0,0,0,22001519,0,2110040,10300909,-1160061,0,41510019,21111919,0,30711409,1101191,10710009,41810609,1130200,21301809
11,56,589.378097327426,0,0,291936.026940552,291937.074008574,1,8,3,1,0,23,20,46963247,84768147,167470083,136257147,1200050,0,0,0,3151050,10900619,0,10410819,21300709,2021051,11211119,4020071,12010809,0,3101150,21100619,20801519,10501809,30501709,0,11101509,21601509,-1140110,20812009,40900809,30100419,11312009,30000919,0,20711519,30401509,0,31610609,1081061,2041111,20410419
11,57,957.960509404074,1,0,291938.803481878,291939.850582621,1,8,3,0,1,10,20,167964654,113105288,110874355,144667127,4130080,41710809,30201819,10700609,0,20410119,0,20010009,40801209,-1190121,3131020,41811919,21710209,11200919,0,31911019,2150081,0,12002019,0,4140080,30810809,30410509,0,22010619,11500319,0,0,21701309,3070010,41900909,3021091,31910719,1051061,30001919,12010109
11,58,745.823922217824,0,0,291941.897600598,291942.94466477,1,8,3,1,0,12,0,2120211,7472252,7271021,2121070,0,1060050,0,0,0,0,0,0,1060161,0,0,-1161100,0,0,0,0,4160011,2151141,0,4161021,3110000,0,0,0,0,0,0,0,0,0,0,0,2121070,0,0,0
11,59,495.532314293087,1,0,291944.850563758,291945.897635245,1,8,3,1,1,19,0,8243322,0,5200172,8273361,1021150,0,0,0,3051071,4171101,0,0,0,0,0,0,0,0,0,0,0,0,-3010121,0,0,2190051,0,0,0,0,0,0,0,2091031,2171150,0,4011180,0,0,0
11,60,1050.82926159957,1,0,291947.568249173,291948.615359925,1,8,3,0,1,35,5,37191829,37343530,2292301,56574480,0,20300709,0,4100030,0,0,0,11610019,1181071,4051180,0,0,0,0,0,2091141,0,31201209,0,0,0,1171141,0,0,0,0,1121160,0,41611919,3141181,0,0,0,10801319,-1020061,0
11,61,1105.07603542646,0,0,291950.732984362,291951.780054693,1,8,3,1,0,1,20,90266988,133005877,104306555,188395233,-4070160,10401119,10501909,0,1070091,20001309,41101219,0,3121181,3160050,40100619,0,40311619,11611919,0,3191050,30510419,4120201,10301319,10010919,0,41501919,0,1071170,10110209,0,31311019,0,40111219,10701419,30800619,1160130,40110609,31800809,12000009,21710419
11,62,544.552088191267,1,0,291954.050665696,291955.097739492,1,8,3,1,1,16,0,4031010,13651092,5141150,1120201,0,0,0,0,0,4031010,0,0,0,4200010,0,2150010,0,0,0,-3100041,4201031,0,2071140,0,0,3070010,0,0,0,0,0,0,0,0,0,1120201,0,0,0,0
11,63,605.016751447693,1,0,291956.685993717,291957.733058659,1,8,3,1,1,29,5,35193100,15641349,44053190,76632850,0,32001009,0,1191011,0,0,2001080,0,0,0,0,10311319,4180010,0,0,0,0,1150020,0,0,1050000,0,2201181,0,0,40802009,0,30811409,-1090131,0,0,4031201,0,0,0,40700109
11,64,750.888468581252,1,0,291959.427248367,291960.474262494,1,8,3,1,1,11,10,147245704,86452410,34731541,20270400,0,21701819,0,31010519,40910509,11600219,31710919,10311719,0,0,-2180041,0,41700809,1070051,0,41501509,0,0,0,0,3081061,1050161,0,30600319,0,0,0,2180101,0,0,3070200,0,3000070,11000019,0,1020010
11,65,853.934048791416,0,1,291962.227241129,291963.274306071,1,8,3,1,1,6,20,88553148,199455444,217909024,83564690,3020090,0,30101119,0,21110609,-3091180,30200119,0,1030031,2131031,30500819,32010019,0,11700019,20501309,31001609,40800019,30810619,30511609,0,41000709,1161041,40310109,10010919,21701909,41511409,31701319,0,21201019,2001171,41910909,4111181,4040201,0,0,10300209
11,66,640.850842522923,0,0,291965.333150819,291966.380220381,1,8,3,0,0,9,10,61273140,59172149,59793239,135507627,31910209,4011161,0,0,0,0,21310719,0,-4041051,0,0,21400219,0,31611709,2040151,0,4120070,0,21100409,0,1091150,0,4190161,0,31411409,0,2000110,0,0,40701919,1201071,0,31801619,31801409,30001609,0
11,67,571.956304134801,0,0,291968.086162176,291969.133190547,1,8,3,0,0,28,0,7131072,8292442,6251191,2081041,0,0,0,0,0,3111061,4020011,0,0,0,4121100,0,3151171,1020171,0,0,0,0,0,0,0,4140171,0,0,0,0,2111020,-2081041,0,0,0,0,0,0,0,0
11,68,1078.24810605962,1,0,291970.744973971,291971.792047382,1,8,3,0,1,32,20,208146872,114056725,129584096,25572849,30400409,11100219,10611119,10401209,2100050,41401719,40510009,20011119,41611019,1070010,21401619,22011009,4200200,3151040,0,10910419,31001619,20310809,11400219,0,31802009,30511409,1130111,40110319,4120020,10510009,0,0,0,10410219,10001419,-2050011,3111200,0,0,0
11,69,1165.19538871944,0,0,291973.909719169,291974.956786806,1,8,3,0,0,22,0,2170021,10351252,3192261,3220091,0,0,0,0,0,0,2170021,0,0,4150141,4091080,0,0,0,2110031,0,0,0,0,0,0,-2071070,0,1121191,0,0,0,1140001,2080090,0,0,0,0,0,0,0
11,70,707.199634052813,1,0,291977.156804822,291978.203872074,1,8,3,0,1,36,0,6140250,10572213,2360270,2190191,0,4080050,2060200,0,0,0,0,0,0,0,2201031,0,0,0,0,4191081,0,4180101,0,0,0,0,0,1190130,0,0,1170140,0,0,0,0,0,0,0,0,-2190191
11,71,951.534356107004,0,0,291979.933315736,291980.980376829,1,8,3,0,0,20,5,17042929,45384329,43961330,17161949,0,11900909,1141000,0,0,0,0,0,4001020,21201119,0,0,0,1141120,0,3040071,20002019,0,0,-2200130,0,0,40610009,1151191,0,0,0,0,0,11810809,0,2160100,0,0,3191040,0
11,72,1063.52681393037,1,0,291983.074520572,291984.121590903,1,8,3,1,1,4,5,74602599,28922941,5100361,53222728,0,0,41711519,-2090071,0,30801009,0,0,0,0,0,20610619,3131020,0,2020150,0,2110021,1051131,4040161,0,0,0,0,1060200,0,0,0,0,0,0,2100000,0,40111609,0,0,11011119
11,73,543.550034810323,1,0,291995.298180195,291996.345248217,1,8,4,0,1,9,20,126056786,181047863,142166006,111504339,21801709,1060120,40201719,0,40601619,0,0,20301609,-2090010,31600319,31611419,31201909,20711219,30111709,11910719,2100150,0,21800419,11400109,42010909,1200061,30401019,21801309,31301419,0,4051180,0,21000709,3201081,2050171,30000019,11211209,0,42000119,2041031,0
11,74,1127.2509417031,1,0,291997.992329867,291999.039403663,1,8,4,1,1,1,20,90266988,133005877,104306555,188395233,-4070160,10401119,10501909,0,1070091,20001309,41101219,0,3121181,3160050,40100619,0,40311619,11611919,0,3191050,30510419,4120201,10301319,10010919,0,41501919,0,1071170,10110209,0,31311019,0,40111219,10701419,30800619,1160130,40110609,31800809,12000009,21710419
11,75,899.657016969286,0,0,292001.204135387,292002.251196095,1,8,4,0,0,32,0,5113311,6401412,0,4221220,3061100,1021151,0,1031060,0,0,0,0,0,0,0,0,0,2110191,0,1160091,0,3131130,0,0,0,0,0,0,0,0,0,0,0,0,0,-2201070,0,0,2020150,0
11,76,1035.91009957017,0,0,292004.168931477,292005.215934441,1,8,4,1,0,13,10,36075639,8543362,128215977,68007027,0,0,0,0,3041010,0,1121011,10601809,21311809,0,1101040,1080150,-3181111,3181061,0,0,0,0,0,30200519,3191021,21712019,41510409,0,31602009,0,0,11401619,20011409,0,4171181,21311209,0,0,11111609,0
11,77,439.740307163447,1,0,292007.321857219,292008.368917542,1,8,4,0,1,20,10,84984319,52572818,95743549,61504838,0,0,0,40602019,0,0,1081081,41211219,2090000,0,0,0,0,10611419,1150080,0,40811319,0,40001019,-2031151,0,0,40710119,11900119,0,1101141,0,10110109,3161020,3041181,20901309,3191100,0,21100119,0,0
11,78,743.988043395802,0,0,292009.992465758,292011.039526465,1,8,4,1,0,30,5,2200031,83201749,44331899,52172069,2200031,0,0,0,0,0,0,0,0,2020141,21210319,0,2080011,11811109,4070150,0,42010019,0,0,0,0,0,3020090,41311809,0,0,0,0,4201100,-3130010,40700909,0,4140050,0,0,0
11,79,462.080361670814,1,0,292012.827796782,292013.874864804,1,8,4,1,1,16,0,4031010,13651092,5141150,1120201,0,0,0,0,0,4031010,0,0,0,4200010,0,2150010,0,0,0,-3100041,4201031,0,2071140,0,0,3070010,0,0,0,0,0,0,0,0,0,1120201,0,0,0,0
11,80,768.022696021944,0,0,292015.345466105,292016.392530277,1,8,4,1,0,4,5,74602599,28922941,5100361,53222728,0,0,41711519,-2090071,0,30801009,0,0,0,0,0,20610619,3131020,0,2020150,0,2110021,1051131,4040161,0,0,0,0,1060200,0,0,0,0,0,0,2100000,0,40111609,0,0,11011119
11,81,1127.45805067243,1,0,292018.263148363,292019.310207146,1,8,4,0,1,5,5,15102250,59302068,2132141,80822420,0,0,10800019,0,-2191201,0,0,0,2111030,31610119,0,0,4170160,20411609,0,3110180,0,0,0,0,1041120,0,0,0,0,1091021,0,0,0,4171101,3040091,0,41701209,0,31910019,0
11,82,722.621940134559,1,0,292021.486717906,292022.533772839,1,8,4,0,1,35,0,5201101,2141010,4351231,5292361,0,2031030,3170071,0,0,0,0,0,0,0,0,2141010,0,0,0,0,0,0,0,0,1181041,0,0,0,3170190,0,0,0,0,0,0,2081170,1050001,0,-2161190,0
11,83,808.912864304148,0,0,292024.451452402,292025.49850618,1,8,4,1,0,12,0,2120211,7472252,7271021,2121070,0,1060050,0,0,0,0,0,0,1060161,0,0,-1161100,0,0,0,0,4160011,2151141,0,4161021,3110000,0,0,0,0,0,0,0,0,0,0,0,2121070,0,0,0
11,84,1115.71982107125,1,0,292027.345605461,292028.39270428,1,8,4,1,1,19,0,8243322,0,5200172,8273361,1021150,0,0,0,3051071,4171101,0,0,0,0,0,0,0,0,0,0,0,0,-3010121,0,0,2190051,0,0,0,0,0,0,0,2091031,2171150,0,4011180,0,0,0
11,85,627.368354762439,1,0,292030.675047352,292031.722114219,1,8,4,1,1,14,10,59425939,69294697,16012980,115213056,1111110,2001041,0,4101160,0,0,0,31911519,20301109,0,0,3061030,41400319,-1170060,3141170,10510409,0,10011709,2000080,4011191,0,0,0,0,0,0,10001709,0,0,21911319,0,21800109,0,0,40800119,30701509
11,86,1737.15152166551,1,0,292033.475077841,292034.522138934,1,8,4,1,1,23,20,46963247,84768147,167470083,136257147,1200050,0,0,0,3151050,10900619,0,10410819,21300709,2021051,11211119,4020071,12010809,0,3101150,21100619,20801519,10501809,30501709,0,11101509,21601509,-1140110,20812009,40900809,30100419,11312009,30000919,0,20711519,30401509,0,31610609,1081061,2041111,20410419
11,87,506.510245963,0,0,292037.392772418,292038.439833125,1,8,4,0,0,28,10,161425824,22054090,44730149,85082368,21700519,4120080,3071060,20600919,0,10711109,40310819,20210409,40700909,10711609,0,3101031,0,0,1121160,0,3110180,4010110,0,0,3120040,41610109,0,0,0,0,0,-4181150,0,0,0,0,40300309,0,40600909,0
11,88,1242.67840618268,0,0,292040.157511996,292041.204568469,1,8,4,1,0,6,20,88553148,199455444,217909024,83564690,3020090,0,30101119,0,21110609,-3091180,30200119,0,1030031,2131031,30500819,32010019,0,11700019,20501309,31001609,40800019,30810619,30511609,0,41000709,1161041,40310109,10010919,21701909,41511409,31701319,0,21201019,2001171,41910909,4111181,4040201,0,0,10300209
11,89,509.969505190384,0,0,292043.616370448,292044.66343462,1,8,4,1,0,11,10,147245704,86452410,34731541,20270400,0,21701819,0,31010519,40910509,11600219,31710919,10311719,0,0,-2180041,0,41700809,1070051,0,41501509,0,0,0,0,3081061,1050161,0,30600319,0,0,0,2180101,0,0,3070200,0,3000070,11000019,0,1020010
11,90,710.975331196096,1,0,292046.275219969,292047.322284911,1,8,4,0,1,10,10,74602718,36512230,128965486,67993649,0,0,1051010,0,1041180,0,0,30710209,41800319,-3160151,0,3150070,0,0,30202009,0,0,0,0,0,41300109,11411109,20500719,0,31511909,3031131,21210509,4070060,20500809,0,0,2150000,0,40201709,1071071,0
11,91,479.698100010864,0,0,292049.063487206,292050.110555227,1,8,4,1,0,29,5,35193100,15641349,44053190,76632850,0,32001009,0,1191011,0,0,2001080,0,0,0,0,10311319,4180010,0,0,0,0,1150020,0,0,1050000,0,2201181,0,0,40802009,0,30811409,-1090131,0,0,4031201,0,0,0,40700109
11,92,937.142590584699,1,0,292051.639983183,292052.68705313,1,8,4,0,1,26,5,1111050,30700109,74312359,55805160,0,1111050,0,0,0,0,0,0,0,0,0,0,0,30700109,0,0,0,0,0,0,41210209,0,21701609,2070150,4060140,-4080071,1190180,2120101,0,0,11111109,0,1121090,40301819,0,1151041
11,93,587.543758389074,0,0,292054.663557422,292055.710610431,1,8,4,0,0,24,5,8090392,65222637,8212171,38072549,4060151,0,3010081,0,1020160,0,0,0,0,0,11110219,0,0,30001009,0,21011319,0,3100090,0,0,3031070,0,0,-3011091,2170010,0,0,12000809,0,0,4170121,0,0,0,21901619,0
11,94,1993.5474555823,0,0,292057.357698625,292058.404757792,1,8,4,0,0,3,20,123353339,119006817,147286108,179546693,31200119,10610019,-4120041,40111609,4170161,30010219,0,0,3131171,21011519,21510319,10101409,2011090,0,1030101,3031141,40011019,20300219,30602019,0,2021161,40001219,30010509,0,3041091,0,41610109,11401709,0,20910109,21910809,21600509,41011819,21600819,0,41110919
11,95,739.489004597999,1,0,292061.557737814,292062.60480545,1,8,4,0,1,36,0,5203292,8241391,0,7320092,1191161,0,0,2011090,0,0,0,0,2001041,4170131,3040090,0,0,0,0,0,0,1031170,0,0,0,0,0,0,0,0,0,0,0,0,0,0,0,3140041,0,-4180051
11,96,867.44001909392,1,0,292064.510712907,292065.557784394,1,8,4,0,1,22,20,197776434,111858599,57495677,147904015,3021150,31311209,0,30011709,31211219,40110009,0,21700519,40410619,11011609,0,21511819,2191081,4101011,40210919,1030120,30702009,1100031,11501419,0,1010010,-3160091,0,0,10011619,11811019,20001519,0,21100619,3090021,20300109,10501419,30000509,31310419,31600919,0
11,97,1402.35289861448,1,0,292077.781443248,292078.828516274,1,8,5,0,1,5,10,65814268,24082359,108955278,89462800,0,0,20911319,0,-3141090,40611809,0,1150050,0,0,0,0,0,0,2171140,0,21911219,0,2061121,21110609,0,2071201,0,0,10701109,41311219,31700019,0,0,30300109,10901419,3200031,0,2100121,1060001,41901119
11,98,548.51487634005,1,0,292081.381491522,292082.428554154,1,8,5,0,1,9,0,9371131,15380281,0,4050120,0,3121020,0,0,0,0,0,2100101,-4150010,0,0,3120140,0,4050100,0,4030030,0,4180011,0,0,0,0,0,0,0,0,0,4050120,0,0,0,0,0,0,0,0
11,99,592.890866158996,0,0,292084.110930179,292085.15801437,1,8,5,1,0,13,10,36075639,8543362,128215977,68007027,0,0,0,0,3041010,0,1121011,10601809,21311809,0,1101040,1080150,-3181111,3181061,0,0,0,0,0,30200519,3191021,21712019,41510409,0,31602009,0,0,11401619,20011409,0,4171181,21311209,0,0,11111609,0
11,100,1136.29136490636,1,0,292086.88742839,292087.934492177,1,8,5,0,1,35,20,147634976,157740356,158385155,80695969,41500119,30401409,0,21910509,3011111,0,20300919,0,30510909,4191011,30212009,0,20010409,30102019,20111509,40901919,11111309,1100171,10101019,1120031,0,41800609,21210019,30510819,30801109,2141140,20700409,30902009,3050120,0,30111519,11500109,0,0,-2091141,3041071
11,101,1888.74106400181,0,0,292090.26396294,292091.31100748,1,8,5,0,0,24,5,15001550,15782000,48973249,18872649,0,3001131,0,12000419,0,0,0,0,0,0,11610809,0,0,0,4171191,0,0,0,1030101,3120090,11211819,0,0,-3111130,30500109,0,0,2171090,0,0,4201090,2190060,0,0,10310409,0
11,102,423.630460863933,0,0,292094.311047131,292095.358105143,1,8,5,1,0,16,0,4031010,13651092,5141150,1120201,0,0,0,0,0,4031010,0,0,0,4200010,0,2150010,0,0,0,-3100041,4201031,0,2071140,0,0,3070010,0,0,0,0,0,0,0,0,0,1120201,0,0,0,0
11,103,654.312542406842,1,0,292096.8993079,292097.946377847,1,8,5,1,1,11,10,147245704,86452410,34731541,20270400,0,21701819,0,31010519,40910509,11600219,31710919,10311719,0,0,-2180041,0,41700809,1070051,0,41501509,0,0,0,0,3081061,1050161,0,30600319,0,0,0,2180101,0,0,3070200,0,3000070,11000019,0,1020010
11,104,682.91937635513,0,0,292099.781688083,292100.828757644,1,8,5,0,0,26,5,34370229,16912090,9251382,64636177,0,31300119,0,0,0,3070110,0,0,0,0,11710909,0,2191180,3010001,0,0,0,0,0,3021121,0,0,0,0,3130200,-1020050,2080011,41711709,0,10411509,11511809,0,0,1001150,0,0
11,105,795.996269211173,0,0,292102.534667103,292103.581729351,1,8,5,1,0,12,0,2120211,7472252,7271021,2121070,0,1060050,0,0,0,0,0,0,1060161,0,0,-1161100,0,0,0,0,4160011,2151141,0,4161021,3110000,0,0,0,0,0,0,0,0,0,0,0,2121070,0,0,0
11,106,849.107023212127,0,0,292105.499406989,292106.546469236,1,8,5,0,0,3,5,70385038,13342443,0,48283878,11012009,0,-4081010,40810009,10300819,0,0,0,4181191,3120200,0,0,0,2181061,4011061,0,0,4030121,0,0,0,0,0,0,0,0,0,0,0,0,1061080,11211409,0,32000309,0,4011080
11,107,922.566043795086,1,0,292108.464140715,292109.511203348,1,8,5,0,1,36,10,123684369,53393508,116094349,49072688,31310019,0,0,4001101,41411209,4020081,41810919,0,1131040,0,0,0,12011719,0,0,40201719,0,1180070,40801519,3000131,40200919,31011619,0,1080161,0,0,0,0,0,20711119,0,0,4110160,21210409,0,-3041000
11,108,947.545775619801,0,0,292111.47602677,292112.523002401,1,8,5,1,0,23,20,46963247,84768147,167470083,136257147,1200050,0,0,0,3151050,10900619,0,10410819,21300709,2021051,11211119,4020071,12010809,0,3101150,21100619,20801519,10501809,30501709,0,11101509,21601509,-1140110,20812009,40900809,30100419,11312009,30000919,0,20711519,30401509,0,31610609,1081061,2041111,20410419
11,109,957.896220963448,1,0,292114.534842645,292115.581857158,1,8,5,1,1,14,10,59425939,69294697,16012980,115213056,1111110,2001041,0,4101160,0,0,0,31911519,20301109,0,0,3061030,41400319,-1170060,3141170,10510409,0,10011709,2000080,4011191,0,0,0,0,0,0,10001709,0,0,21911319,0,21800109,0,0,40800119,30701509
11,110,1479.89212034736,1,0,292117.546592424,292118.593690473,1,8,5,1,1,4,5,74602599,28922941,5100361,53222728,0,0,41711519,-2090071,0,30801009,0,0,0,0,0,20610619,3131020,0,2020150,0,2110021,1051131,4040161,0,0,0,0,1060200,0,0,0,0,0,0,2100000,0,40111609,0,0,11011119
11,111,695.617698656861,0,0,292121.240745945,292122.287812042,1,8,5,1,0,29,5,35193100,15641349,44053190,76632850,0,32001009,0,1191011,0,0,2001080,0,0,0,0,10311319,4180010,0,0,0,0,1150020,0,0,1050000,0,2201181,0,0,40802009,0,30811409,-1090131,0,0,4031201,0,0,0,40700109
11,112,582.401449850295,0,0,292124.123138831,292125.170218787,1,8,5,0,0,10,0,3121080,6300051,4100030,7452243,0,0,0,0,0,0,2090020,0,1031060,-3110020,3190031,0,0,0,0,0,0,0,0,0,0,0,0,0,0,0,4100030,0,3190041,0,0,0,0,1111171,3151031,0
11,113,1126.7631961382,1,0,292126.899636272,292127.946706603,1,8,5,1,1,30,5,2200031,83201749,44331899,52172069,2200031,0,0,0,0,0,0,0,0,2020141,21210319,0,2080011,11811109,4070150,0,42010019,0,0,0,0,0,3020090,41311809,0,0,0,0,4201100,-3130010,40700909,0,4140050,0,0,0
11,114,1494.28542575333,1,0,292130.170266522,292131.217328,1,8,5,0,1,32,20,35227442,209246722,167816985,98045216,2061130,4181021,20601819,1021201,1140011,0,4191180,2031080,0,41901919,21300919,31600809,11010919,0,21600219,20710019,21010209,40111709,31100609,30201019,2091191,0,31900919,20301219,11311109,0,40910919,21300509,0,21011109,10200709,-4030071,31301309,0,10201509,0
11,115,484.172886237502,0,0,292133.782069964,292134.829137986,1,8,5,0,0,22,10,76973089,69924379,45703960,65223388,10901109,0,1090201,20100719,41710919,0,0,0,3170141,0,21300619,11600619,0,3191031,0,0,3131101,30701009,0,1030070,2121061,-1140001,0,0,31011819,0,10401009,41902019,0,2121150,21200219,0,0,0,0,0
11,116,1126.37554045068,0,0,292136.382092061,292137.429157388,1,8,5,1,0,1,20,90266988,133005877,104306555,188395233,-4070160,10401119,10501909,0,1070091,20001309,41101219,0,3121181,3160050,40100619,0,40311619,11611919,0,3191050,30510419,4120201,10301319,10010919,0,41501919,0,1071170,10110209,0,31311019,0,40111219,10701419,30800619,1160130,40110609,31800809,12000009,21710419
11,117,577.120555390138,0,0,292139.723306058,292140.770365996,1,8,5,1,0,19,0,8243322,0,5200172,8273361,1021150,0,0,0,3051071,4171101,0,0,0,0,0,0,0,0,0,0,0,0,-3010121,0,0,2190051,0,0,0,0,0,0,0,2091031,2171150,0,4011180,0,0,0
11,118,1554.45867351955,0,0,292142.499813123,292143.546878835,1,8,5,1,0,6,20,88553148,199455444,217909024,83564690,3020090,0,30101119,0,21110609,-3091180,30200119,0,1030031,2131031,30500819,32010019,0,11700019,20501309,31001609,40800019,30810619,30511609,0,41000709,1161041,40310109,10010919,21701909,41511409,31701319,0,21201019,2001171,41910909,4111181,4040201,0,0,10300209
11,119,575.051005289424,1,0,292146.288090753,292147.335147611,1,8,5,0,1,20,0,7371151,0,11501303,3181341,4170091,0,0,0,3201060,0,0,0,0,0,0,0,0,0,0,0,0,0,0,-3190021,2121131,0,0,0,3050051,0,3140100,2010200,0,0,0,0,1171141,0,0,0
11,120,1190.5000275583,1,0,292149.052829946,292150.099887574,1,8,5,0,1,28,20,169931484,102395217,107614448,176425817,21501809,10901409,2080091,20211719,41901919,0,31411709,11511909,30410919,41911809,0,11710909,1070100,2190141,0,4200130,30010319,11301809,0,0,31711409,0,0,30801809,4201011,0,40900219,-4111071,30100519,3121031,41510909,20510709,20510409,31810319,3140131,21610719
11,121,1057.92755680159,1,0,292169.005983662,292170.053042445,1,8,6,0,1,20,5,32991619,36151950,28413271,56090829,0,0,0,30900519,0,2091100,0,0,0,0,0,30800609,3201181,2150160,0,0,0,0,0,-2080130,3061181,0,0,21100909,0,0,2171051,0,0,10600609,0,2150180,0,40200009,0,3140031
11,122,481.664480641484,0,0,292172.135432175,292173.182501736,1,8,6,1,0,14,10,59425939,69294697,16012980,115213056,1111110,2001041,0,4101160,0,0,0,31911519,20301109,0,0,3061030,41400319,-1170060,3141170,10510409,0,10011709,2000080,4011191,0,0,0,0,0,0,10001709,0,0,21911319,0,21800109,0,0,40800119,30701509
11,123,766.783506667707,0,0,292174.75898886,292175.806107311,1,8,6,0,0,35,20,148058746,133497398,79875306,129797334,0,41102009,21911119,30711209,1021140,0,21211809,30910409,1191051,30310109,2030131,20011009,3060150,2151031,21911419,4011031,30000709,20011809,0,0,31911209,0,21711209,11301109,4140160,0,10811619,0,30311119,10101119,30801519,30700509,11711509,12000409,-4171150,0
11,124,708.97545904154,1,0,292177.759026201,292178.806088833,1,8,6,1,1,12,0,2120211,7472252,7271021,2121070,0,1060050,0,0,0,0,0,0,1060161,0,0,-1161100,0,0,0,0,4160011,2151141,0,4161021,3110000,0,0,0,0,0,0,0,0,0,0,0,2121070,0,0,0
11,125,1371.39279826079,0,0,292180.582578959,292181.629644287,1,8,6,1,0,6,20,88553148,199455444,217909024,83564690,3020090,0,30101119,0,21110609,-3091180,30200119,0,1030031,2131031,30500819,32010019,0,11700019,20501309,31001609,40800019,30810619,30511609,0,41000709,1161041,40310109,10010919,21701909,41511409,31701319,0,21201019,2001171,41910909,4111181,4040201,0,0,10300209
11,126,638.761274458375,0,0,292184.053213367,292185.100270225,1,8,6,0,0,26,20,143278516,134740695,90794655,149127475,0,10511119,11010519,31801319,3041160,0,4201171,41911909,40801319,11711109,41611919,10511209,4051190,0,4031020,30501819,30301309,2021120,0,11411209,10511519,21510509,0,0,11900119,-4050080,31411219,21810509,0,2001100,20712019,41400519,1100100,41002009,0,21101219
11,127,753.172441967763,1,1,292186.876767281,292187.923839152,1,8,6,0,0,36,0,7361311,3090170,2180070,5330310,1191000,0,2100151,0,0,0,4070160,0,0,0,0,0,0,1040040,0,2050130,0,0,0,0,0,0,0,0,0,0,2180070,0,0,0,0,0,0,1170110,0,-4160200
11,128,421.955880650785,0,0,292189.876795768,292190.923868794,1,8,6,1,0,19,0,8243322,0,5200172,8273361,1021150,0,0,0,3051071,4171101,0,0,0,0,0,0,0,0,0,0,0,0,-3010121,0,0,2190051,0,0,0,0,0,0,0,2091031,2171150,0,4011180,0,0,0
11,129,818.070315697696,0,0,292192.535656068,292193.582717545,1,8,6,0,0,9,5,28211800,10691491,43242279,65552557,0,0,0,2090181,0,22011609,0,0,-4110010,3180110,0,0,2180190,0,2161141,0,3170050,0,2141060,0,41101219,0,0,0,0,0,0,0,20010019,0,31800809,10711709,0,3030020,0,0
11,130,1267.27895147633,1,0,292195.441564295,292196.488636936,1,8,6,1,1,4,5,74602599,28922941,5100361,53222728,0,0,41711519,-2090071,0,30801009,0,0,0,0,0,20610619,3131020,0,2020150,0,2110021,1051131,4040161,0,0,0,0,1060200,0,0,0,0,0,0,2100000,0,40111609,0,0,11011119
11,131,652.587147371378,0,0,292198.912197548,292199.959255946,1,8,6,1,0,13,10,36075639,8543362,128215977,68007027,0,0,0,0,3041010,0,1121011,10601809,21311809,0,1101040,1080150,-3181111,3181061,0,0,0,0,0,30200519,3191021,21712019,41510409,0,31602009,0,0,11401619,20011409,0,4171181,21311209,0,0,11111609,0
11,132,716.587677074131,1,0,292201.665168099,292202.712229192,1,8,6,0,1,10,10,68943771,46473380,90453317,45363157,2101191,0,0,0,1180111,3150041,31510709,0,31001719,-1161001,0,0,0,0,31510209,2000151,11802019,0,0,42011719,21700409,0,2121030,3110050,21510109,0,0,0,0,10500219,0,0,11200019,0,2151100,21511819
11,133,1168.95722725894,1,0,292204.641673932,292205.688734254,1,8,6,1,1,23,20,46963247,84768147,167470083,136257147,1200050,0,0,0,3151050,10900619,0,10410819,21300709,2021051,11211119,4020071,12010809,0,3101150,21100619,20801519,10501809,30501709,0,11101509,21601509,-1140110,20812009,40900809,30100419,11312009,30000919,0,20711519,30401509,0,31610609,1081061,2041111,20410419
11,134,732.200538739562,1,0,292208.053469366,292209.100535463,1,8,6,1,1,1,20,90266988,133005877,104306555,188395233,-4070160,10401119,10501909,0,1070091,20001309,41101219,0,3121181,3160050,40100619,0,40311619,11611919,0,3191050,30510419,4120201,10301319,10010919,0,41501919,0,1071170,10110209,0,31311019,0,40111219,10701419,30800619,1160130,40110609,31800809,12000009,21710419
11,135,1159.78861204349,0,0,292210.982914491,292212.029980588,1,8,6,0,0,5,20,146064995,118776535,151957955,87376527,40310419,0,20311419,40111409,-4121020,30200309,11010419,0,0,10911019,30410319,20000309,10400519,31301319,1091150,0,4150191,10511709,0,21011609,0,31310809,2201090,30401219,22011709,3010110,42011409,0,0,30601819,2100201,1001180,20201709,21110019,1151180,11210419
11,136,556.967079173774,0,0,292214.253533578,292215.300605064,1,8,6,0,0,28,0,2022230,4051101,3201191,7281530,0,0,0,0,1001170,1021060,0,0,0,0,0,0,0,0,4051101,0,0,0,0,1191071,0,0,2010120,0,0,0,0,-3150160,0,0,2060200,0,0,0,0,2071170
11,137,491.022111673374,0,1,292217.053572151,292218.100690988,1,8,6,0,1,22,10,20811419,76883448,116975769,89933228,0,0,0,0,0,0,20811419,0,0,0,0,0,0,4161020,31411619,41310809,0,0,31700719,10210209,21601619,-1060100,2031191,4181191,42000719,0,4190021,30810319,0,0,4010000,2071081,2130200,20911209,0,30000419
11,138,679.975964827463,0,0,292219.759482765,292220.806539623,1,8,6,1,0,11,10,147245704,86452410,34731541,20270400,0,21701819,0,31010519,40910509,11600219,31710919,10311719,0,0,-2180041,0,41700809,1070051,0,41501509,0,0,0,0,3081061,1050161,0,30600319,0,0,0,2180101,0,0,3070200,0,3000070,11000019,0,1020010
11,139,1001.47649645805,1,0,292222.63010085,292223.677164638,1,8,6,0,1,24,0,0,7201372,13434541,1101140,0,0,0,0,0,0,0,0,0,0,0,3071191,0,0,0,0,4130181,0,0,3041140,0,0,0,-4030070,2001140,3191160,1171031,0,0,1101140,0,0,0,0,0,0
11,140,1388.57091125101,1,0,292225.888965539,292226.936023937,1,8,6,0,1,3,5,31584301,112897390,0,32461730,0,4001140,-4090101,2091151,0,0,0,0,21401909,0,40500509,4010151,1101020,2011011,3161171,41001509,21112019,0,0,0,0,0,0,0,0,0,0,0,0,0,0,0,30401619,2060111,0,0
11,141,467.92021940928,1,0,292229.418416977,292230.46547961,1,8,6,1,1,16,0,4031010,13651092,5141150,1120201,0,0,0,0,0,4031010,0,0,0,4200010,0,2150010,0,0,0,-3100041,4201031,0,2071140,0,0,3070010,0,0,0,0,0,0,0,0,0,1120201,0,0,0,0
11,142,624.394916347228,0,0,292231.9949118,292233.041975972,1,8,6,1,0,29,5,35193100,15641349,44053190,76632850,0,32001009,0,1191011,0,0,2001080,0,0,0,0,10311319,4180010,0,0,0,0,1150020,0,0,1050000,0,2201181,0,0,40802009,0,30811409,-1090131,0,0,4031201,0,0,0,40700109
11,143,743.984963686671,0,0,292234.818528847,292235.865525651,1,8,6,1,0,30,5,2200031,83201749,44331899,52172069,2200031,0,0,0,0,0,0,0,0,2020141,21210319,0,2080011,11811109,4070150,0,42010019,0,0,0,0,0,3020090,41311809,0,0,0,0,4201100,-3130010,40700909,0,4140050,0,0,0
11,144,800.724744738545,1,0,292237.806738647,292238.853814753,1,8,6,0,1,32,10,34671710,144737686,89234796,44773842,0,0,0,3160091,0,31511619,0,0,0,2101140,30600909,0,0,0,0,30211909,41111819,40711909,22011119,3120180,2180140,10101919,21110719,30710719,0,0,0,0,4001111,4011030,2130171,-3130111,31501419,0,0,0
11,145,820.71923208423,1,0,292255.124564342,292256.171641988,1,8,7,0,1,36,0,6342121,1191060,1111091,11261152,0,0,0,4151001,0,0,2191120,0,0,0,0,0,0,0,1191060,0,0,0,0,0,0,0,0,0,0,1111091,0,0,0,4031030,2120041,0,0,1010041,0,-4100040
11,146,562.719935725909,1,0,292258.089320011,292259.136379949,1,8,7,0,1,26,5,22322128,71534801,34040840,0,10511809,0,0,11810319,0,0,0,0,0,4201141,0,41910609,0,2151131,2010081,20201709,0,1060130,0,3050100,0,3140060,4100141,21710409,0,-2040130,0,0,0,0,0,0,0,0,0,0
11,147,532.896240183618,1,0,292260.79522639,292261.842287097,1,8,7,1,1,29,5,35193100,15641349,44053190,76632850,0,32001009,0,1191011,0,0,2001080,0,0,0,0,10311319,4180010,0,0,0,0,1150020,0,0,1050000,0,2201181,0,0,40802009,0,30811409,-1090131,0,0,4031201,0,0,0,40700109
11,148,463.289139093831,0,0,292263.418785,292264.465846862,1,8,7,0,0,20,10,106604528,99583899,36424799,43704878,0,30810219,2111120,0,0,31111819,2161061,40410309,0,31400309,4191131,20810419,41110909,0,2071131,0,0,0,10111609,-3000101,0,3001170,20311919,0,0,0,0,2101170,10410909,0,0,0,0,1191090,0,30001709
11,149,752.409449371044,1,0,292265.971756783,292267.0188198,1,8,7,1,1,13,10,36075639,8543362,128215977,68007027,0,0,0,0,3041010,0,1121011,10601809,21311809,0,1101040,1080150,-3181111,3181061,0,0,0,0,0,30200519,3191021,21712019,41510409,0,31602009,0,0,11401619,20011409,0,4171181,21311209,0,0,11111609,0
11,150,546.816813468467,1,0,292268.842371789,292269.889433651,1,8,7,1,1,16,0,4031010,13651092,5141150,1120201,0,0,0,0,0,4031010,0,0,0,4200010,0,2150010,0,0,0,-3100041,4201031,0,2071140,0,0,3070010,0,0,0,0,0,0,0,0,0,1120201,0,0,0,0
11,151,946.599926508497,0,0,292271.536523385,292272.583582938,1,8,7,1,0,1,20,90266988,133005877,104306555,188395233,-4070160,10401119,10501909,0,1070091,20001309,41101219,0,3121181,3160050,40100619,0,40311619,11611919,0,3191050,30510419,4120201,10301319,10010919,0,41501919,0,1071170,10110209,0,31311019,0,40111219,10701419,30800619,1160130,40110609,31800809,12000009,21710419
11,152,576.996982912533,0,0,292274.665969588,292275.713027986,1,8,7,0,0,10,10,104524356,116373758,4363482,81025809,0,0,20601309,0,31910319,20111719,31901009,0,0,-1131071,40701219,30000109,4140140,0,40401219,0,0,0,0,0,1141120,0,0,2201161,1021201,0,0,30101019,21001009,0,3110030,2071031,4031111,0,0,20711609
11,153,832.771589863114,0,0,292277.407232321,292278.45423644,1,8,7,1,0,11,10,147245704,86452410,34731541,20270400,0,21701819,0,31010519,40910509,11600219,31710919,10311719,0,0,-2180041,0,41700809,1070051,0,41501509,0,0,0,0,3081061,1050161,0,30600319,0,0,0,2180101,0,0,3070200,0,3000070,11000019,0,1020010
11,154,1321.89490285236,0,0,292280.371910998,292281.418973246,1,8,7,1,0,6,20,88553148,199455444,217909024,83564690,3020090,0,30101119,0,21110609,-3091180,30200119,0,1030031,2131031,30500819,32010019,0,11700019,20501309,31001609,40800019,30810619,30511609,0,41000709,1161041,40310109,10010919,21701909,41511409,31701319,0,21201019,2001171,41910909,4111181,4040201,0,0,10300209
11,155,720.854199375026,1,0,292283.760185318,292284.807251415,1,8,7,1,1,19,0,8243322,0,5200172,8273361,1021150,0,0,0,3051071,4171101,0,0,0,0,0,0,0,0,0,0,0,0,-3010121,0,0,2190051,0,0,0,0,0,0,0,2091031,2171150,0,4011180,0,0,0
11,156,760.025517025497,0,0,292286.583742696,292287.630808408,1,8,7,1,0,23,20,46963247,84768147,167470083,136257147,1200050,0,0,0,3151050,10900619,0,10410819,21300709,2021051,11211119,4020071,12010809,0,3101150,21100619,20801519,10501809,30501709,0,11101509,21601509,-1140110,20812009,40900809,30100419,11312009,30000919,0,20711519,30401509,0,31610609,1081061,2041111,20410419
11,157,609.52079470735,1,0,292289.407305849,292290.454366556,1,8,7,1,1,14,10,59425939,69294697,16012980,115213056,1111110,2001041,0,4101160,0,0,0,31911519,20301109,0,0,3061030,41400319,-1170060,3141170,10510409,0,10011709,2000080,4011191,0,0,0,0,0,0,10001709,0,0,21911319,0,21800109,0,0,40800119,30701509
11,158,868.656495760661,0,0,292292.124985874,292293.172089312,1,8,7,1,0,12,0,2120211,7472252,7271021,2121070,0,1060050,0,0,0,0,0,0,1060161,0,0,-1161100,0,0,0,0,4160011,2151141,0,4161021,3110000,0,0,0,0,0,0,0,0,0,0,0,2121070,0,0,0
11,159,976.319297682494,0,0,292295.05442022,292296.101494786,1,8,7,1,0,30,5,2200031,83201749,44331899,52172069,2200031,0,0,0,0,0,0,0,0,2020141,21210319,0,2080011,11811109,4070150,0,42010019,0,0,0,0,0,3020090,41311809,0,0,0,0,4201100,-3130010,40700909,0,4140050,0,0,0
11,160,1183.87985392474,1,0,292298.13680918,292299.183899145,1,8,7,0,1,3,5,50133711,55553409,43952139,10412381,0,0,-3161161,3191050,3081091,0,0,40700409,0,22001619,0,0,2041071,0,0,31510719,0,0,0,0,0,10110509,0,0,2131121,31710509,0,3191170,0,0,0,0,0,4071100,0,3150111
11,161,849.235215282533,1,0,292301.560374411,292302.607440893,1,8,7,0,1,35,20,124509638,94864497,138536476,164247364,4111101,31011319,21201809,4071161,1130101,10600409,31010619,20211919,1161200,10501909,0,3140141,20210219,41011819,20000409,0,0,0,31911719,2010011,11701109,31911619,0,0,0,20200309,40801709,21000819,41510819,3150080,11411919,40000909,11000819,32010819,-4161180,0
11,162,761.413301283028,1,0,292304.57217385,292305.619241102,1,8,7,0,1,9,0,7241351,4301400,1161081,5132201,3020040,0,0,0,0,3021120,0,0,-1200191,0,0,2131200,0,0,0,0,0,2170200,0,1161081,0,0,0,0,0,0,0,3031201,2101000,0,0,0,0,0,0,0
11,163,1038.38578349678,1,0,292307.419252727,292308.466330758,1,8,7,0,1,22,5,75752718,14933039,28472580,6262372,21200919,0,1080200,0,11310509,41110019,0,0,1051071,11901909,0,0,0,0,0,0,3031130,0,0,20200219,3071180,-2041150,0,3160031,0,0,0,3191191,0,0,0,0,0,0,0,3071181
11,164,597.482680459507,0,0,292310.619296151,292311.666369562,1,8,7,0,0,28,20,120264748,118046945,180049843,68805408,0,30611519,0,30610109,0,41910919,4041081,11000109,2091011,11710509,1010181,20500709,40811019,11310509,11202009,21502009,0,0,40211109,1111110,41110419,10810719,21211419,22011909,31401519,1170020,11011619,-4031110,0,1041021,0,31810919,1111130,20510909,10300319,0
11,165,783.988951938227,0,0,292313.360504605,292314.407568777,1,8,7,0,0,24,10,151256927,59062808,44252959,63064608,40610219,20802019,0,40901319,1000100,2061050,41801119,4081101,0,1171120,0,40211219,4040080,10510309,3130080,0,0,0,0,0,30101809,0,0,-2151041,0,12000109,0,31101609,0,0,0,1161090,0,0,30801909,0
11,166,1286.14434826886,1,0,292316.372307508,292317.419366676,1,8,7,0,1,5,0,9462372,1051181,4031141,8383192,0,0,0,0,-1191021,0,4181151,0,4090200,0,0,0,0,0,0,0,0,1051181,0,0,0,0,0,0,4031141,0,0,0,4161020,0,1111071,0,0,3111101,0,0
11,167,785.278186143842,1,0,292319.831206381,292320.878226668,1,8,7,0,1,32,20,144635986,124777516,178526706,76196177,0,30400809,0,30101309,41201409,1120131,30000709,11811619,0,41101809,3191090,0,3070201,40500809,11511319,3091170,11200909,11110209,40210019,30200919,40510619,10101019,31211919,0,21000019,4101051,1191141,0,0,10001009,20210119,-4150201,0,30112009,10701809,1021030
11,168,847.967153880745,0,0,292322.8194362,292323.866499987,1,8,7,1,0,4,5,74602599,28922941,5100361,53222728,0,0,41711519,-2090071,0,30801009,0,0,0,0,0,20610619,3131020,0,2020150,0,2110021,1051131,4040161,0,0,0,0,1060200,0,0,0,0,0,0,2100000,0,40111609,0,0,11011119
11,169,827.561143203638,0,0,292354.066834056,292355.113898998,1,8,8,0,0,24,10,5220150,124826936,79432559,132666188,0,4120030,0,0,0,1100120,0,0,0,11311919,0,3011190,0,40200409,0,30002009,40301409,0,3150120,0,41900619,0,30310809,-4071011,0,0,0,41510709,3001010,2081051,21910309,30701919,0,31310019,0,2151171
11,170,1017.77843828313,0,0,292356.996276871,292358.043343738,1,8,8,0,0,5,0,6191290,12232201,4121180,7301302,0,0,0,0,-3170190,0,0,3021100,0,0,0,4021050,0,0,0,4081130,4130021,0,0,0,0,0,4121180,0,0,0,0,0,0,0,0,0,0,0,3160101,4141201
11,171,1108.67850010982,1,0,292360.231610051,292361.278669989,1,8,8,1,1,4,5,74602599,28922941,5100361,53222728,0,0,41711519,-2090071,0,30801009,0,0,0,0,0,20610619,3131020,0,2020150,0,2110021,1051131,4040161,0,0,0,0,1060200,0,0,0,0,0,0,2100000,0,40111609,0,0,11011119
11,172,565.27954118792,0,0,292363.466937072,292364.514001244,1,8,8,0,0,10,5,45860910,77562739,9291394,10401219,0,0,0,0,41700809,0,0,0,4160101,-2000181,21711919,0,1010070,0,0,1020141,40010019,11810409,0,0,3040151,1120031,2091101,3040111,0,0,0,10401219,0,0,0,0,0,0,0,0
11,173,789.745273184963,0,0,292366.149330035,292367.196380734,1,8,8,1,0,13,10,36075639,8543362,128215977,68007027,0,0,0,0,3041010,0,1121011,10601809,21311809,0,1101040,1080150,-3181111,3181061,0,0,0,0,0,30200519,3191021,21712019,41510409,0,31602009,0,0,11401619,20011409,0,4171181,21311209,0,0,11111609,0
11,174,1325.54587256163,1,0,292369.043467696,292370.090529943,1,8,8,1,1,1,20,90266988,133005877,104306555,188395233,-4070160,10401119,10501909,0,1070091,20001309,41101219,0,3121181,3160050,40100619,0,40311619,11611919,0,3191050,30510419,4120201,10301319,10010919,0,41501919,0,1071170,10110209,0,31311019,0,40111219,10701419,30800619,1160130,40110609,31800809,12000009,21710419
11,175,1245.36350887502,1,0,292372.478796179,292373.525868051,1,8,8,1,1,6,20,88553148,199455444,217909024,83564690,3020090,0,30101119,0,21110609,-3091180,30200119,0,1030031,2131031,30500819,32010019,0,11700019,20501309,31001609,40800019,30810619,30511609,0,41000709,1161041,40310109,10010919,21701909,41511409,31701319,0,21201019,2001171,41910909,4111181,4040201,0,0,10300209
11,176,475.020439364016,0,0,292375.925894459,292376.972959786,1,8,8,0,0,9,20,102544848,135286836,159746375,157846276,40810409,11501409,21111519,0,4061191,0,21010219,0,-4050101,20100819,22010119,0,3061060,31101619,31901209,2090020,20910819,4111171,21200519,20901419,21411519,0,0,30411709,3200191,41610309,21010709,0,20300219,30801619,31301819,0,1060030,41911209,31400319,1071061
11,177,511.14671578398,1,0,292378.52592541,292379.572989197,1,8,8,0,1,28,5,26242641,20624141,77112029,23931759,0,0,20901519,0,0,0,0,4151041,1190081,0,0,11300719,1171090,3050011,2021150,0,0,3081171,0,0,0,0,0,4010011,42000009,31102009,0,-3031140,0,0,0,0,0,20900619,0,0
11,178,533.91407703748,0,0,292381.114221981,292382.161248812,1,8,8,0,0,32,0,3121180,6051190,5331503,2190200,0,3121180,0,0,0,0,0,0,0,0,0,0,2030070,0,4021120,0,0,0,1131171,2020120,0,1110111,0,0,0,0,1070101,0,0,0,0,-2190200,0,0,0,0
11,179,752.629647031426,1,0,292383.702458113,292384.74951959,1,8,8,1,1,19,0,8243322,0,5200172,8273361,1021150,0,0,0,3051071,4171101,0,0,0,0,0,0,0,0,0,0,0,0,-3010121,0,0,2190051,0,0,0,0,0,0,0,2091031,2171150,0,4011180,0,0,0
11,180,525.878016895149,1,0,292386.573082358,292387.620151919,1,8,8,1,1,16,0,4031010,13651092,5141150,1120201,0,0,0,0,0,4031010,0,0,0,4200010,0,2150010,0,0,0,-3100041,4201031,0,2071140,0,0,3070010,0,0,0,0,0,0,0,0,0,1120201,0,0,0,0
11,181,468.004910857417,1,0,292389.279007985,292390.326048674,1,8,8,0,1,20,10,88163399,29242470,104872557,82234819,11000019,41000309,0,0,0,4031191,30010809,0,2121071,0,0,4181051,0,3160100,0,0,21901319,0,0,-1050020,0,0,41610809,21001609,0,41210119,0,3111151,10011619,41301319,3150091,0,21500519,3160120,0,0
11,182,720.085817330983,1,0,292391.984892036,292393.031960443,1,8,8,1,1,12,0,2120211,7472252,7271021,2121070,0,1060050,0,0,0,0,0,0,1060161,0,0,-1161100,0,0,0,0,4160011,2151141,0,4161021,3110000,0,0,0,0,0,0,0,0,0,0,0,2121070,0,0,0
11,183,766.555609821808,0,0,292394.926103493,292395.973172669,1,8,8,1,0,23,20,46963247,84768147,167470083,136257147,1200050,0,0,0,3151050,10900619,0,10410819,21300709,2021051,11211119,4020071,12010809,0,3101150,21100619,20801519,10501809,30501709,0,11101509,21601509,-1140110,20812009,40900809,30100419,11312009,30000919,0,20711519,30401509,0,31610609,1081061,2041111,20410419
11,184,621.854174009059,0,0,292397.879083976,292398.926137369,1,8,8,0,0,26,5,46173678,7201340,25121881,41850349,2130100,0,2131050,0,0,0,0,11001209,30911319,0,4060090,1071140,0,2070110,0,0,0,0,0,2071201,0,0,0,0,0,-2140071,20910609,0,0,0,0,0,1040121,10510119,30300109,0
11,185,1147.64463354368,1,0,292400.584987275,292401.632049908,1,8,8,0,1,36,20,129656056,84865639,125697446,200094885,1130130,41702009,0,0,30611009,40911709,4200180,11101019,0,0,2061131,20800409,20711619,21210009,4111161,4060091,11911219,0,4081071,11402019,10510519,31910319,21412009,21211319,0,4070171,21100019,30500819,0,21110719,30011509,41210809,41700409,31510619,0,-4050001
11,186,607.000455318484,1,0,292403.90266168,292404.949732781,1,8,8,0,1,22,10,106383518,44621720,18521891,134315665,3000180,1171101,0,40800519,0,0,0,41300309,20111409,2010100,0,2201001,40410619,0,0,0,0,0,10100509,2190121,0,-2020040,0,0,0,2090130,2121091,41101709,0,40600519,0,11201109,31300419,0,0,10111909
11,187,707.881014968734,1,0,292406.749823324,292407.796823978,1,8,8,1,1,30,5,2200031,83201749,44331899,52172069,2200031,0,0,0,0,0,0,0,0,2020141,21210319,0,2080011,11811109,4070150,0,42010019,0,0,0,0,0,3020090,41311809,0,0,0,0,4201100,-3130010,40700909,0,4140050,0,0,0
11,188,568.393490393646,0,0,292409.632149997,292410.679214555,1,8,8,1,0,11,10,147245704,86452410,34731541,20270400,0,21701819,0,31010519,40910509,11600219,31710919,10311719,0,0,-2180041,0,41700809,1070051,0,41501509,0,0,0,0,3081061,1050161,0,30600319,0,0,0,2180101,0,0,3070200,0,3000070,11000019,0,1020010
11,189,494.489839999005,1,0,292412.385119394,292413.432181256,1,8,8,1,1,29,5,35193100,15641349,44053190,76632850,0,32001009,0,1191011,0,0,2001080,0,0,0,0,10311319,4180010,0,0,0,0,1150020,0,0,1050000,0,2201181,0,0,40802009,0,30811409,-1090131,0,0,4031201,0,0,0,40700109
11,190,593.636920501012,1,0,292414.996913982,292416.043975074,1,8,8,0,1,35,0,3000000,5182372,2250281,11130311,0,0,3000000,0,0,0,0,0,0,4131171,0,0,1051201,0,0,0,0,0,1060130,0,0,1190151,0,0,0,0,0,0,4110101,0,3000020,0,0,0,-4020190,0
11,191,605.424040171783,0,0,292417.844005563,292418.891096298,1,8,8,1,0,14,10,59425939,69294697,16012980,115213056,1111110,2001041,0,4101160,0,0,0,31911519,20301109,0,0,3061030,41400319,-1170060,3141170,10510409,0,10011709,2000080,4011191,0,0,0,0,0,0,10001709,0,0,21911319,0,21800109,0,0,40800119,30701509
11,192,996.463149902411,0,0,292420.585203623,292421.632267796,1,8,8,0,0,3,20,100335055,124006549,169445835,140897627,0,0,-2100190,11110909,0,11801409,31700709,32011219,11610619,3110040,41611819,2171081,3190171,10910509,20601909,2110011,40301009,0,0,3100151,31301309,20510709,22010619,0,21801319,40211009,30510719,0,4011141,21901009,30011509,30101409,0,3160131,30301319,21411109
11,193,732.777980214451,1,0,292433.326564522,292434.373580189,1,8,9,0,1,35,5,35241761,105394327,6272391,4081150,0,31110509,0,2071081,0,2060171,0,0,0,20811409,40810709,1160180,11001419,0,1100091,30510519,0,0,1030160,0,4061041,0,0,1181190,0,0,0,0,0,0,0,0,0,0,-4081150,0
11,194,469.874281261582,0,1,292436.2794965,292437.326556438,1,8,9,1,1,14,10,59425939,69294697,16012980,115213056,1111110,2001041,0,4101160,0,0,0,31911519,20301109,0,0,3061030,41400319,-1170060,3141170,10510409,0,10011709,2000080,4011191,0,0,0,0,0,0,10001709,0,0,21911319,0,21800109,0,0,40800119,30701509
11,195,968.757124559488,1,0,292438.820696177,292439.867768048,1,8,9,1,1,1,20,90266988,133005877,104306555,188395233,-4070160,10401119,10501909,0,1070091,20001309,41101219,0,3121181,3160050,40100619,0,40311619,11611919,0,3191050,30510419,4120201,10301319,10010919,0,41501919,0,1071170,10110209,0,31311019,0,40111219,10701419,30800619,1160130,40110609,31800809,12000009,21710419
11,196,963.351887650788,0,0,292441.903085522,292442.950142765,1,8,9,0,0,36,10,67493690,79137707,52841919,78262899,0,4060091,0,0,1121171,0,40702009,0,21610419,0,0,11311719,31601409,20501819,3031001,11610709,0,1081050,1130201,0,0,0,0,0,0,21101409,30610309,2190190,31610219,0,41300119,0,0,0,1111180,-2051191
11,197,661.526710784528,0,0,292445.114888348,292446.161955985,1,8,9,1,0,12,0,2120211,7472252,7271021,2121070,0,1060050,0,0,0,0,0,0,1060161,0,0,-1161100,0,0,0,0,4160011,2151141,0,4161021,3110000,0,0,0,0,0,0,0,0,0,0,0,2121070,0,0,0
11,198,501.522306818515,1,0,292447.926674005,292448.973749341,1,8,9,1,1,29,5,35193100,15641349,44053190,76632850,0,32001009,0,1191011,0,0,2001080,0,0,0,0,10311319,4180010,0,0,0,0,1150020,0,0,1050000,0,2201181,0,0,40802009,0,30811409,-1090131,0,0,4031201,0,0,0,40700109
11,199,591.74060280202,1,1,292450.67965033,292451.726722972,1,8,9,1,0,19,0,8243322,0,5200172,8273361,1021150,0,0,0,3051071,4171101,0,0,0,0,0,0,0,0,0,0,0,0,-3010121,0,0,2190051,0,0,0,0,0,0,0,2091031,2171150,0,4011180,0,0,0
11,200,800.682014029007,1,0,292453.338505241,292454.385572493,1,8,9,1,1,30,5,2200031,83201749,44331899,52172069,2200031,0,0,0,0,0,0,0,0,2020141,21210319,0,2080011,11811109,4070150,0,42010019,0,0,0,0,0,3020090,41311809,0,0,0,0,4201100,-3130010,40700909,0,4140050,0,0,0
11,201,639.807598316111,1,0,292456.397361152,292457.44442648,1,8,9,0,1,9,0,4051131,1050190,7482452,4212211,0,0,0,0,0,0,0,0,-4051131,0,1050190,0,0,0,0,0,0,0,0,0,0,2171191,3160201,0,0,0,2151060,0,1021070,0,0,0,0,1180090,0,2011051
11,202,1361.62787856301,0,0,292459.232692176,292460.279748649,1,8,9,1,0,6,20,88553148,199455444,217909024,83564690,3020090,0,30101119,0,21110609,-3091180,30200119,0,1030031,2131031,30500819,32010019,0,11700019,20501309,31001609,40800019,30810619,30511609,0,41000709,1161041,40310109,10010919,21701909,41511409,31701319,0,21201019,2001171,41910909,4111181,4040201,0,0,10300209
11,203,619.558266771492,1,0,292462.691544854,292463.738609796,1,8,9,1,1,23,20,46963247,84768147,167470083,136257147,1200050,0,0,0,3151050,10900619,0,10410819,21300709,2021051,11211119,4020071,12010809,0,3101150,21100619,20801519,10501809,30501709,0,11101509,21601509,-1140110,20812009,40900809,30100419,11312009,30000919,0,20711519,30401509,0,31610609,1081061,2041111,20410419
11,204,928.589527902659,0,0,292465.491580348,292466.538648369,1,8,9,0,0,24,10,83122278,15830399,79604758,63552948,4120030,0,4060040,2010061,40910109,10111119,21910919,0,0,0,0,4120090,0,11710309,0,0,0,0,0,21900109,0,41711509,1140061,-3171190,0,1180170,10501719,1140201,20600219,21410609,0,0,0,0,20401919,0
11,205,440.172233327758,1,0,292468.632787878,292469.67985436,1,8,9,0,1,10,5,29943830,61823690,31600109,35021629,21601619,0,0,3111010,4200111,0,0,0,1031090,-1060191,0,0,41510119,3001161,3100180,11012019,0,2140020,0,0,31600109,0,0,0,0,0,0,31000519,0,0,0,0,4021110,0,0,0
11,206,599.765883933287,0,0,292471.315205864,292472.362236929,1,8,9,0,0,28,5,84302748,9272211,22690310,29623801,0,0,0,21000019,30711609,30400019,0,2191101,0,4141000,0,0,0,0,2081091,3050120,0,0,0,0,0,0,0,20500109,0,1070100,1120101,-4081071,0,0,0,4031111,21511619,0,0,0
11,207,592.425448354334,0,0,292474.138725516,292475.185797387,1,8,9,0,0,22,0,1091130,6281170,6271172,8433350,0,0,0,0,0,0,0,1091130,0,0,0,0,0,0,4150030,2131140,0,0,0,0,0,-4160001,0,0,0,2111171,0,1181110,0,0,3091140,0,0,0,4161100,0
11,208,691.706110315863,0,0,292476.868171488,292477.915261837,1,8,9,0,0,26,0,4020250,6161112,7211111,6002271,0,3010070,0,0,0,0,0,1010180,0,0,0,4141061,0,0,2020051,0,0,0,0,0,0,0,0,0,0,-4080111,3131000,0,0,0,0,3001100,0,0,3001171,0
11,209,640.165996970609,1,0,292479.69173695,292480.738798812,1,8,9,1,1,4,5,74602599,28922941,5100361,53222728,0,0,41711519,-2090071,0,30801009,0,0,0,0,0,20610619,3131020,0,2020150,0,2110021,1051131,4040161,0,0,0,0,1060200,0,0,0,0,0,0,2100000,0,40111609,0,0,11011119
11,210,1273.8344516838,0,0,292482.432941554,292483.480004187,1,8,9,0,0,5,20,120728597,151187254,134167155,145924267,30611219,4030120,11512019,31610809,-4131161,0,4001080,30801109,4031080,11400719,10502019,31501019,41500809,4170051,30700619,0,10410109,11001909,20301109,4041010,21901119,31312019,3000070,0,11800919,41810909,0,41711009,0,30600209,0,0,2100021,30701419,40811609,0
11,211,609.878423449118,0,0,292485.821209715,292486.868272732,1,8,9,0,0,20,20,103288249,209148402,79744058,110335245,21712009,3161131,2120171,2080091,21601019,31112009,0,0,21501819,0,31901619,31610009,30801909,21800819,20500609,20811319,30210309,21511809,0,-2060070,11800509,1180051,40800609,0,2041120,1051190,20810509,2120180,11400609,12011409,31301319,0,11500919,0,0,42000809
11,212,939.194817503449,1,0,292488.550648373,292489.597715624,1,8,9,1,1,11,10,147245704,86452410,34731541,20270400,0,21701819,0,31010519,40910509,11600219,31710919,10311719,0,0,-2180041,0,41700809,1070051,0,41501509,0,0,0,0,3081061,1050161,0,30600319,0,0,0,2180101,0,0,3070200,0,3000070,11000019,0,1020010
11,213,896.315940772183,0,0,292491.703622619,292492.750694106,1,8,9,1,0,13,10,36075639,8543362,128215977,68007027,0,0,0,0,3041010,0,1121011,10601809,21311809,0,1101040,1080150,-3181111,3181061,0,0,0,0,0,30200519,3191021,21712019,41510409,0,31602009,0,0,11401619,20011409,0,4171181,21311209,0,0,11111609,0
11,214,701.154977024999,1,0,292494.809546938,292495.856611495,1,8,9,0,1,32,20,128016410,123896248,171555364,200538624,1150031,11000609,0,40711019,4071141,31400819,4171071,4201001,31310719,0,31900609,0,31511119,10911019,4001121,4061171,0,41511209,20301209,0,31301409,31610619,4120190,41011409,22010419,0,21200109,40301209,21510219,40812019,11301709,-4110040,41501609,41001819,0,0
11,215,1135.03754709382,0,0,292497.597812635,292498.644872957,1,8,9,0,0,3,10,103533818,35862369,80935578,32653878,0,1200150,-4161091,41700519,3051030,0,0,31810209,21610819,0,0,3170060,0,0,2081100,30611209,0,0,40900719,4101190,0,3021031,0,0,21011419,0,11901219,0,10311709,1130041,10510109,0,0,10702019,0,0
11,216,496.902005339507,1,0,292500.903724172,292501.950791809,1,8,9,1,1,16,0,4031010,13651092,5141150,1120201,0,0,0,0,0,4031010,0,0,0,4200010,0,2150010,0,0,0,-3100041,4201031,0,2071140,0,0,3070010,0,0,0,0,0,0,0,0,0,1120201,0,0,0,0
11,217,917.247423145454,1,0,292521.739243827,292522.786314929,1,8,10,0,1,26,20,139558244,122865707,129496266,108024997,3140070,11601809,31500909,11011609,20601509,21301319,0,40401019,0,11610219,3011011,1110021,21711719,41910709,0,0,11900119,31611909,3000111,0,40800509,11911419,11100709,1060180,30011919,-1011010,30600409,40112019,0,0,20311119,2160030,0,4121191,20910319,20410319
11,218,856.129866093397,0,1,292524.727512142,292525.774640987,1,8,10,0,1,3,10,59301051,79546039,47804178,44994349,0,0,-2180141,1120111,0,4200181,40000409,0,11800209,1111181,20600819,0,4121111,0,0,31912009,21800919,0,11911809,0,20300119,2130101,0,0,11311019,2151130,0,0,1171011,21911419,0,0,0,0,21911919,0
11,219,890.602735220455,1,0,292527.704021439,292528.751088306,1,8,10,0,1,9,20,144277997,121967715,86503358,148250736,30110919,4191001,11310419,31001919,11200409,20110409,30211719,2090181,-4051021,41800909,10911509,31610419,11510819,20101909,4021140,2011010,0,0,40701809,31901009,0,0,0,0,0,11810509,2090031,3080141,0,30311619,21012019,1041001,20401419,31701809,10600809,30101919
11,220,482.616489112843,0,0,292530.715813178,292531.762884665,1,8,10,1,0,14,10,59425939,69294697,16012980,115213056,1111110,2001041,0,4101160,0,0,0,31911519,20301109,0,0,3061030,41400319,-1170060,3141170,10510409,0,10011709,2000080,4011191,0,0,0,0,0,0,10001709,0,0,21911319,0,21800109,0,0,40800119,30701509
11,221,868.008221499622,0,0,292533.339376408,292534.38643442,1,8,10,0,0,28,20,128458765,140237296,152486605,125224859,31902019,20600519,0,31912019,2031161,22001519,10001519,10010009,0,2060031,11011719,1041000,0,21610409,41911409,0,41201119,21401609,41510409,12001819,0,21400919,20101219,4131190,10310719,41910219,1120111,-4141190,4051051,0,0,4021061,41410619,40200119,0,31400819
11,222,534.02648557676,1,0,292536.339409514,292537.386527966,1,8,10,1,1,16,0,4031010,13651092,5141150,1120201,0,0,0,0,0,4031010,0,0,0,4200010,0,2150010,0,0,0,-3100041,4201031,0,2071140,0,0,3070010,0,0,0,0,0,0,0,0,0,1120201,0,0,0,0
11,223,872.131153359078,0,0,292539.104141393,292540.151207875,1,8,10,0,0,36,0,1171091,7271231,3110191,4221290,0,0,0,0,0,0,1171091,0,0,3100100,0,0,0,0,0,1131080,3040051,0,0,0,0,0,2020000,0,0,0,1090191,0,0,0,0,3161160,0,0,0,-1060130
11,224,1420.95652205171,0,0,292542.139508911,292543.186537282,1,8,10,1,0,6,20,88553148,199455444,217909024,83564690,3020090,0,30101119,0,21110609,-3091180,30200119,0,1030031,2131031,30500819,32010019,0,11700019,20501309,31001609,40800019,30810619,30511609,0,41000709,1161041,40310109,10010919,21701909,41511409,31701319,0,21201019,2001171,41910909,4111181,4040201,0,0,10300209
11,225,1121.4056944591,1,0,292545.774812295,292546.821869538,1,8,10,1,1,4,5,74602599,28922941,5100361,53222728,0,0,41711519,-2090071,0,30801009,0,0,0,0,0,20610619,3131020,0,2020150,0,2110021,1051131,4040161,0,0,0,0,1060200,0,0,0,0,0,0,2100000,0,40111609,0,0,11011119
11,226,588.683627778664,1,0,292549.12778608,292550.174846018,1,8,10,0,1,32,0,7161172,5091241,1081071,7302321,4121101,0,0,0,0,0,3040071,0,0,0,3030081,2061160,0,0,0,0,0,0,0,0,0,0,0,0,1081071,0,0,0,0,0,0,-1060191,3111000,0,0,3131130
11,227,1075.78243111493,1,0,292551.892517959,292552.939577126,1,8,10,0,1,5,5,63941839,96093662,21151940,3151100,30010319,0,0,0,-3131001,0,0,30800519,0,3090041,4080141,3160160,0,3081031,1070171,41511209,40100909,0,0,0,0,0,0,0,20011909,1140031,0,0,0,0,0,0,3151100,0,0,0
11,228,834.608623583335,0,0,292555.033723179,292556.080791201,1,8,10,1,0,12,0,2120211,7472252,7271021,2121070,0,1060050,0,0,0,0,0,0,1060161,0,0,-1161100,0,0,0,0,4160011,2151141,0,4161021,3110000,0,0,0,0,0,0,0,0,0,0,0,2121070,0,0,0
11,229,833.101116411854,0,0,292558.069054126,292559.116117913,1,8,10,0,0,10,0,3131321,3040191,10162311,5271171,0,0,0,0,0,2071140,1060181,0,0,-3040191,0,0,0,0,0,0,0,0,3050130,0,0,0,3091081,0,0,4021100,0,0,0,1101001,0,4170170,0,0,0,0
11,230,647.564946615603,0,0,292561.139674059,292562.186740926,1,8,10,1,0,13,10,36075639,8543362,128215977,68007027,0,0,0,0,3041010,0,1121011,10601809,21311809,0,1101040,1080150,-3181111,3181061,0,0,0,0,0,30200519,3191021,21712019,41510409,0,31602009,0,0,11401619,20011409,0,4171181,21311209,0,0,11111609,0
11,231,464.651515881997,0,0,292564.01029638,292565.057396738,1,8,10,1,0,19,0,8243322,0,5200172,8273361,1021150,0,0,0,3051071,4171101,0,0,0,0,0,0,0,0,0,0,0,0,-3010121,0,0,2190051,0,0,0,0,0,0,0,2091031,2171150,0,4011180,0,0,0
11,232,1037.75444754865,1,0,292566.704442586,292567.751507143,1,8,10,1,1,23,20,46963247,84768147,167470083,136257147,1200050,0,0,0,3151050,10900619,0,10410819,21300709,2021051,11211119,4020071,12010809,0,3101150,21100619,20801519,10501809,30501709,0,11101509,21601509,-1140110,20812009,40900809,30100419,11312009,30000919,0,20711519,30401509,0,31610609,1081061,2041111,20410419
11,233,748.735381988809,1,0,292569.869225511,292570.916249262,1,8,10,0,1,35,5,34841029,76113908,37004461,12302252,30701019,0,0,0,0,4140010,0,0,0,0,0,0,0,20711309,2090161,31701519,0,21610919,1081011,0,4201180,0,0,0,0,30601209,1121061,4101001,0,0,0,4151061,0,0,-4050190,0
11,234,467.178014689125,0,0,292572.83392767,292573.880984528,1,8,10,0,0,20,10,77725207,87043058,24862141,116805348,10901409,20701619,0,0,2101150,1090110,2020100,40910819,0,11401219,0,41911319,3120111,0,30610409,0,0,0,0,-2060181,0,0,0,0,0,2000141,20801819,41911709,0,1091091,0,0,40902019,0,1200110,31700419
11,235,1054.22769702272,1,0,292575.386891754,292576.433947072,1,8,10,1,1,11,10,147245704,86452410,34731541,20270400,0,21701819,0,31010519,40910509,11600219,31710919,10311719,0,0,-2180041,0,41700809,1070051,0,41501509,0,0,0,0,3081061,1050161,0,30600319,0,0,0,2180101,0,0,3070200,0,3000070,11000019,0,1020010
11,236,1027.68887329148,0,0,292578.610450518,292579.65751854,1,8,10,0,0,24,5,68281739,0,65964498,44733271,41310009,0,2141111,0,0,0,4020110,0,20810509,0,0,0,0,0,0,0,0,0,1111000,4020030,0,4181010,0,-4041040,30711209,21900209,0,2031201,2001151,0,0,0,0,0,0,40700919
11,237,439.619814394973,1,0,292581.869320211,292582.916378224,1,8,10,0,1,22,10,105795348,86744627,63942239,68153710,0,1040090,41901909,0,31411419,0,30411809,1030121,0,0,30801009,4030090,0,30011509,0,0,0,21902019,31600309,0,21910609,-4040010,2201190,0,4190121,0,0,0,4140191,0,31610909,0,1101191,0,0,31301419
11,238,903.71989493724,0,0,292584.5164034,292585.563466803,1,8,10,1,0,1,20,90266988,133005877,104306555,188395233,-4070160,10401119,10501909,0,1070091,20001309,41101219,0,3121181,3160050,40100619,0,40311619,11611919,0,3191050,30510419,4120201,10301319,10010919,0,41501919,0,1071170,10110209,0,31311019,0,40111219,10701419,30800619,1160130,40110609,31800809,12000009,21710419
11,239,834.92852607742,0,0,292587.645854223,292588.69291493,1,8,10,1,0,30,5,2200031,83201749,44331899,52172069,2200031,0,0,0,0,0,0,0,0,2020141,21210319,0,2080011,11811109,4070150,0,42010019,0,0,0,0,0,3020090,41311809,0,0,0,0,4201100,-3130010,40700909,0,4140050,0,0,0
11,240,507.883401762228,0,0,292590.540018061,292591.587119189,1,8,10,1,0,29,5,35193100,15641349,44053190,76632850,0,32001009,0,1191011,0,0,2001080,0,0,0,0,10311319,4180010,0,0,0,0,1150020,0,0,1050000,0,2201181,0,0,40802009,0,30811409,-1090131,0,0,4031201,0,0,0,40700109
11,241,766.955584229436,1,0,292596.457702628,292597.504766415,1,8,11,1,1,11,10,147245704,86452410,34731541,20270400,0,21701819,0,31010519,40910509,11600219,31710919,10311719,0,0,-2180041,0,41700809,1070051,0,41501509,0,0,0,0,3081061,1050161,0,30600319,0,0,0,2180101,0,0,3070200,0,3000070,11000019,0,1020010
11,242,394.301825028379,0,0,292599.375386041,292600.422449443,1,8,11,1,0,16,0,4031010,13651092,5141150,1120201,0,0,0,0,0,4031010,0,0,0,4200010,0,2150010,0,0,0,-3100041,4201031,0,2071140,0,0,3070010,0,0,0,0,0,0,0,0,0,1120201,0,0,0,0
11,243,1238.76258329256,1,0,292601.904915626,292602.951897032,1,8,11,0,1,32,10,130447506,59304000,6152200,70302479,0,0,21901519,0,4031141,11010709,41801209,20501619,31201309,30500609,0,2200051,2091191,10810219,0,2091021,11610909,0,0,0,0,4111160,0,0,2041040,0,0,41211209,0,0,0,-3100081,21900019,0,0,4091170
11,244,882.647901889868,0,0,292605.246051477,292606.29310179,1,8,11,1,0,30,5,2200031,83201749,44331899,52172069,2200031,0,0,0,0,0,0,0,0,2020141,21210319,0,2080011,11811109,4070150,0,42010019,0,0,0,0,0,3020090,41311809,0,0,0,0,4201100,-3130010,40700909,0,4140050,0,0,0
11,245,482.678852742538,1,0,292608.293128353,292609.340197914,1,8,11,0,1,24,5,10411322,80081978,8140222,54983538,0,0,4121041,0,0,0,2130151,4160130,0,0,4031010,0,0,0,2050050,32000709,42000209,0,0,0,0,0,0,-4040091,0,4100131,0,30512009,0,0,10310319,0,3160001,0,11001209,0
11,246,930.856948019937,1,0,292610.857872242,292611.904927945,1,8,11,0,1,10,0,2140111,9330282,1081030,6061222,1040110,1100001,0,0,0,0,0,0,0,-2120191,4050090,0,0,3160001,0,0,0,0,0,0,0,0,1081030,0,0,0,0,2040061,0,0,4021161,0,0,0,0,0
11,247,776.598856318742,1,0,292613.893202419,292614.940249268,1,8,11,1,1,23,20,46963247,84768147,167470083,136257147,1200050,0,0,0,3151050,10900619,0,10410819,21300709,2021051,11211119,4020071,12010809,0,3101150,21100619,20801519,10501809,30501709,0,11101509,21601509,-1140110,20812009,40900809,30100419,11312009,30000919,0,20711519,30401509,0,31610609,1081061,2041111,20410419
11,248,498.407202714588,1,0,292616.799109491,292617.846175588,1,8,11,1,1,29,5,35193100,15641349,44053190,76632850,0,32001009,0,1191011,0,0,2001080,0,0,0,0,10311319,4180010,0,0,0,0,1150020,0,0,1050000,0,2201181,0,0,40802009,0,30811409,-1090131,0,0,4031201,0,0,0,40700109
11,249,1140.02625615103,0,0,292619.434428273,292620.48149591,1,8,11,0,0,9,20,152186108,186259404,103026577,166965605,41610819,42001519,0,0,1051091,20411519,3030111,40900019,-3181030,40210419,30201109,0,30511519,0,21902009,31111419,31311909,1011020,31601609,1040110,10812019,3161140,0,3110171,11400019,41901509,0,0,41011119,2130021,20410209,0,31501419,20300709,11001309,40610819
11,250,1527.21421641763,0,0,292622.681521241,292623.728590032,1,8,11,0,0,5,5,2100040,21294051,45022561,96294057,0,0,0,0,-2100040,0,0,0,0,0,0,0,2181101,3141181,0,0,4170050,11801719,1040000,0,0,0,2171001,0,0,40800509,1011051,41710419,0,2071110,21210819,0,0,0,0,31301709
11,251,944.031082035508,0,0,292626.281564125,292627.328664869,1,8,11,0,0,26,5,107632208,25283552,38901330,0,32010019,41810819,0,0,0,30710309,3101061,0,0,0,1090200,3040011,4041201,0,4011131,0,2200200,10900809,0,0,0,0,4071130,0,31800119,-3030081,0,0,0,0,0,0,0,0,0,0
11,252,414.505346212536,0,0,292629.36395193,292630.411010713,1,8,11,0,0,22,10,43133070,32272059,125473647,88986317,0,0,2131051,0,41002019,0,0,0,0,0,3171081,3150020,0,0,10800409,11000419,4150130,0,0,30911209,31400119,-1141201,0,0,0,41010209,21010909,2021150,0,30510409,0,2061110,30911619,0,20401009,3081020
11,253,706.376202579122,0,0,292631.963983266,292633.011043974,1,8,11,1,0,13,10,36075639,8543362,128215977,68007027,0,0,0,0,3041010,0,1121011,10601809,21311809,0,1101040,1080150,-3181111,3181061,0,0,0,0,0,30200519,3191021,21712019,41510409,0,31602009,0,0,11401619,20011409,0,4171181,21311209,0,0,11111609,0
11,254,1000.87749725208,1,0,292634.881724038,292635.928719302,1,8,11,1,1,12,0,2120211,7472252,7271021,2121070,0,1060050,0,0,0,0,0,0,1060161,0,0,-1161100,0,0,0,0,4160011,2151141,0,4161021,3110000,0,0,0,0,0,0,0,0,0,0,0,2121070,0,0,0
11,255,966.074716590811,0,0,292637.952281223,292638.99934501,1,8,11,1,0,6,20,88553148,199455444,217909024,83564690,3020090,0,30101119,0,21110609,-3091180,30200119,0,1030031,2131031,30500819,32010019,0,11700019,20501309,31001609,40800019,30810619,30511609,0,41000709,1161041,40310109,10010919,21701909,41511409,31701319,0,21201019,2001171,41910909,4111181,4040201,0,0,10300209
11,256,566.899456898682,0,0,292640.987647971,292642.034667488,1,8,11,0,0,28,20,86954698,254938383,200567654,123215539,30010209,3061090,0,40601209,1161051,1121120,0,0,11000019,40101419,41901009,40001909,20401409,40810919,0,0,41110309,30611409,40901809,11200419,0,10400219,30301619,41101809,20911409,41610219,4140151,-1100041,1000040,0,4191110,40800119,40801819,0,31311309,4011101
11,257,1137.44239817606,0,0,292643.66998781,292644.717052752,1,8,11,0,0,3,0,9492242,4100160,5210321,8371170,0,0,-2201151,0,3101001,0,0,4190090,0,4100160,0,0,0,0,0,0,0,0,1100140,0,0,0,0,0,0,4110181,0,0,0,0,4170020,0,0,0,0,4201150
11,258,1438.94074321724,1,0,292647.011199113,292648.058264825,1,8,11,1,1,19,0,8243322,0,5200172,8273361,1021150,0,0,0,3051071,4171101,0,0,0,0,0,0,0,0,0,0,0,0,-3010121,0,0,2190051,0,0,0,0,0,0,0,2091031,2171150,0,4011180,0,0,0
11,259,954.712208826095,1,0,292650.599478746,292651.646538298,1,8,11,0,1,36,10,139415088,15302959,113122137,63344639,0,31810709,20401819,41611219,2181201,0,0,2000021,41410119,0,2081140,0,0,0,0,0,11111809,2110010,41710109,0,40812019,0,0,0,0,30600009,0,4061041,0,0,0,3050170,20400509,2000080,31711709,-2121130
11,260,525.606619426981,0,1,292653.693632113,292654.740691665,1,8,11,0,1,20,20,117022136,187024393,109319796,122446430,10710009,41200809,0,0,0,4090090,20210509,0,40810719,40710909,30910119,0,21200709,10000809,0,31200819,11801009,41200019,0,-1020030,2201190,10111319,10111509,41802009,20400819,21611719,2061201,30600209,31401619,1100031,31711309,3041011,1121051,3170191,0,20301009
11,261,940.558349189814,1,0,292656.340709143,292657.387781014,1,8,11,1,1,1,20,90266988,133005877,104306555,188395233,-4070160,10401119,10501909,0,1070091,20001309,41101219,0,3121181,3160050,40100619,0,40311619,11611919,0,3191050,30510419,4120201,10301319,10010919,0,41501919,0,1071170,10110209,0,31311019,0,40111219,10701419,30800619,1160130,40110609,31800809,12000009,21710419
11,262,619.883173843846,1,0,292659.470164199,292660.517219133,1,8,11,0,1,35,0,5170231,2170181,4433210,2292131,0,0,0,0,0,4010111,0,0,1160120,0,0,0,0,0,0,2170181,0,0,0,2101020,0,0,0,1171050,0,0,1161140,0,1141001,0,0,0,0,0,-1151130,0
11,263,1273.16731429892,0,0,292662.18783845,292663.234898773,1,8,11,1,0,4,5,74602599,28922941,5100361,53222728,0,0,41711519,-2090071,0,30801009,0,0,0,0,0,20610619,3131020,0,2020150,0,2110021,1051131,4040161,0,0,0,0,1060200,0,0,0,0,0,0,2100000,0,40111609,0,0,11011119
11,264,569.974525133148,0,0,292665.623173478,292666.670275761,1,8,11,1,0,14,10,59425939,69294697,16012980,115213056,1111110,2001041,0,4101160,0,0,0,31911519,20301109,0,0,3061030,41400319,-1170060,3141170,10510409,0,10011709,2000080,4011191,0,0,0,0,0,0,10001709,0,0,21911319,0,21800109,0,0,40800119,30701509
11,265,671.491040266119,1,0,292671.811466353,292672.85853322,1,8,12,1,1,30,5,2200031,83201749,44331899,52172069,2200031,0,0,0,0,0,0,0,0,2020141,21210319,0,2080011,11811109,4070150,0,42010019,0,0,0,0,0,3020090,41311809,0,0,0,0,4201100,-3130010,40700909,0,4140050,0,0,0
11,266,611.099519592244,1,0,292674.740911093,292675.787991434,1,8,12,1,1,11,10,147245704,86452410,34731541,20270400,0,21701819,0,31010519,40910509,11600219,31710919,10311719,0,0,-2180041,0,41700809,1070051,0,41501509,0,0,0,0,3081061,1050161,0,30600319,0,0,0,2180101,0,0,3070200,0,3000070,11000019,0,1020010
11,267,919.784700847231,0,0,292677.482160353,292678.529194113,1,8,12,1,0,4,5,74602599,28922941,5100361,53222728,0,0,41711519,-2090071,0,30801009,0,0,0,0,0,20610619,3131020,0,2020150,0,2110021,1051131,4040161,0,0,0,0,1060200,0,0,0,0,0,0,2100000,0,40111609,0,0,11011119
11,268,1142.44419592433,1,0,292680.517460888,292681.564516976,1,8,12,0,1,35,5,36762031,25462630,35863639,53562702,4051051,2100161,0,0,30610819,0,0,0,0,0,4161121,21301509,0,0,0,0,0,0,0,0,0,20601619,11100909,0,4161111,0,0,4150121,0,0,0,0,1131081,2080011,-4200080,42001409
11,269,1035.52359872265,1,0,292683.823370886,292684.870432748,1,8,12,0,1,3,0,2160150,2090181,5032202,11372262,0,0,-2160150,0,0,0,0,0,0,0,0,0,0,0,0,2090181,0,0,0,0,0,2001011,0,0,0,3031191,0,2130170,0,1020061,0,4111020,4111011,0,0,0
11,270,803.812516562175,0,1,292687.094046947,292688.141055299,1,8,12,0,1,26,10,65972068,99084519,8241260,91025307,0,0,3040141,31210809,21311109,0,10410009,0,0,3161041,0,0,30211309,0,41011419,21400609,2100051,1200090,0,0,0,0,0,0,0,-4070090,4171170,0,11800719,4071201,10801509,0,0,20401619,41900109,2050150
11,271,736.844707804266,0,0,292690.035200659,292691.082261752,1,8,12,0,0,20,0,7202272,9152451,6302140,2061131,0,0,0,3061071,4141201,0,0,0,0,0,0,0,4081081,0,2051190,0,0,3020180,0,-4191120,0,2111020,0,0,0,0,0,0,0,0,0,0,0,0,0,2061131
11,272,666.585867700633,1,0,292692.835226528,292693.88229301,1,8,12,1,1,29,5,35193100,15641349,44053190,76632850,0,32001009,0,1191011,0,0,2001080,0,0,0,0,10311319,4180010,0,0,0,0,1150020,0,0,1050000,0,2201181,0,0,40802009,0,30811409,-1090131,0,0,4031201,0,0,0,40700109
11,273,951.06624357868,0,0,292695.717614411,292696.764682432,1,8,12,0,0,32,20,90207647,57426398,154015704,140907474,10700519,1151141,11801919,0,11400409,2191030,41100819,10800709,1061101,20711219,0,2091150,0,11311819,21202009,1090121,1020080,0,21401519,0,20900419,20100419,30001209,40011319,0,0,21600819,21801409,3181170,21000709,12001309,-1000140,40111309,0,31310819,10500609
11,274,1708.06926093064,0,0,292698.870592507,292699.917656679,1,8,12,1,0,23,20,46963247,84768147,167470083,136257147,1200050,0,0,0,3151050,10900619,0,10410819,21300709,2021051,11211119,4020071,12010809,0,3101150,21100619,20801519,10501809,30501709,0,11101509,21601509,-1140110,20812009,40900809,30100419,11312009,30000919,0,20711519,30401509,0,31610609,1081061,2041111,20410419
11,275,834.610548336059,1,0,292702.788278229,292703.835347406,1,8,12,0,1,24,10,168375446,86495957,58413858,12301264,40611519,0,21700209,0,30600619,0,3141071,41511909,30810119,31101609,0,0,10501409,4191020,0,0,40701919,0,0,10401709,0,4100040,40901019,-3011090,0,0,0,0,3050051,2010001,4200071,0,3041141,0,0,0
11,276,574.353071046062,1,0,292705.788313261,292706.835375893,1,8,12,1,1,14,10,59425939,69294697,16012980,115213056,1111110,2001041,0,4101160,0,0,0,31911519,20301109,0,0,3061030,41400319,-1170060,3141170,10510409,0,10011709,2000080,4011191,0,0,0,0,0,0,10001709,0,0,21911319,0,21800109,0,0,40800119,30701509
11,277,821.667005948257,0,0,292708.600108542,292709.647182723,1,8,12,1,0,1,20,90266988,133005877,104306555,188395233,-4070160,10401119,10501909,0,1070091,20001309,41101219,0,3121181,3160050,40100619,0,40311619,11611919,0,3191050,30510419,4120201,10301319,10010919,0,41501919,0,1071170,10110209,0,31311019,0,40111219,10701419,30800619,1160130,40110609,31800809,12000009,21710419
11,278,1461.80126490071,0,0,292711.670730015,292712.717804196,1,8,12,0,0,5,20,196419337,148426892,97815396,93635159,41401719,41901409,30210909,31812009,-3081040,0,4181051,40710009,3121191,10410009,31802009,21000109,30000409,0,11100219,11901509,10300809,21911819,41610509,0,0,11301409,0,3090150,0,20111809,21701519,4070151,20301319,4010040,2021121,1020100,0,20911809,41300619,0
11,279,1036.44789004466,0,0,292715.341357417,292716.388425439,1,8,12,1,0,12,0,2120211,7472252,7271021,2121070,0,1060050,0,0,0,0,0,0,1060161,0,0,-1161100,0,0,0,0,4160011,2151141,0,4161021,3110000,0,0,0,0,0,0,0,0,0,0,0,2121070,0,0,0
11,280,651.769105345011,1,0,292718.611983818,292719.659043755,1,8,12,0,1,9,10,105473897,51521868,25941729,69873980,30500509,11000109,0,0,0,20911919,41901209,0,-1160151,0,0,3140120,0,3080080,30600209,3201050,11500409,0,0,0,0,0,0,11001019,0,11910709,3030001,30911209,30810509,0,4110131,3021070,1021061,0,0,0
11,281,943.16838454688,1,0,292721.435540426,292722.482606908,1,8,12,0,1,28,5,13912859,18202461,106013267,5152281,0,0,2001150,0,0,11911709,0,0,0,0,1091060,10801119,0,0,0,4200111,2110171,0,20601219,0,0,0,0,41910209,0,41410819,2091020,-1101100,0,1050000,0,0,0,3001181,0,0
11,282,1047.32611688087,0,0,292724.447342559,292725.494408656,1,8,12,0,0,36,0,7101241,3261301,4292120,4180282,0,0,0,0,3100171,0,0,0,4001070,0,1160140,0,0,2101161,0,0,0,0,0,0,0,3131090,0,1161030,0,0,0,2010101,0,0,0,0,0,0,0,-2170181
11,283,1656.59959544428,0,0,292727.56502551,292728.612086602,1,8,12,0,0,10,5,35501959,2150110,42443321,74792568,0,0,0,0,0,1090050,4010200,0,30401709,-2150110,0,0,0,0,0,0,0,0,0,2071111,0,4070141,0,3130000,31111019,0,2061050,0,10110919,2170121,0,0,0,31100819,0,31410709
11,284,804.396117397118,1,0,292731.365067547,292732.41213018,1,8,12,1,1,13,10,36075639,8543362,128215977,68007027,0,0,0,0,3041010,0,1121011,10601809,21311809,0,1101040,1080150,-3181111,3181061,0,0,0,0,0,30200519,3191021,21712019,41510409,0,31602009,0,0,11401619,20011409,0,4171181,21311209,0,0,11111609,0
11,285,959.148114023265,1,0,292734.400393875,292735.447453428,1,8,12,0,1,22,20,101938888,194409744,98034449,145557113,0,11802019,20501719,0,21502019,4131111,1170031,2130180,40701809,3161140,41301509,40211119,4120010,11202019,21101819,31700409,0,41611719,0,40201709,0,-1190130,41111019,1090011,11300519,3141061,0,11511119,10900109,20111619,0,30212019,31200309,31610519,10011419,0
11,286,1089.01045966195,0,0,292737.49456649,292738.541616034,1,8,12,1,0,6,20,88553148,199455444,217909024,83564690,3020090,0,30101119,0,21110609,-3091180,30200119,0,1030031,2131031,30500819,32010019,0,11700019,20501309,31001609,40800019,30810619,30511609,0,41000709,1161041,40310109,10010919,21701909,41511409,31701319,0,21201019,2001171,41910909,4111181,4040201,0,0,10300209
11,287,557.958353660069,1,0,292740.659281276,292741.706346603,1,8,12,1,1,19,0,8243322,0,5200172,8273361,1021150,0,0,0,3051071,4171101,0,0,0,0,0,0,0,0,0,0,0,0,-3010121,0,0,2190051,0,0,0,0,0,0,0,2091031,2171150,0,4011180,0,0,0
11,288,506.001712579746,0,0,292743.353435567,292744.400499739,1,8,12,1,0,16,0,4031010,13651092,5141150,1120201,0,0,0,0,0,4031010,0,0,0,4200010,0,2150010,0,0,0,-3100041,4201031,0,2071140,0,0,3070010,0,0,0,0,0,0,0,0,0,1120201,0,0,0,0
11,289,499.908935453277,1,0,292751.412335749,292752.459413395,1,8,13,0,1,9,20,121755735,92986289,157137093,134436929,21910709,10901519,30411119,1201080,0,31310919,11710209,11200009,-3110171,0,0,3161091,42001019,3170160,0,3051091,21401919,20201009,0,10501809,40900509,30702009,10801219,0,21110219,31310419,11810909,0,4191131,41411619,2020181,21300219,0,30501809,4000061,31011909
11,290,1193.28329531709,1,0,292753.988837501,292755.035909757,1,8,13,1,1,6,20,88553148,199455444,217909024,83564690,3020090,0,30101119,0,21110609,-3091180,30200119,0,1030031,2131031,30500819,32010019,0,11700019,20501309,31001609,40800019,30810619,30511609,0,41000709,1161041,40310109,10010919,21701909,41511409,31701319,0,21201019,2001171,41910909,4111181,4040201,0,0,10300209
11,291,734.718568390235,1,1,292757.353579927,292758.400645639,1,8,13,1,0,30,5,2200031,83201749,44331899,52172069,2200031,0,0,0,0,0,0,0,0,2020141,21210319,0,2080011,11811109,4070150,0,42010019,0,0,0,0,0,3020090,41311809,0,0,0,0,4201100,-3130010,40700909,0,4140050,0,0,0
11,292,475.868508394342,0,0,292760.224200323,292761.271324549,1,8,13,0,0,10,20,151561355,107845499,127196465,101614357,21001319,3051000,4081141,20801019,31601619,10111919,0,30801719,30111619,-1050001,40301319,1011191,0,2071061,10200209,41710209,11501509,0,0,0,10901209,21802009,11800319,1180191,20000309,41011219,20501209,0,4190000,0,30701519,4021111,11801309,20700409,0,30200009
11,293,663.27905311482,1,0,292762.847760857,292763.894836578,1,8,13,0,1,5,0,7371342,7111201,1180171,5242202,0,0,0,0,-3191201,0,0,0,4180141,3061020,4050181,0,0,0,0,0,0,0,0,0,0,0,0,0,0,1180171,0,0,2061030,0,0,2020161,0,1161011,0,0
11,294,981.681033968925,0,0,292765.718417439,292766.765444655,1,8,13,0,0,35,5,46023129,75053147,0,8323481,2020030,11211219,0,1180130,0,30610609,1001141,0,0,30510019,0,12010509,0,0,0,1021000,31511619,0,0,0,0,0,0,0,0,0,0,0,2031171,1101120,0,0,0,3000180,-2191010,0
11,295,699.815697909798,1,0,292768.87135627,292769.918423906,1,8,13,1,1,19,0,8243322,0,5200172,8273361,1021150,0,0,0,3051071,4171101,0,0,0,0,0,0,0,0,0,0,0,0,-3010121,0,0,2190051,0,0,0,0,0,0,0,2091031,2171150,0,4011180,0,0,0
11,296,972.03583701048,1,0,292771.694920962,292772.741985519,1,8,13,1,1,29,5,35193100,15641349,44053190,76632850,0,32001009,0,1191011,0,0,2001080,0,0,0,0,10311319,4180010,0,0,0,0,1150020,0,0,1050000,0,2201181,0,0,40802009,0,30811409,-1090131,0,0,4031201,0,0,0,40700109
11,297,439.417709829286,0,0,292774.765530886,292775.812604298,1,8,13,0,0,22,10,107306877,25640919,129125226,21202081,0,30400709,30512009,1141181,3050060,12001409,0,30201509,0,0,0,2010120,0,0,3030180,0,0,20600619,41801919,0,21701319,-3010170,21210009,0,41401809,0,0,0,0,0,4031130,0,3160091,3110051,0,10900809
11,298,1309.2400811729,0,0,292777.459684407,292778.50674627,1,8,13,1,0,4,5,74602599,28922941,5100361,53222728,0,0,41711519,-2090071,0,30801009,0,0,0,0,0,20610619,3131020,0,2020150,0,2110021,1051131,4040161,0,0,0,0,1060200,0,0,0,0,0,0,2100000,0,40111609,0,0,11011119
11,299,886.814334313385,0,0,292780.930313426,292781.977378753,1,8,13,1,0,14,10,59425939,69294697,16012980,115213056,1111110,2001041,0,4101160,0,0,0,31911519,20301109,0,0,3061030,41400319,-1170060,3141170,10510409,0,10011709,2000080,4011191,0,0,0,0,0,0,10001709,0,0,21911319,0,21800109,0,0,40800119,30701509
11,300,479.429397266358,1,0,292783.97740724,292785.024469872,1,8,13,1,1,16,0,4031010,13651092,5141150,1120201,0,0,0,0,0,4031010,0,0,0,4200010,0,2150010,0,0,0,-3100041,4201031,0,2071140,0,0,3070010,0,0,0,0,0,0,0,0,0,1120201,0,0,0,0
11,301,675.589334685355,0,0,292786.577426642,292787.624500438,1,8,13,0,0,36,5,52384490,59405239,10701819,43492210,42001009,0,0,4151190,3071141,0,3161150,0,0,0,0,3081160,1181110,0,21910209,1181091,1140050,30911619,0,0,10701819,0,0,0,0,0,0,0,0,0,0,0,0,0,40312019,-3180191
11,302,949.910975759849,1,0,292789.353934861,292790.401039069,1,8,13,0,1,24,0,4281171,6201061,10572292,0,0,0,3091110,0,0,1190061,0,0,0,4041041,0,0,2160020,0,0,0,0,0,1091051,0,0,0,3200140,-2120020,0,0,4161081,0,0,0,0,0,0,0,0,0
11,303,633.49539344199,0,0,292792.436316507,292793.483381449,1,8,13,1,0,1,20,90266988,133005877,104306555,188395233,-4070160,10401119,10501909,0,1070091,20001309,41101219,0,3121181,3160050,40100619,0,40311619,11611919,0,3191050,30510419,4120201,10301319,10010919,0,41501919,0,1071170,10110209,0,31311019,0,40111219,10701419,30800619,1160130,40110609,31800809,12000009,21710419
11,304,482.446721289307,1,0,292795.283414633,292796.33047842,1,8,13,1,1,11,10,147245704,86452410,34731541,20270400,0,21701819,0,31010519,40910509,11600219,31710919,10311719,0,0,-2180041,0,41700809,1070051,0,41501509,0,0,0,0,3081061,1050161,0,30600319,0,0,0,2180101,0,0,3070200,0,3000070,11000019,0,1020010
11,305,616.360396088567,0,0,292797.883436729,292798.930503596,1,8,13,0,0,28,10,20391531,70592808,73411747,52016389,0,0,0,0,0,3191011,10010219,3180111,4010190,0,0,0,0,11610309,40210219,4181161,4091010,10500109,0,0,0,0,21701019,10310319,0,0,41400409,-4181201,4191160,20800109,0,10412019,10310709,2121191,0,0
11,306,810.321436496452,0,0,292800.636406896,292801.683476457,1,8,13,1,0,12,0,2120211,7472252,7271021,2121070,0,1060050,0,0,0,0,0,0,1060161,0,0,-1161100,0,0,0,0,4160011,2151141,0,4161021,3110000,0,0,0,0,0,0,0,0,0,0,0,2121070,0,0,0
11,307,1079.52155690873,1,0,292803.530560725,292804.577619122,1,8,13,1,1,23,20,46963247,84768147,167470083,136257147,1200050,0,0,0,3151050,10900619,0,10410819,21300709,2021051,11211119,4020071,12010809,0,3101150,21100619,20801519,10501809,30501709,0,11101509,21601509,-1140110,20812009,40900809,30100419,11312009,30000919,0,20711519,30401509,0,31610609,1081061,2041111,20410419
11,308,723.133938212413,0,0,292806.836478037,292807.883538744,1,8,13,0,0,20,5,76934170,13022910,70002749,6101241,2050081,0,1131190,41700609,0,0,0,1151171,30901119,11901709,0,0,0,0,1121201,0,0,0,0,-3071160,31410019,4111061,0,0,0,31410509,0,0,0,0,2070150,0,4031091,0,0,0
11,309,600.149689998943,1,0,292809.730628786,292810.777684104,1,8,13,0,1,26,20,68375146,153097835,111641848,184475724,0,0,20901509,4171000,11300709,21000009,0,11001919,0,0,41311619,1141201,30610609,10910009,31801319,4010050,21911109,11401919,3080190,4130111,0,0,41610709,0,20000409,-2110120,40710309,31910009,20501719,4030200,30801409,3000031,30900209,21010019,31011909,11310219
11,310,701.328594528604,1,0,292812.401244639,292813.448308811,1,8,13,1,1,13,10,36075639,8543362,128215977,68007027,0,0,0,0,3041010,0,1121011,10601809,21311809,0,1101040,1080150,-3181111,3181061,0,0,0,0,0,30200519,3191021,21712019,41510409,0,31602009,0,0,11401619,20011409,0,4171181,21311209,0,0,11111609,0
11,311,1065.32535160659,0,0,292815.201267043,292816.248333525,1,8,13,0,0,3,0,8452122,4161111,1161000,5180300,0,0,-4171051,0,0,1160030,0,0,3121041,2131070,0,0,2030041,0,0,0,0,0,0,0,0,0,0,0,1161000,0,0,0,0,1000150,4180150,0,0,0,0,0
11,312,834.30989383487,0,0,292818.342482273,292819.38954914,1,8,13,0,0,32,10,37522739,78463957,53833936,52165020,0,1180120,0,0,0,4140190,0,31101409,1101020,3151200,1191100,21510119,0,0,0,0,21210419,31401119,0,12000709,0,0,0,11411409,0,10110409,20311409,30500909,0,3111021,0,-3151060,0,4201011,11201019,0
11,313,935.477249440737,1,0,292825.519026524,292826.566102245,1,8,14,1,1,29,5,35193100,15641349,44053190,76632850,0,32001009,0,1191011,0,0,2001080,0,0,0,0,10311319,4180010,0,0,0,0,1150020,0,0,1050000,0,2201181,0,0,40802009,0,30811409,-1090131,0,0,4031201,0,0,0,40700109
11,314,714.036540768575,1,0,292828.695541519,292829.742650732,1,8,14,0,1,35,0,9392402,8361391,0,4031171,0,0,2130201,0,4171040,0,3091161,0,0,2140110,3140041,0,0,0,1000100,2081140,0,0,0,0,0,0,0,0,0,0,0,0,0,0,0,0,0,0,-4031171,0
11,315,607.690305390861,1,0,292831.624977405,292832.672043887,1,8,14,0,1,32,5,7191252,80965860,60810738,15651349,0,0,0,0,0,0,0,4111191,3080061,2060000,0,1081161,41500709,30011709,0,3121161,3191120,0,0,0,0,0,0,0,30800219,30010519,0,0,0,0,0,-3100040,0,0,1150090,11401219
11,316,738.927346537821,0,0,292834.354426071,292835.401488704,1,8,14,1,0,12,0,2120211,7472252,7271021,2121070,0,1060050,0,0,0,0,0,0,1060161,0,0,-1161100,0,0,0,0,4160011,2151141,0,4161021,3110000,0,0,0,0,0,0,0,0,0,0,0,2121070,0,0,0
11,317,781.322327326052,0,0,292837.213280135,292838.260334683,1,8,14,1,0,19,0,8243322,0,5200172,8273361,1021150,0,0,0,3051071,4171101,0,0,0,0,0,0,0,0,0,0,0,0,-3010121,0,0,2190051,0,0,0,0,0,0,0,2091031,2171150,0,4011180,0,0,0
11,318,426.750954415184,0,0,292840.095678026,292841.142734884,1,8,14,1,0,14,10,59425939,69294697,16012980,115213056,1111110,2001041,0,4101160,0,0,0,31911519,20301109,0,0,3061030,41400319,-1170060,3141170,10510409,0,10011709,2000080,4011191,0,0,0,0,0,0,10001709,0,0,21911319,0,21800109,0,0,40800119,30701509
11,319,959.844123455696,1,0,292842.648657124,292843.695698583,1,8,14,1,1,23,20,46963247,84768147,167470083,136257147,1200050,0,0,0,3151050,10900619,0,10410819,21300709,2021051,11211119,4020071,12010809,0,3101150,21100619,20801519,10501809,30501709,0,11101509,21601509,-1140110,20812009,40900809,30100419,11312009,30000919,0,20711519,30401509,0,31610609,1081061,2041111,20410419
11,320,453.899941232521,0,0,292845.707491862,292846.754555649,1,8,14,0,0,22,5,7282220,47881319,43984038,38553419,0,0,0,0,3171030,0,0,0,4111190,0,41800119,0,0,4011000,0,0,0,2070200,1100120,30211919,11610919,-1061080,0,0,0,0,0,0,4090171,21711519,0,0,11711719,0,0,1040010
11,321,989.639716863167,0,0,292848.401641918,292849.448700701,1,8,14,1,0,11,10,147245704,86452410,34731541,20270400,0,21701819,0,31010519,40910509,11600219,31710919,10311719,0,0,-2180041,0,41700809,1070051,0,41501509,0,0,0,0,3081061,1050161,0,30600319,0,0,0,2180101,0,0,3070200,0,3000070,11000019,0,1020010
11,322,554.59263996454,1,0,292851.507551993,292852.554613855,1,8,14,0,1,10,10,78054549,120154188,24312040,45963638,0,2081001,4151111,0,20700719,0,10611209,40510509,0,-2030081,0,0,22010719,11600319,0,2101141,41110909,41301019,0,0,0,0,0,21111009,0,1081001,2120030,0,3120150,0,1031160,0,30510319,11302009,0,0
11,323,986.144656315446,0,0,292854.284048278,292855.33112015,1,8,14,1,0,1,20,90266988,133005877,104306555,188395233,-4070160,10401119,10501909,0,1070091,20001309,41101219,0,3121181,3160050,40100619,0,40311619,11611919,0,3191050,30510419,4120201,10301319,10010919,0,41501919,0,1071170,10110209,0,31311019,0,40111219,10701419,30800619,1160130,40110609,31800809,12000009,21710419
11,324,542.847096046899,1,0,292857.413512575,292858.460562888,1,8,14,0,1,28,0,8112291,3211111,2091090,10511241,4111120,0,0,0,0,0,0,0,4001171,0,1171070,2040041,0,0,0,0,0,0,0,0,0,0,0,0,0,2091090,0,-4180050,0,0,4161090,0,2170101,0,0,0
11,325,1205.77296876581,1,0,292860.072360556,292861.119422033,1,8,14,1,1,4,5,74602599,28922941,5100361,53222728,0,0,41711519,-2090071,0,30801009,0,0,0,0,0,20610619,3131020,0,2020150,0,2110021,1051131,4040161,0,0,0,0,1060200,0,0,0,0,0,0,2100000,0,40111609,0,0,11011119
11,326,436.729912413284,1,0,292863.366504222,292864.413571474,1,8,14,0,1,9,20,82074609,151873766,191286795,147527526,3070091,40501009,20310709,3161150,0,2020030,0,10911609,-2100011,11810619,21600009,20100509,0,3120081,30011009,40301309,4120021,20810209,0,11901719,4180011,31600809,41101509,20601309,41800719,40100719,0,40311409,10510909,0,31911519,20410609,0,3071171,0,41311909
11,327,956.993102561682,0,0,292865.990064756,292867.037122769,1,8,14,0,0,36,10,76053159,96224227,85946828,28411128,0,0,40610319,30411609,1030061,4001170,0,0,0,30800809,40111819,0,4101090,21210509,0,0,0,0,0,4071121,1051170,0,0,30201609,30111219,20511709,0,10210019,0,0,0,4190020,0,1080080,10811009,-2120000
11,328,552.823744306806,1,0,292869.072450637,292870.119510189,1,8,14,0,1,26,0,3150020,0,10324403,6520341,0,0,0,0,3150020,0,0,0,0,0,0,0,0,0,0,0,0,0,2041101,0,0,0,4031100,0,2101191,-2151011,0,0,0,3190110,0,0,0,0,2150160,1180071
11,329,515.912917500827,1,0,292871.77835971,292872.825431582,1,8,14,1,1,16,0,4031010,13651092,5141150,1120201,0,0,0,0,0,4031010,0,0,0,4200010,0,2150010,0,0,0,-3100041,4201031,0,2071140,0,0,3070010,0,0,0,0,0,0,0,0,0,1120201,0,0,0,0
11,330,1816.14089134382,0,0,292874.354865697,292875.40192371,1,8,14,1,0,6,20,88553148,199455444,217909024,83564690,3020090,0,30101119,0,21110609,-3091180,30200119,0,1030031,2131031,30500819,32010019,0,11700019,20501309,31001609,40800019,30810619,30511609,0,41000709,1161041,40310109,10010919,21701909,41511409,31701319,0,21201019,2001171,41910909,4111181,4040201,0,0,10300209
11,331,833.363274810836,1,0,292878.272555269,292879.319616362,1,8,14,0,1,5,20,59915140,151427974,129865427,186667805,41311119,0,0,4101000,-2071091,0,1030021,0,11401909,10500719,2131141,10700719,41010119,11911719,21601519,41211419,1160010,11200609,0,10100309,21300209,30911219,0,2051161,30710309,3181001,31611219,0,0,20701019,40000109,20611309,40402009,41011419,2030021,21911919
11,332,703.579461202025,1,0,292881.284348163,292882.3314158,1,8,14,1,1,13,10,36075639,8543362,128215977,68007027,0,0,0,0,3041010,0,1121011,10601809,21311809,0,1101040,1080150,-3181111,3181061,0,0,0,0,0,30200519,3191021,21712019,41510409,0,31602009,0,0,11401619,20011409,0,4171181,21311209,0,0,11111609,0
11,333,869.045691331849,0,0,292884.154973948,292885.20208855,1,8,14,0,0,3,10,48334571,53352019,70553609,128236847,0,3031021,-2090000,40911419,0,0,1181110,0,1121021,0,0,0,40300019,0,0,11010809,0,2041191,3000061,3020101,21610119,0,21411819,0,0,0,21511509,20611509,0,41902009,0,3021001,0,22000819,40701509,0
11,334,1185.33000187017,0,0,292887.225588877,292888.272658054,1,8,14,0,0,24,20,159035766,142454535,107965988,138377417,11100719,40900209,0,31511909,20400409,11800719,2110041,1011141,40200619,4160180,31110809,0,10510719,3150090,31900809,21310809,0,40311119,10711509,0,0,30811419,20100709,-2201011,40011219,0,4130121,41302019,0,30311909,0,40510219,1091131,11600109,2061021,11501009
11,335,518.404384842142,0,0,292890.531508499,292891.57857652,1,8,14,0,0,20,5,44741179,1031101,42754431,106245179,41710109,0,0,0,0,0,0,0,3031070,0,0,0,0,0,0,1031101,0,0,0,-1071200,30300919,4130151,0,0,3141101,0,4111060,0,0,2161091,1181031,0,0,21200219,41601519,40101319
11,336,969.075487286318,1,0,292893.272715028,292894.31978151,1,8,14,1,1,30,5,2200031,83201749,44331899,52172069,2200031,0,0,0,0,0,0,0,0,2020141,21210319,0,2080011,11811109,4070150,0,42010019,0,0,0,0,0,3020090,41311809,0,0,0,0,4201100,-3130010,40700909,0,4140050,0,0,0
11,337,474.405656743329,0,0,292909.096416766,292910.143481708,1,8,15,1,0,16,0,4031010,13651092,5141150,1120201,0,0,0,0,0,4031010,0,0,0,4200010,0,2150010,0,0,0,-3100041,4201031,0,2071140,0,0,3070010,0,0,0,0,0,0,0,0,0,1120201,0,0,0,0
11,338,667.984430911019,0,0,292911.684679845,292912.731744788,1,8,15,0,0,20,5,58312478,48181911,14200513,62613228,0,0,0,0,1010100,4190160,31410209,0,21702009,0,0,41101719,3050101,0,0,0,4030091,0,0,-3060131,0,4050041,0,4080201,3010140,0,0,0,0,0,0,31711919,0,0,0,30901309
