sub_id,Trial,RT,Resp,Error,Fix_onset,Disp_onset,q1,q2,block,repeat,tid,tloc,d_setsize,quad1,quad2,quad3,quad4,loc1,loc2,loc3,loc4,loc5,loc6,loc7,loc8,loc9,loc10,loc11,loc12,loc13,loc14,loc15,loc16,loc17,loc18,loc19,loc20,loc21,loc22,loc23,loc24,loc25,loc26,loc27,loc28,loc29,loc30,loc31,loc32,loc33,loc34,loc35,loc36
15,1,1187.20853817649,1,0,554524.017136841,554525.064220827,0,30,1,1,1,1,10,40442240,75763378,147813677,55892297,-3010200,0,1171001,0,0,4010130,30200819,0,2050090,0,0,0,2181160,2160090,31410919,0,40011209,0,3180041,40411309,0,21811909,40410009,0,0,0,42000409,0,0,4070160,0,0,10500309,20010919,0,21310909
15,2,1619.47516631335,0,0,554527.346618112,554528.393690164,0,30,1,1,0,35,20,103074776,131686797,145024994,94234929,3161150,3100031,11900119,21301319,0,21501419,0,20400719,21710019,20201919,0,3101190,11010009,10310409,40710819,41010409,2191041,3151001,10600319,41111519,0,0,10100409,31301919,21800509,0,30110319,21200219,4180161,21311319,2111121,11000809,0,0,-4030191,30401109
15,3,1177.21106356476,0,0,554531.029028331,554532.076093454,0,30,1,1,0,33,20,121979606,164526248,105315955,159167665,42011019,2091140,0,11602009,3051011,0,21301909,30310909,11611609,30611909,31400319,0,20000519,41601709,31400409,4171141,3200041,2140201,0,0,30900809,10701709,31000919,0,11401009,0,21311509,1171040,2071090,0,11500309,40900819,-2201080,30300409,30111709,40911209
15,4,967.053521540947,1,0,554534.334966069,554535.382027727,0,30,1,0,1,25,10,72914480,35141330,77113497,82612337,3020051,11801119,0,0,3180071,20701209,2201011,0,32011019,0,31900219,0,0,0,0,1091111,0,2150000,0,40900009,0,1180040,0,1020200,-1101120,11001709,21910419,0,0,0,11600509,0,40611019,0,0,30400809
15,5,583.11199885793,1,0,554537.487950143,554538.535024891,0,30,1,0,1,28,5,40653611,5281262,11710809,123564158,0,0,0,3201130,31211209,0,0,2191081,4050191,0,1200061,0,0,0,0,0,0,4081201,0,0,0,0,0,0,0,11710809,0,-4011181,0,4080170,41110409,0,2160080,0,31800509,40401809
15,6,606.388752930798,1,0,554540.299761253,554541.346836385,0,30,1,1,1,14,20,107206675,80626277,134396496,120966226,0,32011309,10200019,11401809,10201519,30510519,0,10800419,2081081,21210419,10012019,20500819,0,-4070121,0,0,3031190,21801709,20700119,11500009,0,21100909,4171011,1100150,41211819,3101060,31511419,0,30801319,20500019,30702009,4100040,2051111,0,10910819,21900909
15,7,988.005872350186,0,0,554543.088039994,554544.135102422,0,30,1,0,0,29,20,126765589,217045113,133185406,151551497,2121111,0,0,2090071,30111209,1140071,20001909,40400009,30901209,20310909,40900719,41510309,0,21310519,20601919,0,40500619,31910119,4180040,0,10110809,20710209,31311519,0,4161101,30910419,31801309,31710509,-3020050,41000219,31910419,2070160,0,1140121,0,40700019
15,8,578.321911161765,0,0,554546.158670978,554547.205751885,0,30,1,0,0,21,20,206544464,71784296,142159076,149195828,31310809,0,30100719,41310009,41801209,40111709,0,21910009,0,21210019,21411619,0,11010619,0,3050190,11911719,0,3190130,21811719,0,-4160140,20511319,41602019,31501809,1171151,21400919,0,10310919,3011111,3190200,40400819,4080151,3070191,21610209,21510919,42011309
15,9,1268.04911135696,0,0,554548.994012147,554550.041086894,0,30,1,0,0,3,20,102374817,97026717,261009532,147862628,41210919,4070100,-1110111,20700519,0,1130110,2151120,21001119,11000819,10911919,0,30101919,0,30112019,0,4100151,21800709,0,31411409,41301419,30701419,42011319,2171100,40800619,20901619,10400519,41310109,0,0,30300509,40310709,31401309,1150041,41700019,3000041,0
15,10,837.770814308897,1,0,554552.335245551,554553.38235533,0,30,1,1,1,17,5,36901608,29064808,36531879,3190251,4080070,0,21310819,0,0,0,11510719,0,0,0,0,0,0,11900619,1020200,10901709,-3111180,2131100,0,0,0,31310809,4120050,0,0,1101020,0,0,0,0,1160190,0,0,0,0,2030061
15,11,587.452450417914,1,0,554555.370579329,554556.417646377,0,30,1,0,1,13,10,48201619,71234860,75676777,96534438,30410909,0,0,3100090,1110001,0,3080110,0,10500509,0,4090141,31111919,-4121091,0,0,31911709,0,0,0,31512009,0,0,31411919,11701719,0,0,1051130,40701309,40501219,0,0,2201130,12000609,1130171,0,0
15,12,643.464100896381,1,0,554558.017686952,554559.064761315,0,30,1,0,1,8,5,7362233,4160270,121312957,27754199,0,0,0,0,1111171,0,1020061,-3170000,2061001,0,3050110,0,0,0,0,0,1110160,0,0,0,40601919,0,0,40500019,0,0,40211019,0,0,0,2011111,0,3041160,10700309,12001619,0
15,13,455.334879807197,1,0,554560.876558181,554561.923625999,0,30,1,0,1,15,0,3080141,3021151,10203352,6190152,0,0,0,0,0,3080141,0,0,0,0,0,0,0,0,-3021151,0,0,0,0,1061020,0,0,0,0,2031151,4000040,3111141,0,0,0,0,0,0,4000091,0,2190061
15,14,1426.05771601666,0,0,554563.511897502,554564.55896301,0,30,1,0,0,32,5,72372019,64904792,7051321,45083069,0,0,0,0,0,41101309,30200509,1070201,0,0,3161111,2021011,4090101,10701319,0,0,40800109,4131141,0,0,0,0,3031191,0,0,0,4020130,0,0,40901909,0,-4181160,0,0,0,0
15,15,457.120720646344,1,0,554567.111952321,554568.159034382,0,30,1,1,1,9,5,78065258,9491312,35782921,40310209,20411209,41501909,10001919,0,0,0,3120201,0,-3030020,0,0,0,0,1140101,4170030,0,4181181,0,0,0,1151160,30400419,0,0,0,3071141,1160201,0,0,0,0,0,0,40310209,0,0
15,16,565.987714449875,0,0,554569.806123527,554570.853181336,0,30,1,0,0,2,10,64734078,66692098,132905737,70301430,0,-2111150,0,0,0,0,30811219,31811709,0,0,0,0,4070170,0,31811619,0,0,30810309,30502019,41610409,0,1100011,21711719,31700409,2171090,0,4110080,2180000,0,0,0,4070091,0,41710619,20200519,2140201
15,17,1179.03347569518,0,0,554572.52386175,554573.570868744,0,30,1,1,0,26,5,96352167,16173610,39162749,1040101,2100000,0,0,2121130,0,40310809,31110009,20710219,0,3191170,0,0,0,1181131,11801309,0,0,0,0,1030000,0,30800609,3131030,0,0,-4201110,0,0,0,0,0,0,0,0,0,1040101
15,18,1128.26039409265,1,0,554575.841501961,554576.888566314,0,30,1,1,1,6,0,5092140,1100180,4321362,4170271,0,0,0,0,0,-4021020,0,1071120,0,0,0,0,0,1100180,0,0,0,0,1201131,0,1060180,0,0,2060051,0,0,0,0,3120151,0,0,0,0,0,1050120,0
15,19,1055.97253155429,0,0,554579.218067988,554580.265095385,0,30,1,1,0,7,10,67503489,63823837,79767088,70135271,0,0,21111709,0,0,0,-3080041,40311619,3000120,0,0,21911919,0,0,0,0,20711109,21200809,21301719,2051171,3101070,2101010,20201309,0,0,31010809,0,4151021,0,0,30111319,31801719,2051091,0,2020121,0
15,20,1057.32259480283,1,0,554582.488661939,554583.535736686,0,30,1,1,1,5,0,11193512,3140041,5110171,0,0,0,0,4010140,-2071120,1070100,0,3041051,1001101,0,0,0,0,0,0,3140041,0,0,4040060,0,1070111,0,0,0,0,0,0,0,0,0,0,0,0,0,0,0
15,21,1384.31623834185,1,0,554585.641657948,554586.688719991,0,30,1,1,1,12,10,90421689,46823659,82873178,85523448,0,4010010,0,41310619,0,0,42010919,3090141,0,3100181,30111919,-3011050,10600509,0,0,0,0,0,20000919,4040050,40811909,0,11910119,3000020,0,0,3110161,0,0,31910419,10910109,0,2191011,0,40511909,0
15,22,1146.17539138999,1,0,554589.088816078,554590.135845785,0,30,1,0,1,27,0,4041241,4232052,4140090,4162141,1040041,3001200,0,0,0,0,0,0,0,1031021,0,0,0,0,0,0,0,3201031,0,0,0,0,0,0,3030010,0,-1110080,0,3161050,0,0,1001091,0,0,0,0
15,23,538.724674261175,0,0,554592.324138615,554593.371176791,0,30,1,0,0,4,0,9260271,8231181,0,5361321,0,0,0,-4060100,0,0,0,1040080,4160091,0,0,3111010,1040141,0,4080030,0,0,0,0,0,0,0,0,0,0,0,0,0,0,0,0,0,1201140,4160181,0,0
15,24,1296.31074424833,1,1,554595.100624801,554596.147687614,0,30,1,1,0,30,0,3220231,9322293,7051041,3170060,0,0,0,1140181,0,0,2080050,0,0,0,0,0,1000041,0,0,0,4171111,4151141,3051021,0,0,0,0,0,0,4000020,0,0,0,-3170060,0,0,0,0,0,0
15,25,658.61968731042,0,0,554603.641935891,554604.68904028,0,30,2,0,0,21,0,6152222,4270201,7132371,2050170,0,0,3151081,0,0,0,0,3001141,0,0,0,0,0,0,0,3120070,1150131,0,0,0,-3081091,0,0,0,3040200,1011080,0,0,0,0,0,2050170,0,0,0,0
15,26,688.423479557969,0,0,554606.37139314,554607.418459803,0,30,2,1,0,26,5,96352167,16173610,39162749,1040101,2100000,0,0,2121130,0,40310809,31110009,20710219,0,3191170,0,0,0,1181131,11801309,0,0,0,0,1030000,0,30800609,3131030,0,0,-4201110,0,0,0,0,0,0,0,0,0,1040101
15,27,830.147788044997,0,0,554609.218495296,554610.265568504,0,30,2,0,0,28,20,140975197,110532598,212261523,97902116,0,4150081,0,4100170,40711109,30801619,20200909,41011309,0,0,0,20510519,4130091,10911219,31700019,2160161,1110170,40010419,20410619,21101819,31701209,4120091,20411119,30701509,41701719,21601419,20512019,-1120180,12011309,0,10310019,2150070,30700119,0,0,41610419
15,28,951.035234262235,0,0,554612.265598916,554613.312669044,0,30,2,0,0,32,0,2051051,7151362,1120131,6293472,0,0,0,2051051,0,0,0,0,0,2130151,0,0,0,4001180,0,1020031,0,0,0,0,1120131,0,0,0,0,0,0,0,0,4141190,1111131,-1041151,0,0,0,0
15,29,506.609182455577,1,0,554615.442126524,554616.489196652,0,30,2,1,1,6,0,5092140,1100180,4321362,4170271,0,0,0,0,0,-4021020,0,1071120,0,0,0,0,0,1100180,0,0,0,0,1201131,0,1060180,0,0,2060051,0,0,0,0,3120151,0,0,0,0,0,1050120,0
15,30,413.018268183805,1,0,554618.171574149,554619.218646972,0,30,2,0,1,15,10,75552379,62243579,76783189,100365288,0,0,0,1120000,1030121,1100030,31500509,0,40801719,0,20111309,0,40001209,0,-2131061,0,0,0,0,0,2041051,40111109,0,0,30610919,4020110,0,0,10402009,40710919,2190141,0,31910109,0,4041201,11110909
15,31,512.554157408886,0,0,554620.795163262,554621.842217991,0,30,2,0,0,27,0,0,10403663,2070080,4391411,0,0,0,0,0,0,0,0,0,3181180,0,0,3041171,0,3040171,0,0,1141141,0,0,0,0,0,0,0,0,-2070080,0,0,0,2170100,0,0,1051151,0,1170160
15,32,768.61231145449,1,0,554623.559934271,554624.606967827,0,30,2,0,1,29,5,3080151,34803039,83382859,39694168,0,0,0,0,0,0,0,0,3080151,30712009,0,0,0,0,4091030,0,0,0,0,41311609,0,0,0,1160141,0,0,40911109,2000200,-4120010,4150200,3171120,0,10700109,11401419,0,4151110
15,33,1513.86880420614,1,0,554626.512885316,554627.559953519,0,30,2,1,1,12,10,90421689,46823659,82873178,85523448,0,4010010,0,41310619,0,0,42010919,3090141,0,3100181,30111919,-3011050,10600509,0,0,0,0,0,20000919,4040050,40811909,0,11910119,3000020,0,0,3110161,0,0,31910419,10910109,0,2191011,0,40511909,0
15,34,1369.55177376512,0,0,554630.207056907,554631.254135504,0,30,2,1,0,7,10,67503489,63823837,79767088,70135271,0,0,21111709,0,0,0,-3080041,40311619,3000120,0,0,21911919,0,0,0,0,20711109,21200809,21301719,2051171,3101070,2101010,20201309,0,0,31010809,0,4151021,0,0,30111319,31801719,2051091,0,2020121,0
15,35,557.856537750922,0,0,554633.783587826,554634.830657954,0,30,2,1,0,33,20,121979606,164526248,105315955,159167665,42011019,2091140,0,11602009,3051011,0,21301909,30310909,11611609,30611909,31400319,0,20000519,41601709,31400409,4171141,3200041,2140201,0,0,30900809,10701709,31000919,0,11401009,0,21311509,1171040,2071090,0,11500309,40900819,-2201080,30300409,30111709,40911209
15,36,1163.68078859523,1,0,554636.465985341,554637.513055469,0,30,2,0,1,13,10,57514108,102234008,75171998,85285238,0,2181070,31010219,20311709,0,0,0,0,4011110,1031181,0,10700209,-4061060,0,0,40500119,41811419,4130020,0,0,0,0,40001219,0,31110709,4060070,0,0,1011191,1150010,0,30711119,30801809,21611109,0,0
15,37,444.366529816762,0,0,554639.854264621,554640.901337443,0,30,2,1,0,14,20,107206675,80626277,134396496,120966226,0,32011309,10200019,11401809,10201519,30510519,0,10800419,2081081,21210419,10012019,20500819,0,-4070121,0,0,3031190,21801709,20700119,11500009,0,21100909,4171011,1100150,41211819,3101060,31511419,0,30801319,20500019,30702009,4100040,2051111,0,10910819,21900909
15,38,1124.69487206545,0,0,554642.536678304,554643.583793088,0,30,2,0,0,2,5,64243268,42712259,55394790,1121200,0,-3141040,0,0,31100809,0,0,30001419,0,2001040,0,0,40711219,0,0,0,0,0,21100509,0,1010021,0,21811719,2201110,4141041,1020190,4110200,0,0,0,0,0,0,0,0,1121200
15,39,483.969926135615,1,0,554645.795547069,554646.842606803,0,30,2,1,1,9,5,78065258,9491312,35782921,40310209,20411209,41501909,10001919,0,0,0,3120201,0,-3030020,0,0,0,0,1140101,4170030,0,4181181,0,0,0,1151160,30400419,0,0,0,3071141,1160201,0,0,0,0,0,0,40310209,0,0
15,40,834.687265218236,1,0,554648.489709037,554649.53677493,0,30,2,1,1,5,0,11193512,3140041,5110171,0,0,0,0,4010140,-2071120,1070100,0,3041051,1001101,0,0,0,0,0,0,3140041,0,0,4040060,0,1070111,0,0,0,0,0,0,0,0,0,0,0,0,0,0,0
15,41,1554.36954798643,0,0,554651.52504012,554652.572115637,0,30,2,1,0,30,0,3220231,9322293,7051041,3170060,0,0,0,1140181,0,0,2080050,0,0,0,0,0,1000041,0,0,0,4171111,4151141,3051021,0,0,0,0,0,0,4000020,0,0,0,-3170060,0,0,0,0,0,0
15,42,580.87459707167,1,0,554655.207458423,554656.254515847,0,30,2,0,1,25,20,77392787,148695884,102595207,151386545,3031181,10300119,2140140,0,0,0,20710609,20500019,20710719,0,21800319,1171190,40800509,10110919,41200319,21911609,11701019,0,42010419,0,4180191,21302009,0,21002009,-4000070,10100509,0,10001619,4040180,31101019,3010200,11010209,1011081,30800719,20001009,40410509
15,43,935.359563562088,0,0,554657.925182787,554658.972215188,0,30,2,1,0,1,10,40442240,75763378,147813677,55892297,-3010200,0,1171001,0,0,4010130,30200819,0,2050090,0,0,0,2181160,2160090,31410919,0,40011209,0,3180041,40411309,0,21811909,40410009,0,0,0,42000409,0,0,4070160,0,0,10500309,20010919,0,21310909
15,44,1032.38472773228,0,0,554661.042841938,554662.089907446,0,30,2,1,0,17,5,36901608,29064808,36531879,3190251,4080070,0,21310819,0,0,0,11510719,0,0,0,0,0,0,11900619,1020200,10901709,-3111180,2131100,0,0,0,31310809,4120050,0,0,1101020,0,0,0,0,1160190,0,0,0,0,2030061
15,45,536.203170311637,1,0,554664.172296723,554665.219361077,0,30,2,0,1,8,5,28440981,44290610,18583652,43592599,4050020,2070021,0,0,20200819,0,0,-2120121,0,0,0,0,40200419,0,0,0,0,4090191,11311209,1000091,3091201,0,0,3181151,0,0,0,0,0,0,2080071,0,0,21100809,0,20411719
15,46,1107.22604638431,0,0,554666.937049639,554667.984117842,0,30,2,0,0,4,10,43475621,178354786,22672161,35321588,0,0,3190060,-3061071,0,11311719,3061001,1151061,21700709,42011219,0,0,40300319,0,40301909,40310509,11300719,4130111,1070011,0,20411019,0,1191131,0,0,0,0,0,0,0,0,22001419,3010150,0,10310019,0
15,47,863.861643942073,1,0,554670.219508903,554671.266529755,0,30,2,0,1,3,20,156875995,86531328,220067963,123963538,0,21510319,-1041101,40700009,10510819,0,20810809,30801819,31501119,20900019,0,3110100,0,1200091,0,40410909,0,20910209,0,1121080,31311809,30710819,20700419,41500709,41511209,11201209,42010709,4170170,40710719,2070150,42010519,1170041,11311419,21410319,0,1110201
15,48,1046.50553513784,1,0,554673.207733286,554674.254809959,0,30,2,1,1,35,20,103074776,131686797,145024994,94234929,3161150,3100031,11900119,21301319,0,21501419,0,20400719,21710019,20201919,0,3101190,11010009,10310409,40710819,41010409,2191041,3151001,10600319,41111519,0,0,10100409,31301919,21800509,0,30110319,21200219,4180161,21311319,2111121,11000809,0,0,-4030191,30401109
15,49,1637.94758915901,0,0,554679.431357969,554680.478466209,0,30,3,0,0,32,10,44202929,55294228,93585409,79883989,10311509,0,2090011,30701409,1100000,0,0,0,0,21201109,32011919,0,0,0,0,0,2081200,0,2170020,41202019,4031141,3070011,31111209,12001009,0,0,0,0,11600309,41901509,0,-2060111,0,20202019,4120041,0
15,50,624.521638965234,1,0,554683.266717232,554684.31378582,0,30,3,1,1,12,10,90421689,46823659,82873178,85523448,0,4010010,0,41310619,0,0,42010919,3090141,0,3100181,30111919,-3011050,10600509,0,0,0,0,0,20000919,4040050,40811909,0,11910119,3000020,0,0,3110161,0,0,31910419,10910109,0,2191011,0,40511909,0
15,51,1799.11635047756,1,0,554685.949106278,554686.99618141,0,30,3,1,1,1,10,40442240,75763378,147813677,55892297,-3010200,0,1171001,0,0,4010130,30200819,0,2050090,0,0,0,2181160,2160090,31410919,0,40011209,0,3180041,40411309,0,21811909,40410009,0,0,0,42000409,0,0,4070160,0,0,10500309,20010919,0,21310909
15,52,627.71374755539,1,0,554689.937414199,554690.984484326,0,30,3,1,1,7,10,67503489,63823837,79767088,70135271,0,0,21111709,0,0,0,-3080041,40311619,3000120,0,0,21911919,0,0,0,0,20711109,21200809,21301719,2051171,3101070,2101010,20201309,0,0,31010809,0,4151021,0,0,30111319,31801719,2051091,0,2020121,0
15,53,721.220740000717,0,0,554692.66684989,554693.713936956,0,30,3,0,0,27,20,131509457,173326105,140223856,138854455,0,11911909,2040181,30801509,3151191,1181020,10601519,40111209,31710919,40810209,11800419,31411709,31901509,2091160,4090171,10510109,0,40710819,30201319,0,4070020,0,40811109,21401219,40710019,0,-3030170,4121110,0,0,30410709,22000009,20511809,0,40010809,21800009
15,54,1360.22759845946,0,0,554695.561028719,554696.608096922,0,30,3,1,0,30,0,3220231,9322293,7051041,3170060,0,0,0,1140181,0,0,2080050,0,0,0,0,0,1000041,0,0,0,4171111,4151141,3051021,0,0,0,0,0,0,4000020,0,0,0,-3170060,0,0,0,0,0,0
15,55,492.538805119693,0,0,554699.137560022,554700.18462938,0,30,3,0,0,21,0,4000001,8301230,6182101,7240171,0,0,0,0,4000001,0,0,0,0,3130000,2150050,0,3021180,0,0,0,0,0,0,0,-3071091,0,0,0,0,3111010,0,4070010,0,0,0,0,0,0,3170161,0
15,56,649.574994691648,1,0,554701.784659176,554702.83172353,0,30,3,0,1,28,0,3050100,4051120,2271150,10231351,0,0,0,0,0,0,0,3050100,0,0,0,0,0,0,4051120,0,0,0,1140100,0,0,1131050,0,0,0,0,0,-1100140,4020101,2090030,0,0,0,3021080,0,0
15,57,437.734781880863,1,0,554704.643516161,554705.690591679,0,30,3,1,1,9,5,78065258,9491312,35782921,40310209,20411209,41501909,10001919,0,0,0,3120201,0,-3030020,0,0,0,0,1140101,4170030,0,4181181,0,0,0,1151160,30400419,0,0,0,3071141,1160201,0,0,0,0,0,0,40310209,0,0
15,58,492.271256283857,1,0,554707.231789974,554708.278873961,0,30,3,1,1,14,20,107206675,80626277,134396496,120966226,0,32011309,10200019,11401809,10201519,30510519,0,10800419,2081081,21210419,10012019,20500819,0,-4070121,0,0,3031190,21801709,20700119,11500009,0,21100909,4171011,1100150,41211819,3101060,31511419,0,30801319,20500019,30702009,4100040,2051111,0,10910819,21900909
15,59,1399.8710308224,1,0,554709.914197114,554710.961273016,0,30,3,1,1,17,5,36901608,29064808,36531879,3190251,4080070,0,21310819,0,0,0,11510719,0,0,0,0,0,0,11900619,1020200,10901709,-3111180,2131100,0,0,0,31310809,4120050,0,0,1101020,0,0,0,0,1160190,0,0,0,0,2030061
15,60,1375.10870664846,1,0,554713.431896917,554714.478961655,0,30,3,1,1,35,20,103074776,131686797,145024994,94234929,3161150,3100031,11900119,21301319,0,21501419,0,20400719,21710019,20201919,0,3101190,11010009,10310409,40710819,41010409,2191041,3151001,10600319,41111519,0,0,10100409,31301919,21800509,0,30110319,21200219,4180161,21311319,2111121,11000809,0,0,-4030191,30401109
15,61,1139.684924623,1,0,554717.008416287,554718.055482565,0,30,3,1,1,33,20,121979606,164526248,105315955,159167665,42011019,2091140,0,11602009,3051011,0,21301909,30310909,11611609,30611909,31400319,0,20000519,41601709,31400409,4171141,3200041,2140201,0,0,30900809,10701709,31000919,0,11401009,0,21311509,1171040,2071090,0,11500309,40900819,-2201080,30300409,30111709,40911209
15,62,661.101540201344,0,0,554720.384945742,554721.432010481,0,30,3,0,0,3,5,8212250,5231331,29252780,54923527,0,0,-4061070,0,0,0,0,0,4151180,0,0,1000151,0,2130120,0,2101060,0,0,0,10211019,0,2130141,1061031,11700419,0,4150170,0,0,0,0,0,0,0,11911009,31801109,11211409
15,63,650.397659395821,0,0,554723.208520919,554724.255588353,0,30,3,0,0,2,5,43182450,10411109,13730279,68643140,0,-2020030,4050141,0,0,0,1110100,32001009,4001170,0,0,0,0,0,0,0,10411109,0,0,11710109,0,0,0,0,0,2020170,0,21700519,2091071,0,40510309,0,3141121,0,0,1200120
15,64,843.2141833473,0,0,554726.055626541,554727.102695129,0,30,3,1,0,5,0,11193512,3140041,5110171,0,0,0,0,4010140,-2071120,1070100,0,3041051,1001101,0,0,0,0,0,0,3140041,0,0,4040060,0,1070111,0,0,0,0,0,0,0,0,0,0,0,0,0,0,0
15,65,547.820566804148,0,0,554728.985076399,554730.032167315,0,30,3,0,0,4,20,149485277,119846487,176796265,190376955,41900309,10500909,31200219,-1061111,30310919,30100509,2120100,1180141,1111060,0,22001619,0,10812019,0,41901119,4061191,40000419,1070120,2170100,40011209,40800409,0,41401009,0,31001519,21412019,0,21201009,41010519,0,32011619,0,30011019,32001319,4140161,30001309
15,66,945.175335975364,0,0,554731.643974267,554732.691014752,0,30,3,0,0,13,20,106325065,183129855,103088448,102895918,0,11601519,41501309,0,31200819,10610009,0,11411409,0,30701109,40311519,31501819,-4031101,20401319,41211809,11811009,3160170,0,3170071,3081061,2121031,11401809,10700319,10511919,0,40501619,21600619,0,0,3201050,41910809,10700619,3201161,3170151,10412009,30300119
15,67,782.987963873893,0,0,554734.749874355,554735.796949487,0,30,3,0,0,29,0,3191180,5281221,2121072,4090312,3191180,0,0,0,0,0,0,0,0,1150110,0,4131111,0,0,0,0,0,0,0,0,0,0,1100011,0,1021061,0,0,1020201,-1000081,0,0,0,2070030,0,0,0
15,68,382.802181062289,0,0,554737.785221606,554738.83228904,0,30,3,0,0,15,5,18141530,34080740,68524760,20764550,3110190,12010309,0,0,0,3021031,0,0,0,0,0,0,30900619,0,-3180121,0,0,0,0,0,2050121,0,0,4061001,41102019,0,21311619,4111151,0,0,0,11311119,1181090,0,0,4161190
15,69,462.474778178148,1,0,554740.232315063,554741.279387116,0,30,3,0,1,8,10,71094101,84012488,103363800,46523228,0,0,0,0,3011061,2010141,21201719,-4171161,40700019,20900309,1000151,40400909,0,0,0,21711119,0,0,31910719,0,21600209,40401509,2130031,0,4120151,3201181,0,0,4111100,11211109,0,31201019,0,0,0,0
15,70,1168.58174547087,1,0,554742.926474336,554743.973544464,0,30,3,1,1,26,5,96352167,16173610,39162749,1040101,2100000,0,0,2121130,0,40310809,31110009,20710219,0,3191170,0,0,0,1181131,11801309,0,0,0,0,1030000,0,30800609,3131030,0,0,-4201110,0,0,0,0,0,0,0,0,0,1040101
15,71,1256.18341402151,1,0,554746.197124106,554747.2441823,0,30,3,1,1,6,0,5092140,1100180,4321362,4170271,0,0,0,0,0,-4021020,0,1071120,0,0,0,0,0,1100180,0,0,0,0,1201131,0,1060180,0,0,2060051,0,0,0,0,3120151,0,0,0,0,0,1050120,0
15,72,1257.61662924197,0,0,554749.550118113,554750.597181697,0,30,3,0,0,25,10,74563430,55921938,68772388,35664379,1060121,40000819,2160191,0,30201109,1141190,0,0,0,0,0,11800409,0,21110209,20900119,0,0,2111201,0,10011619,31010609,20610119,0,0,-3000001,4140040,0,0,0,0,3141051,20201719,0,0,11201419,1120190
15,73,466.948811663315,0,0,554758.267977214,554759.314988827,0,30,4,1,0,9,5,78065258,9491312,35782921,40310209,20411209,41501909,10001919,0,0,0,3120201,0,-3030020,0,0,0,0,1140101,4170030,0,4181181,0,0,0,1151160,30400419,0,0,0,3071141,1160201,0,0,0,0,0,0,40310209,0,0
15,74,880.142090492882,0,0,554760.926764213,554761.973825486,0,30,4,1,0,30,0,3220231,9322293,7051041,3170060,0,0,0,1140181,0,0,2080050,0,0,0,0,0,1000041,0,0,0,4171111,4151141,3051021,0,0,0,0,0,0,4000020,0,0,0,-3170060,0,0,0,0,0,0
15,75,877.141693257727,0,0,554763.985634594,554765.032695868,0,30,4,1,0,5,0,11193512,3140041,5110171,0,0,0,0,4010140,-2071120,1070100,0,3041051,1001101,0,0,0,0,0,0,3140041,0,0,4040060,0,1070111,0,0,0,0,0,0,0,0,0,0,0,0,0,0,0
15,76,1180.32771942671,1,0,554767.091577029,554768.138640227,0,30,4,0,1,25,10,118862738,62924637,86126942,54123708,2150041,3091160,32011309,0,0,40500019,0,41110209,0,0,0,0,0,21711609,10401419,30811609,0,0,30211309,0,0,2040121,2181011,4011200,-3091071,4191121,40401109,0,1021070,0,0,0,32000619,0,21102019,0
15,77,550.673138583079,1,0,554770.421024423,554771.468094165,0,30,4,1,1,14,20,107206675,80626277,134396496,120966226,0,32011309,10200019,11401809,10201519,30510519,0,10800419,2081081,21210419,10012019,20500819,0,-4070121,0,0,3031190,21801709,20700119,11500009,0,21100909,4171011,1100150,41211819,3101060,31511419,0,30801319,20500019,30702009,4100040,2051111,0,10910819,21900909
15,78,773.297304403968,0,0,554773.044593132,554774.103435412,0,30,4,0,0,2,5,27742450,48682658,33624179,25032009,0,-1070021,0,0,0,0,3180040,3181070,20311319,0,0,0,0,0,4151130,1020010,31611309,11900209,0,1171190,0,2051180,0,0,0,0,30401809,21002009,0,0,0,4030000,0,0,0,0
15,79,523.26458261814,1,0,554775.950525249,554776.997588063,0,30,4,1,1,7,10,67503489,63823837,79767088,70135271,0,0,21111709,0,0,0,-3080041,40311619,3000120,0,0,21911919,0,0,0,0,20711109,21200809,21301719,2051171,3101070,2101010,20201309,0,0,31010809,0,4151021,0,0,30111319,31801719,2051091,0,2020121,0
15,80,526.435903157108,0,0,554778.621152538,554779.668215352,0,30,4,0,0,3,20,93036226,185107915,52084497,127545534,10411519,10910719,-1070081,0,4131120,10411319,31600309,20300019,4201140,20010919,21002009,40501819,0,0,1081131,40211619,21100409,41200009,10501509,0,0,1150120,4100030,0,21901609,10400219,4031010,11001519,1021140,21500309,11100219,11711209,0,40510619,0,30700519
15,81,810.055828187615,1,0,554781.350609402,554782.39767799,0,30,4,1,1,33,20,121979606,164526248,105315955,159167665,42011019,2091140,0,11602009,3051011,0,21301909,30310909,11611609,30611909,31400319,0,20000519,41601709,31400409,4171141,3200041,2140201,0,0,30900809,10701709,31000919,0,11401009,0,21311509,1171040,2071090,0,11500309,40900819,-2201080,30300409,30111709,40911209
15,82,1087.24495570641,1,0,554784.25653459,554785.303606258,0,30,4,0,1,29,5,26332470,11901419,75522288,43573570,2031081,0,0,0,0,0,0,20101309,4200080,0,0,0,0,0,0,0,11901419,0,0,40900709,0,0,31610519,0,3011060,0,0,0,-3171190,0,0,30811809,1110200,3130121,4180050,1170200
15,83,943.672442575917,1,0,554787.538937649,554788.586011626,0,30,4,0,1,32,20,116985067,171139523,95636738,141567346,30411109,40811309,0,4041121,0,30310709,11410819,0,0,40311819,40002019,22001119,4000130,10611609,0,21400009,21700809,11112009,4201200,4001051,0,20900109,21500919,2130021,31601919,0,11301519,10711209,1121110,41910919,31011519,-3040060,0,1050191,21911519,30810819
15,84,665.922424872406,0,0,554790.609573253,554791.656648,0,30,4,0,0,27,0,1141140,0,4251282,8525453,0,0,0,0,0,0,0,0,1141140,0,0,0,0,0,0,0,0,0,0,0,0,0,0,3091101,0,0,-1160181,1031021,1101190,0,3181171,2171060,0,0,0,1041011
15,85,418.784620589577,1,0,554793.456678874,554794.503750542,0,30,4,0,1,21,0,1090041,3160041,11252442,8131211,0,0,0,0,1090041,0,0,0,0,0,0,0,0,3160041,0,0,0,0,3041071,0,-1010100,3001130,4200141,0,0,0,0,0,0,0,0,0,4040060,0,0,4091151
15,86,683.676892775111,0,0,554796.056761795,554797.103832308,0,30,4,0,0,8,10,88494449,35423499,160196906,18315051,30700509,0,0,10200409,0,0,4081121,-2201191,41311219,0,2121100,0,2001090,0,0,0,0,31301309,41301319,0,31810209,0,0,4151041,20311619,40711709,21911009,1181161,0,0,0,3091060,3031011,11011819,0,0
15,87,1080.05578198936,0,0,554798.868547497,554799.915605691,0,30,4,1,0,26,5,96352167,16173610,39162749,1040101,2100000,0,0,2121130,0,40310809,31110009,20710219,0,3191170,0,0,0,1181131,11801309,0,0,0,0,1030000,0,30800609,3131030,0,0,-4201110,0,0,0,0,0,0,0,0,0,1040101
15,88,1005.21330873016,0,0,554802.1273897,554803.174474071,0,30,4,1,0,6,0,5092140,1100180,4321362,4170271,0,0,0,0,0,-4021020,0,1071120,0,0,0,0,0,1100180,0,0,0,0,1201131,0,1060180,0,0,2060051,0,0,0,0,3120151,0,0,0,0,0,1050120,0
15,89,711.580895353109,1,0,554805.256862578,554806.303934631,0,30,4,0,1,4,10,80158868,77104567,13850520,37912089,0,10301409,4101150,-1001120,30411909,31101119,0,2081060,1161101,11601419,40601619,0,10111319,0,0,10700109,0,4090101,0,1120130,0,0,0,0,2130171,10600219,0,0,12000919,0,21900109,4011061,0,0,0,0
15,90,498.862968175672,1,0,554808.115838901,554809.162810479,0,30,4,0,1,15,5,51434149,50485680,1151081,33461309,31201309,3111160,0,2031191,0,0,3080170,12010319,0,22011719,0,1201021,0,0,-2071121,22001719,3200100,0,0,0,0,0,0,0,1151081,0,0,0,30310209,0,0,0,0,3151100,0,0
15,91,1262.54337851424,0,0,554810.751071973,554811.798137096,0,30,4,1,0,12,10,90421689,46823659,82873178,85523448,0,4010010,0,41310619,0,0,42010919,3090141,0,3100181,30111919,-3011050,10600509,0,0,0,0,0,20000919,4040050,40811909,0,11910119,3000020,0,0,3110161,0,0,31910419,10910109,0,2191011,0,40511909,0
15,92,751.699756365269,1,0,554814.174654234,554815.221779796,0,30,4,1,1,17,5,36901608,29064808,36531879,3190251,4080070,0,21310819,0,0,0,11510719,0,0,0,0,0,0,11900619,1020200,10901709,-3111180,2131100,0,0,0,31310809,4120050,0,0,1101020,0,0,0,0,1160190,0,0,0,0,2030061
15,93,836.678290972486,1,0,554817.115876243,554818.162946756,0,30,4,0,1,28,20,118777486,108365808,208088164,173694337,0,1200201,40512019,11111019,1070100,11511209,2070110,10300919,41001909,0,0,11801119,2190061,1151191,31410319,21011609,40801509,0,0,40511519,41111609,40600509,4030170,31510919,10211819,0,40111619,-4160121,0,4101151,40700109,41811109,21700719,30410519,30810609,0
15,94,1023.28960516024,1,0,554820.057099792,554821.104164915,0,30,4,1,1,35,20,103074776,131686797,145024994,94234929,3161150,3100031,11900119,21301319,0,21501419,0,20400719,21710019,20201919,0,3101190,11010009,10310409,40710819,41010409,2191041,3151001,10600319,41111519,0,0,10100409,31301919,21800509,0,30110319,21200219,4180161,21311319,2111121,11000809,0,0,-4030191,30401109
15,95,775.751439970918,0,0,554823.186599618,554824.23362817,0,30,4,1,0,1,10,40442240,75763378,147813677,55892297,-3010200,0,1171001,0,0,4010130,30200819,0,2050090,0,0,0,2181160,2160090,31410919,0,40011209,0,3180041,40411309,0,21811909,40410009,0,0,0,42000409,0,0,4070160,0,0,10500309,20010919,0,21310909
15,96,587.77427894529,0,0,554826.127782746,554827.174852874,0,30,4,0,0,13,0,8141312,11422351,3111141,2051110,0,0,0,0,4021121,0,0,0,4120191,0,0,3110040,-4160001,0,2081120,0,0,2071190,0,0,0,0,0,0,0,0,3111141,0,0,0,0,0,0,2051110,0,0
15,97,1027.8710431885,0,0,554832.045545529,554833.092592174,0,30,5,0,0,29,10,34421999,71054698,81885760,89056429,0,0,0,4121090,30300909,0,0,0,0,4051010,0,0,0,21301319,31810709,0,3080151,10811509,0,31211009,0,2201001,3171151,4101071,31200119,0,10001409,21701619,-2081161,40901819,0,0,20211719,4160111,0,0
15,98,617.355562979355,0,0,554835.280864602,554836.327934345,0,30,5,1,0,17,5,36901608,29064808,36531879,3190251,4080070,0,21310819,0,0,0,11510719,0,0,0,0,0,0,11900619,1020200,10901709,-3111180,2131100,0,0,0,31310809,4120050,0,0,1101020,0,0,0,0,1160190,0,0,0,0,2030061
15,99,802.950576413423,1,0,554838.104441703,554839.151504517,0,30,5,0,1,13,20,118823785,40962520,97844485,130826893,21700819,1110000,0,11900319,21200009,0,21812019,0,41100619,2000130,0,11600119,-2161051,1161030,21810019,1100160,0,1130011,10110019,11200819,10800619,30100009,11610909,1121101,0,1091000,21810009,0,10800419,12000809,0,31900909,10811809,11901119,21601719,31810109
15,100,855.33934540581,0,0,554841.033898491,554842.080962844,0,30,5,1,0,5,0,11193512,3140041,5110171,0,0,0,0,4010140,-2071120,1070100,0,3041051,1001101,0,0,0,0,0,0,3140041,0,0,4040060,0,1070111,0,0,0,0,0,0,0,0,0,0,0,0,0,0,0
15,101,768.847523489967,0,1,554843.963363362,554845.010422711,0,30,5,0,1,32,0,7211082,0,5010321,12522423,0,0,0,0,0,3051051,0,4160031,0,0,0,0,0,0,0,0,0,0,0,0,0,0,0,3010121,2000200,0,0,1081000,0,0,4150161,-4130111,0,0,0,3161151
15,102,507.924599107355,0,0,554846.822234206,554847.869285085,0,30,5,0,0,21,0,3180150,4172241,7231341,8091201,0,0,0,0,0,0,3180150,0,0,0,1071161,0,0,0,0,0,0,3101080,1181180,0,-3030120,0,0,0,3020041,0,0,0,0,4061151,0,0,4030050,0,0,0
15,103,1090.50520253368,0,0,554849.539911604,554850.586981732,0,30,5,1,0,1,10,40442240,75763378,147813677,55892297,-3010200,0,1171001,0,0,4010130,30200819,0,2050090,0,0,0,2181160,2160090,31410919,0,40011209,0,3180041,40411309,0,21811909,40410009,0,0,0,42000409,0,0,4070160,0,0,10500309,20010919,0,21310909
15,104,655.717070447281,1,0,554852.810551365,554853.857619953,0,30,5,0,1,2,0,11372232,7301151,4061130,4271272,0,-4130131,0,0,0,4071080,3171021,0,0,0,0,3160020,4141131,0,0,0,0,0,0,4061130,0,0,0,0,0,0,0,0,0,0,0,0,0,1171091,3100181,0
15,105,1060.00347330701,1,0,554855.634168888,554856.68119436,0,30,5,1,1,30,0,3220231,9322293,7051041,3170060,0,0,0,1140181,0,0,2080050,0,0,0,0,0,1000041,0,0,0,4171111,4151141,3051021,0,0,0,0,0,0,4000020,0,0,0,-3170060,0,0,0,0,0,0
15,106,465.868607047014,0,0,554858.822415908,554859.869502974,0,30,5,0,0,8,20,194247973,155424284,152754486,93323918,2051100,31210409,21211719,22010709,41700519,31110519,31410219,-2041170,11501609,0,31800009,41210119,0,30200309,0,31901219,10000609,10312019,3081160,41700719,20910019,1011200,3140070,0,41510509,0,41400809,1031111,4041020,4150130,0,31300919,21800019,31000719,0,0
15,107,1034.28528737277,1,0,554861.398927578,554862.445995781,0,30,5,0,1,28,5,12811819,48501190,57453718,26684391,0,0,0,0,0,0,10810619,0,2001200,0,0,0,0,0,3101031,41400119,4000040,0,0,2060010,0,0,3081180,41011319,0,0,11301209,-1111161,1130150,3131171,0,0,0,0,0,21311909
15,108,534.274893347174,0,0,554864.657792878,554865.70487263,0,30,5,0,0,4,10,88244437,46444427,47172740,56853219,1170160,10411919,0,-4061030,41700509,0,0,0,30900819,0,0,20810109,10701719,0,2131100,11800419,1001080,0,0,10110609,2030071,30901009,0,0,0,0,4131051,0,4151161,0,30211719,20400309,2090030,0,0,0
15,109,1025.35954816267,1,0,554867.304899732,554868.35196832,0,30,5,1,1,33,20,121979606,164526248,105315955,159167665,42011019,2091140,0,11602009,3051011,0,21301909,30310909,11611609,30611909,31400319,0,20000519,41601709,31400409,4171141,3200041,2140201,0,0,30900809,10701709,31000919,0,11401009,0,21311509,1171040,2071090,0,11500309,40900819,-2201080,30300409,30111709,40911209
15,110,982.216807198711,1,0,554870.504943155,554871.552010204,0,30,5,1,1,26,5,96352167,16173610,39162749,1040101,2100000,0,0,2121130,0,40310809,31110009,20710219,0,3191170,0,0,0,1181131,11801309,0,0,0,0,1030000,0,30800609,3131030,0,0,-4201110,0,0,0,0,0,0,0,0,0,1040101
15,111,591.46645385772,0,0,554873.728525108,554874.775593311,0,30,5,0,0,3,5,29232273,23581670,44513698,28913290,0,0,-1100141,0,2050181,0,3180101,1090031,21811819,21401509,0,0,0,0,0,0,2180161,0,0,0,0,21712019,0,20611509,2190170,0,0,0,0,21712009,0,3050141,0,0,0,4151140
15,112,717.510086949915,0,0,554876.528566376,554877.575640738,0,30,5,0,0,27,5,4181011,50744619,41883478,15461490,0,0,0,0,4181011,0,0,0,0,21402009,0,0,0,21001419,4151021,0,0,4190170,0,21500319,0,0,0,3110170,11900909,3171060,-2201020,3080071,0,0,0,1181110,11200309,0,0,0
15,113,861.51260312181,1,0,554879.387441454,554880.434508117,0,30,5,1,1,35,20,103074776,131686797,145024994,94234929,3161150,3100031,11900119,21301319,0,21501419,0,20400719,21710019,20201919,0,3101190,11010009,10310409,40710819,41010409,2191041,3151001,10600319,41111519,0,0,10100409,31301919,21800509,0,30110319,21200219,4180161,21311319,2111121,11000809,0,0,-4030191,30401109
15,114,1567.09871604107,0,0,554882.469833041,554883.516906633,0,30,5,1,0,6,0,5092140,1100180,4321362,4170271,0,0,0,0,0,-4021020,0,1071120,0,0,0,0,0,1100180,0,0,0,0,1201131,0,1060180,0,0,2060051,0,0,0,0,3120151,0,0,0,0,0,1050120,0
15,115,853.031495586038,0,0,554886.269907416,554887.316970999,0,30,5,1,0,7,10,67503489,63823837,79767088,70135271,0,0,21111709,0,0,0,-3080041,40311619,3000120,0,0,21911919,0,0,0,0,20711109,21200809,21301719,2051171,3101070,2101010,20201309,0,0,31010809,0,4151021,0,0,30111319,31801719,2051091,0,2020121,0
15,116,658.509203116409,1,0,554889.340534165,554890.387614687,0,30,5,0,1,25,20,167027674,160148574,82476022,141244424,31411109,41100619,31801409,30911309,0,0,11801609,20001619,0,20601809,20300919,30201419,0,3041000,41001309,31910419,3081190,10010509,0,3061051,2201061,0,3070191,0,-3040001,30002009,41101709,30710719,2151030,10400219,40600709,0,11500319,20410509,21300819,4170100
15,117,797.920272103511,1,0,554892.222937763,554893.270000961,0,30,5,0,1,15,10,82376888,40555029,53912918,117923308,20912019,11210609,0,0,0,4031041,41012019,2131200,3080000,10101909,3121150,0,0,0,-2201160,0,21010709,4120101,0,0,3101000,0,20011409,0,30800509,0,0,41801809,0,0,0,41410909,31700509,0,3010081,0
15,118,444.851197651587,1,0,554895.258275005,554896.305352063,0,30,5,1,1,9,5,78065258,9491312,35782921,40310209,20411209,41501909,10001919,0,0,0,3120201,0,-3030020,0,0,0,0,1140101,4170030,0,4181181,0,0,0,1151160,30400419,0,0,0,3071141,1160201,0,0,0,0,0,0,40310209,0,0
15,119,1051.7941492144,0,0,554897.870083497,554898.917147851,0,30,5,1,0,12,10,90421689,46823659,82873178,85523448,0,4010010,0,41310619,0,0,42010919,3090141,0,3100181,30111919,-3011050,10600509,0,0,0,0,0,20000919,4040050,40811909,0,11910119,3000020,0,0,3110161,0,0,31910419,10910109,0,2191011,0,40511909,0
15,120,554.145884816535,1,0,554901.081898303,554902.128961116,0,30,5,1,1,14,20,107206675,80626277,134396496,120966226,0,32011309,10200019,11401809,10201519,30510519,0,10800419,2081081,21210419,10012019,20500819,0,-4070121,0,0,3031190,21801709,20700119,11500009,0,21100909,4171011,1100150,41211819,3101060,31511419,0,30801319,20500019,30702009,4100040,2051111,0,10910819,21900909
15,121,564.381266245618,1,0,554907.105523448,554908.152593961,0,30,6,0,1,8,5,36830799,87274817,5120240,2171250,0,0,21600609,11100119,0,0,0,-4130071,0,2041130,41510819,0,20400809,21111819,1190140,1020100,0,0,0,0,3000110,0,0,2120130,0,0,0,1161120,0,0,0,0,0,0,0,1010130
15,122,528.316059731878,0,0,554909.858504982,554910.905570875,0,30,6,1,0,7,10,67503489,63823837,79767088,70135271,0,0,21111709,0,0,0,-3080041,40311619,3000120,0,0,21911919,0,0,0,0,20711109,21200809,21301719,2051171,3101070,2101010,20201309,0,0,31010809,0,4151021,0,0,30111319,31801719,2051091,0,2020121,0
15,123,1012.36090622842,1,0,554912.5526631,554913.599730533,0,30,6,1,1,30,0,3220231,9322293,7051041,3170060,0,0,0,1140181,0,0,2080050,0,0,0,0,0,1000041,0,0,0,4171111,4151141,3051021,0,0,0,0,0,0,4000020,0,0,0,-3170060,0,0,0,0,0,0
15,124,802.358119282871,1,0,554915.717454743,554916.76447983,0,30,6,0,1,3,20,149968534,147427074,33984592,148097295,0,10100919,-4190070,20711209,1041170,30501219,41501119,10511819,31411009,10110109,20600609,11600109,21001809,41301819,1011101,10300809,31500709,0,3100090,4201101,0,20501019,3051191,0,3131191,0,0,20000809,40510819,4061021,40201309,0,0,12010819,10601309,20711209
15,125,813.602872076444,0,0,554918.623348749,554919.670419262,0,30,6,0,0,32,0,0,4241171,9473352,7120221,0,0,0,0,0,0,0,0,0,0,2161150,0,0,0,2080021,0,0,0,2131071,0,1020090,0,3131121,0,0,0,3191070,3040071,0,0,0,-4080150,0,0,0,0
15,126,641.434963908978,1,0,554921.51750987,554922.564583462,0,30,6,1,1,17,5,36901608,29064808,36531879,3190251,4080070,0,21310819,0,0,0,11510719,0,0,0,0,0,0,11900619,1020200,10901709,-3111180,2131100,0,0,0,31310809,4120050,0,0,1101020,0,0,0,0,1160190,0,0,0,0,2030061
15,127,445.544129936025,1,0,554924.376391492,554925.423451996,0,30,6,0,1,25,5,66471868,35312519,11432513,37302839,41510609,0,0,0,0,3061150,0,0,21900109,0,4001110,0,31311409,0,0,0,0,0,4050171,0,0,3160061,3121190,0,-1101091,0,0,0,4040190,11300919,0,20811609,0,1150121,0,0
15,128,559.291677665897,1,0,554926.976417438,554928.023490646,0,30,6,0,1,29,20,61315817,110517328,149066515,132826067,11211819,3190081,11301909,11600419,3111061,10200319,0,10700209,0,40100619,1101191,21401119,3121040,3181021,0,30410819,0,11201519,30402019,0,21301309,20000609,11411009,0,20500319,41311109,4140141,0,-3001131,31601709,0,3101081,21101009,11300409,21510709,41210019
15,129,1001.3960209908,1,0,554929.63527681,554930.682355792,0,30,6,0,1,28,0,7141262,7251181,3010100,8071220,0,0,0,0,0,0,3071201,4070061,0,3120040,0,0,1091121,3040020,0,0,0,0,0,0,0,0,0,3010100,0,0,0,-4011130,0,4060090,0,0,0,0,0,0
15,130,730.765498708934,0,0,554932.811810578,554933.858924206,0,30,6,0,0,2,10,44863893,94063717,14692300,140328725,0,-3161041,31411619,0,4041001,4160161,0,0,2090071,0,0,0,41400719,0,11100809,40511009,0,1051180,11511209,0,0,0,0,0,2081010,0,1100081,0,30701119,30901909,4201170,41711409,0,0,21001409,11811709
15,131,1270.99253423512,1,0,554935.670677186,554936.717742695,0,30,6,1,1,33,20,121979606,164526248,105315955,159167665,42011019,2091140,0,11602009,3051011,0,21301909,30310909,11611609,30611909,31400319,0,20000519,41601709,31400409,4171141,3200041,2140201,0,0,30900809,10701709,31000919,0,11401009,0,21311509,1171040,2071090,0,11500309,40900819,-2201080,30300409,30111709,40911209
15,132,630.542451515794,1,0,554939.141320336,554940.188388539,0,30,6,0,1,13,10,155405635,56151808,45081400,42341621,30111619,41001909,30600209,2090180,0,0,0,10100509,41501209,21700219,0,0,-4141180,0,0,30310409,0,0,1070201,0,0,0,0,30110919,10710219,0,3190061,0,4180011,2181091,3080030,1100180,0,0,0,31800309
15,133,492.615412687883,1,0,554942.012002212,554943.059019985,0,30,6,0,1,21,20,189576204,88947055,109342937,104684647,40900809,41710319,11110919,21300919,3141010,31400419,0,40011809,0,11410709,0,0,2000190,0,11410619,21311509,31202019,11612009,31910309,20300219,-4070151,0,20910309,2141130,30010819,0,0,10900709,21710219,10610209,2070201,3200000,2010090,20111309,30910809,3161101
15,134,579.122633091174,0,0,554944.741413265,554945.788470305,0,30,6,0,0,27,5,0,18103832,30373840,86902108,0,0,0,0,0,0,0,0,0,3071061,2051031,0,0,0,2170131,10811609,0,0,0,0,3070111,3201060,2170130,0,0,20811409,-1121130,11711409,31010309,0,0,42010219,0,2170171,0,0
15,135,489.8182755569,0,0,554947.576747505,554948.623840731,0,30,6,1,0,14,20,107206675,80626277,134396496,120966226,0,32011309,10200019,11401809,10201519,30510519,0,10800419,2081081,21210419,10012019,20500819,0,-4070121,0,0,3031190,21801709,20700119,11500009,0,21100909,4171011,1100150,41211819,3101060,31511419,0,30801319,20500019,30702009,4100040,2051111,0,10910819,21900909
15,136,1424.91591745056,0,0,554950.235612651,554951.28267277,0,30,6,1,0,35,20,103074776,131686797,145024994,94234929,3161150,3100031,11900119,21301319,0,21501419,0,20400719,21710019,20201919,0,3101190,11010009,10310409,40710819,41010409,2191041,3151001,10600319,41111519,0,0,10100409,31301919,21800509,0,30110319,21200219,4180161,21311319,2111121,11000809,0,0,-4030191,30401109
15,137,1043.99634990841,0,0,554953.788632374,554954.83567209,0,30,6,0,0,4,10,136045885,27893320,42435320,15363031,41000209,40211309,10910909,-1121130,0,21501019,21301309,0,0,1110071,0,0,10910209,10710719,0,0,4001160,1161161,10101319,0,0,0,0,1191011,0,1031181,30111809,0,0,1171061,10011919,0,0,0,0,4180051
15,138,501.568099251017,1,0,554957.012183914,554958.059251732,0,30,6,1,1,6,0,5092140,1100180,4321362,4170271,0,0,0,0,0,-4021020,0,1071120,0,0,0,0,0,1100180,0,0,0,0,1201131,0,1060180,0,0,2060051,0,0,0,0,3120151,0,0,0,0,0,1050120,0
15,139,510.894199367613,1,0,554959.682823521,554960.72988441,0,30,6,1,1,9,5,78065258,9491312,35782921,40310209,20411209,41501909,10001919,0,0,0,3120201,0,-3030020,0,0,0,0,1140101,4170030,0,4181181,0,0,0,1151160,30400419,0,0,0,3071141,1160201,0,0,0,0,0,0,40310209,0,0
15,140,568.472646991722,1,1,554962.376977405,554963.424047148,0,30,6,1,0,1,10,40442240,75763378,147813677,55892297,-3010200,0,1171001,0,0,4010130,30200819,0,2050090,0,0,0,2181160,2160090,31410919,0,40011209,0,3180041,40411309,0,21811909,40410009,0,0,0,42000409,0,0,4070160,0,0,10500309,20010919,0,21310909
15,141,721.62803018,0,0,554965.188790439,554966.235860952,0,30,6,1,0,26,5,96352167,16173610,39162749,1040101,2100000,0,0,2121130,0,40310809,31110009,20710219,0,3191170,0,0,0,1181131,11801309,0,0,0,0,1030000,0,30800609,3131030,0,0,-4201110,0,0,0,0,0,0,0,0,0,1040101
15,142,1451.5957395779,0,0,554968.035889901,554969.082964264,0,30,6,0,0,15,0,8382293,3011321,1180011,4161240,0,0,3080071,0,0,0,0,1161111,4141111,0,0,0,0,0,-2010170,0,1001151,0,0,0,0,0,1180011,0,0,0,0,2011040,2150200,0,0,0,0,0,0,0
15,143,684.344802633859,1,0,554971.671236537,554972.718312824,0,30,6,1,1,12,10,90421689,46823659,82873178,85523448,0,4010010,0,41310619,0,0,42010919,3090141,0,3100181,30111919,-3011050,10600509,0,0,0,0,0,20000919,4040050,40811909,0,11910119,3000020,0,0,3110161,0,0,31910419,10910109,0,2191011,0,40511909,0
15,144,947.594824945554,0,0,554974.483046107,554975.53011508,0,30,6,1,0,5,0,11193512,3140041,5110171,0,0,0,0,4010140,-2071120,1070100,0,3041051,1001101,0,0,0,0,0,0,3140041,0,0,4040060,0,1070111,0,0,0,0,0,0,0,0,0,0,0,0,0,0,0
15,145,509.193820296787,0,0,554980.930204622,554981.977277445,0,30,7,0,0,8,0,8281091,0,10291362,6240101,0,0,0,0,3070070,0,0,-2071011,3140010,0,0,0,0,0,0,0,0,0,4160110,0,4000191,0,2131061,0,0,0,0,0,2140030,0,4100071,0,0,0,0,0
15,146,524.589623324573,0,0,554983.542007725,554984.589083627,0,30,7,1,0,7,10,67503489,63823837,79767088,70135271,0,0,21111709,0,0,0,-3080041,40311619,3000120,0,0,21911919,0,0,0,0,20711109,21200809,21301719,2051171,3101070,2101010,20201309,0,0,31010809,0,4151021,0,0,30111319,31801719,2051091,0,2020121,0
15,147,1034.92124530021,1,0,554986.165623785,554987.212655031,0,30,7,1,1,14,20,107206675,80626277,134396496,120966226,0,32011309,10200019,11401809,10201519,30510519,0,10800419,2081081,21210419,10012019,20500819,0,-4070121,0,0,3031190,21801709,20700119,11500009,0,21100909,4171011,1100150,41211819,3101060,31511419,0,30801319,20500019,30702009,4100040,2051111,0,10910819,21900909
15,148,1000.64534426201,1,0,554989.353869264,554990.400942087,0,30,7,0,1,25,20,104619285,186435193,188134335,66066981,4081170,10611109,10310609,10810219,32012019,0,1001100,4191150,31601909,0,31310619,41211019,0,11210409,10001609,21900309,30200509,40600719,0,40600419,20400309,41600909,41810219,30200919,-3021051,10500509,0,0,40101819,0,4050071,4031001,0,2061081,11711919,4111090
15,149,606.75177257508,1,0,554992.412739646,554993.459809004,0,30,7,0,1,21,0,6350283,3311351,7110312,4160070,0,0,0,0,0,0,3110091,1110111,2130081,2200201,0,0,0,0,0,0,0,1111150,0,0,-3090181,0,0,0,0,0,4020131,0,0,0,0,0,0,0,0,4160070
15,150,610.178708215244,0,0,554995.14219882,554996.189265868,0,30,7,0,0,32,5,26851570,34941010,43812150,53633128,0,0,0,4180020,0,0,21511519,1160031,0,0,0,30800719,0,0,0,1130171,3010120,0,0,0,0,2111131,0,41701019,0,0,0,0,32000909,0,0,-4090130,2110010,0,4031160,11400919
15,151,557.449632557109,1,0,554997.965773612,554999.012837195,0,30,7,1,1,5,0,11193512,3140041,5110171,0,0,0,0,4010140,-2071120,1070100,0,3041051,1001101,0,0,0,0,0,0,3140041,0,0,4040060,0,1070111,0,0,0,0,0,0,0,0,0,0,0,0,0,0,0
15,152,484.635526197962,1,0,555000.730528067,555001.777639001,0,30,7,0,1,3,10,114767617,31322910,57191450,127604748,31801609,21900919,-4171200,0,31111809,0,4071071,0,21711009,0,30201719,0,0,0,1121191,0,0,0,0,0,0,0,31400909,2170201,1150011,21310209,1160120,40011319,3150091,0,0,0,40311809,4120110,0,40011419
15,153,722.198159666732,0,0,555003.401148042,555004.448213165,0,30,7,0,0,4,20,180688432,160365096,163536566,101211719,41800519,21610819,22001619,-1040090,10001919,21310119,10700909,21910619,30311819,31401319,41100509,4011070,1050080,0,41800909,41001209,0,0,0,3200100,42011509,40901519,31700109,0,21301419,21400819,3021091,0,21610219,2151051,1110011,30700209,0,0,4130110,41510119
15,154,505.022367229685,0,0,555006.189482987,555007.236491136,0,30,7,0,0,15,10,65683598,44922269,35533612,118007367,2160161,0,0,21910909,11011309,0,0,30601219,0,0,1030151,0,10510519,0,-2180190,0,31201409,0,0,3011021,0,0,1061051,1150021,0,0,30311519,11401109,0,30411609,0,2081031,40411219,30501319,0,3201080
15,155,1238.62681677565,1,0,555008.777697131,555009.824779192,0,30,7,1,1,35,20,103074776,131686797,145024994,94234929,3161150,3100031,11900119,21301319,0,21501419,0,20400719,21710019,20201919,0,3101190,11010009,10310409,40710819,41010409,2191041,3151001,10600319,41111519,0,0,10100409,31301919,21800509,0,30110319,21200219,4180161,21311319,2111121,11000809,0,0,-4030191,30401109
15,156,549.603327875957,0,0,555012.236573903,555013.283654424,0,30,7,1,0,9,5,78065258,9491312,35782921,40310209,20411209,41501909,10001919,0,0,0,3120201,0,-3030020,0,0,0,0,1140101,4170030,0,4181181,0,0,0,1151160,30400419,0,0,0,3071141,1160201,0,0,0,0,0,0,40310209,0,0
15,157,510.864172363654,0,0,555014.848390864,555015.895459837,0,30,7,1,0,6,0,5092140,1100180,4321362,4170271,0,0,0,0,0,-4021020,0,1071120,0,0,0,0,0,1100180,0,0,0,0,1201131,0,1060180,0,0,2060051,0,0,0,0,3120151,0,0,0,0,0,1050120,0
15,158,922.121090115979,0,0,555017.507248696,555018.554319978,0,30,7,0,0,27,0,3171151,3242171,5232452,5231311,0,0,3171151,0,0,0,0,0,0,0,0,0,0,0,0,0,1041011,2201160,0,0,0,0,0,1001200,2200081,0,-2031171,0,0,0,0,0,0,0,4200170,1031141
15,159,746.517776977271,0,0,555020.53082649,555021.577894693,0,30,7,0,0,28,5,35134078,11604423,34963638,14971109,0,0,0,0,4111040,20611719,10411319,0,0,2141031,1091041,4021110,0,0,0,3160101,1191140,0,0,21001819,11810619,0,0,0,0,0,2151200,-4061000,0,0,0,0,10910109,0,0,0
15,160,839.529322693124,1,0,555023.495583179,555024.542651767,0,30,7,1,1,30,0,3220231,9322293,7051041,3170060,0,0,0,1140181,0,0,2080050,0,0,0,0,0,1000041,0,0,0,4171111,4151141,3051021,0,0,0,0,0,0,4000020,0,0,0,-3170060,0,0,0,0,0,0
15,161,1577.29675620794,0,0,555026.589744222,555027.636814735,0,30,7,0,0,29,5,44671960,22122218,14992860,34613991,3161010,0,0,0,1000031,40510919,0,0,0,0,1110180,0,0,10200419,0,0,10811619,0,10901709,0,0,0,3040041,0,1051110,0,0,0,-1040190,1121081,0,0,2141101,0,30311619,0
15,162,649.942248826846,1,0,555030.319218795,555031.366330114,0,30,7,0,1,13,10,30773940,127344798,82825046,68350230,0,4041121,0,0,0,4131200,0,21411419,1190200,1091141,41201609,1180030,-2160100,41310409,0,0,0,40401509,20500909,21401209,10311719,30611209,0,0,0,0,0,1160091,0,21710009,0,0,41300019,0,4180111,0
15,163,605.857504764572,1,0,555033.166331345,555034.213441894,0,30,7,1,1,26,5,96352167,16173610,39162749,1040101,2100000,0,0,2121130,0,40310809,31110009,20710219,0,3191170,0,0,0,1181131,11801309,0,0,0,0,1030000,0,30800609,3131030,0,0,-4201110,0,0,0,0,0,0,0,0,0,1040101
15,164,863.757319166325,1,0,555035.872246986,555036.91931057,0,30,7,1,1,33,20,121979606,164526248,105315955,159167665,42011019,2091140,0,11602009,3051011,0,21301909,30310909,11611609,30611909,31400319,0,20000519,41601709,31400409,4171141,3200041,2140201,0,0,30900809,10701709,31000919,0,11401009,0,21311509,1171040,2071090,0,11500309,40900819,-2201080,30300409,30111709,40911209
15,165,694.331883220002,1,0,555038.954651277,555040.00171717,0,30,7,1,1,17,5,36901608,29064808,36531879,3190251,4080070,0,21310819,0,0,0,11510719,0,0,0,0,0,0,11900619,1020200,10901709,-3111180,2131100,0,0,0,31310809,4120050,0,0,1101020,0,0,0,0,1160190,0,0,0,0,2030061
15,166,618.709090980701,0,0,555041.766453148,555042.81352366,0,30,7,1,0,12,10,90421689,46823659,82873178,85523448,0,4010010,0,41310619,0,0,42010919,3090141,0,3100181,30111919,-3011050,10600509,0,0,0,0,0,20000919,4040050,40811909,0,11910119,3000020,0,0,3110161,0,0,31910419,10910109,0,2191011,0,40511909,0
15,167,702.194356243126,0,0,555044.554736123,555045.601821264,0,30,7,0,0,2,20,118854538,172186875,131707715,158687756,41610219,-1060131,0,0,31611719,40401409,4171060,0,0,21211819,31001209,4151041,31711909,41010009,0,1100150,10600719,31400019,1051081,11801309,3141150,20910919,11200419,0,41900009,31501009,10201819,3120090,20511109,32010919,30111709,1021001,30011519,0,41901409,0
15,168,690.886469441466,0,0,555047.37836019,555048.425379503,0,30,7,1,0,1,10,40442240,75763378,147813677,55892297,-3010200,0,1171001,0,0,4010130,30200819,0,2050090,0,0,0,2181160,2160090,31410919,0,40011209,0,3180041,40411309,0,21811909,40410009,0,0,0,42000409,0,0,4070160,0,0,10500309,20010919,0,21310909
15,169,1283.73864060268,1,0,555058.43730102,555059.484390011,0,30,8,1,1,33,20,121979606,164526248,105315955,159167665,42011019,2091140,0,11602009,3051011,0,21301909,30310909,11611609,30611909,31400319,0,20000519,41601709,31400409,4171141,3200041,2140201,0,0,30900809,10701709,31000919,0,11401009,0,21311509,1171040,2071090,0,11500309,40900819,-2201080,30300409,30111709,40911209
15,170,720.462363911793,0,0,555061.83736323,555062.884426043,0,30,8,1,0,26,5,96352167,16173610,39162749,1040101,2100000,0,0,2121130,0,40310809,31110009,20710219,0,3191170,0,0,0,1181131,11801309,0,0,0,0,1030000,0,30800609,3131030,0,0,-4201110,0,0,0,0,0,0,0,0,0,1040101
15,171,724.227296654135,1,0,555064.778565221,555065.825650362,0,30,8,0,1,2,10,88924049,64422519,117333147,18871431,20000619,-3000151,0,0,40500619,0,1101140,20210519,4111001,30111519,0,0,0,2060160,30210719,2040121,0,0,20110119,3120081,0,22001519,0,40400019,0,0,31701409,0,11600109,0,0,0,0,0,3160161,4111161
15,172,644.028840702958,1,0,555067.660978443,555068.708109395,0,30,8,0,1,25,5,3061200,109384269,16731960,15712190,0,0,0,0,0,0,0,3061200,0,2201080,40610219,30000119,30511809,0,4000031,0,0,2061011,0,0,2181020,0,0,0,-3140021,0,11410919,0,1161111,0,0,10410909,0,4140170,0,0
15,173,568.651269655675,1,0,555070.555148417,555071.602209691,0,30,8,0,1,27,10,57003088,75811487,83144839,68495058,1070160,0,0,0,41501519,11301409,3130000,0,0,30810609,3200160,0,21400509,0,0,0,20400209,0,31012009,3200090,0,0,4051021,0,0,41701609,-3180110,4031091,10201619,0,31600009,21611219,0,0,1051120,0
15,174,594.793684198521,1,0,555073.214007019,555074.261076377,0,30,8,0,1,3,5,60192658,82422438,19764010,7161301,21910219,3160120,-4111110,31011209,0,0,0,0,0,0,0,0,0,0,0,41910619,0,40511819,0,0,1101191,3041100,0,0,4021110,11600609,0,0,0,0,0,0,0,3051020,2070141,2040140
15,175,495.616194908507,0,0,555076.002280755,555077.049360892,0,30,8,0,0,8,20,103446718,142847057,125316226,197347884,3040021,0,20011109,40211519,1081070,21410219,11401609,-3091081,3200090,4101051,40801519,0,10911409,0,21600319,20311519,42000119,3121121,0,20811809,40110919,0,0,20501419,0,41811919,2080160,31111219,31500319,1111181,11811519,20901709,40400009,30011319,30500609,0
15,176,1280.6485472247,0,0,555078.708217569,555079.755334662,0,30,8,1,0,7,10,67503489,63823837,79767088,70135271,0,0,21111709,0,0,0,-3080041,40311619,3000120,0,0,21911919,0,0,0,0,20711109,21200809,21301719,2051171,3101070,2101010,20201309,0,0,31010809,0,4151021,0,0,30111319,31801719,2051091,0,2020121,0
15,177,1404.78738618549,0,0,555082.214163314,555083.261223433,0,30,8,1,0,30,0,3220231,9322293,7051041,3170060,0,0,0,1140181,0,0,2080050,0,0,0,0,0,1000041,0,0,0,4171111,4151141,3051021,0,0,0,0,0,0,4000020,0,0,0,-3170060,0,0,0,0,0,0
15,178,548.776813549921,0,0,555085.673025842,555086.72009828,0,30,8,0,0,15,20,127832336,130225386,90344867,167675964,11910019,0,0,31711609,2190190,0,0,40110409,41910109,20200009,30811719,0,1181131,0,-4010090,11910419,20310609,41801409,1170120,2090131,10200219,2201010,11300709,1170060,30901609,0,31311009,10401709,40711119,0,22010609,21710019,21011319,1020161,30001009,20810019
15,179,1009.54259629361,1,0,555088.320125381,555089.367193199,0,30,8,0,1,32,0,8272412,5242132,4091312,2190001,0,3080050,4011201,1181161,0,0,0,0,0,3051061,0,0,0,0,0,0,0,2191071,0,0,3030131,0,1061181,0,0,0,0,0,0,0,0,-2190001,0,0,0,0
15,180,1330.63669025432,1,0,555091.47312139,555092.520182279,0,30,8,1,1,35,20,103074776,131686797,145024994,94234929,3161150,3100031,11900119,21301319,0,21501419,0,20400719,21710019,20201919,0,3101190,11010009,10310409,40710819,41010409,2191041,3151001,10600319,41111519,0,0,10100409,31301919,21800509,0,30110319,21200219,4180161,21311319,2111121,11000809,0,0,-4030191,30401109
15,181,509.710824815556,0,0,555095.02611301,555096.073179288,0,30,8,1,0,9,5,78065258,9491312,35782921,40310209,20411209,41501909,10001919,0,0,0,3120201,0,-3030020,0,0,0,0,1140101,4170030,0,4181181,0,0,0,1151160,30400419,0,0,0,3071141,1160201,0,0,0,0,0,0,40310209,0,0
15,182,418.781540938653,0,0,555097.77908954,555098.826164672,0,30,8,0,0,4,5,18033779,44923180,61253671,34460300,0,0,11801509,-4141170,0,0,2091100,0,0,0,0,2090121,0,40701919,0,0,0,2131140,0,0,2120021,0,2101131,21910109,4121201,31001209,0,0,0,4150081,0,30310219,0,0,0,0
15,183,941.289525013417,0,0,555100.308548791,555101.355616224,0,30,8,0,0,21,20,134746046,173934154,125656537,169435275,30300619,4050180,4090101,11000919,21511209,20501019,0,40110919,3181080,20200409,0,40311409,40610409,20211309,20800409,0,31800209,0,4151180,42010919,-2111041,21310809,31301319,0,0,20710219,4061050,10200109,0,31410709,40111109,4130150,0,40311609,2070170,41201419
15,184,797.98225115519,0,0,555103.508603763,555104.555665422,0,30,8,0,0,29,0,4180011,4042182,9312291,4070061,0,0,0,0,4180011,0,0,0,0,0,0,0,0,0,2031111,0,2011071,0,0,0,3020080,0,0,2020000,0,3171040,1101171,0,-4070061,0,0,0,0,0,0,0
15,185,828.249153331853,1,0,555106.414521637,555107.461597539,0,30,8,1,1,14,20,107206675,80626277,134396496,120966226,0,32011309,10200019,11401809,10201519,30510519,0,10800419,2081081,21210419,10012019,20500819,0,-4070121,0,0,3031190,21801709,20700119,11500009,0,21100909,4171011,1100150,41211819,3101060,31511419,0,30801319,20500019,30702009,4100040,2051111,0,10910819,21900909
15,186,1044.13224163,1,0,555109.308684682,555110.35575635,0,30,8,0,1,28,10,74653578,82575240,65864477,40102610,0,0,0,41600219,0,0,12011309,20011919,1030131,0,3050181,3191031,21411009,21200509,0,0,2011091,31711419,0,21500319,31901909,0,0,11301119,0,0,1161130,-2110010,0,31801409,0,2031081,0,0,4160110,0
15,187,616.142931394279,1,0,555112.520502568,555113.56757539,0,30,8,1,1,1,10,40442240,75763378,147813677,55892297,-3010200,0,1171001,0,0,4010130,30200819,0,2050090,0,0,0,2181160,2160090,31410919,0,40011209,0,3180041,40411309,0,21811909,40410009,0,0,0,42000409,0,0,4070160,0,0,10500309,20010919,0,21310909
15,188,830.523896380328,1,0,555115.191133706,555116.238210763,0,30,8,1,1,6,0,5092140,1100180,4321362,4170271,0,0,0,0,0,-4021020,0,1071120,0,0,0,0,0,1100180,0,0,0,0,1201131,0,1060180,0,0,2060051,0,0,0,0,3120151,0,0,0,0,0,1050120,0
15,189,924.834690289572,1,0,555118.214739218,555119.261808961,0,30,8,1,1,12,10,90421689,46823659,82873178,85523448,0,4010010,0,41310619,0,0,42010919,3090141,0,3100181,30111919,-3011050,10600509,0,0,0,0,0,20000919,4040050,40811909,0,11910119,3000020,0,0,3110161,0,0,31910419,10910109,0,2191011,0,40511909,0
15,190,686.434378731065,0,0,555121.191228022,555122.238303154,0,30,8,0,0,13,0,1130011,6071311,7231232,6151321,0,0,0,0,0,0,1130011,0,0,0,0,0,-4051181,0,0,2020130,0,0,0,1071110,0,0,0,2130011,4030111,0,0,0,0,0,0,0,3041170,3110151,0,0
15,191,669.437131960876,0,0,555123.991268905,555125.038342497,0,30,8,1,0,17,5,36901608,29064808,36531879,3190251,4080070,0,21310819,0,0,0,11510719,0,0,0,0,0,0,11900619,1020200,10901709,-3111180,2131100,0,0,0,31310809,4120050,0,0,1101020,0,0,0,0,1160190,0,0,0,0,2030061
15,192,828.676076605916,0,0,555126.908986647,555127.956041761,0,30,8,1,0,5,0,11193512,3140041,5110171,0,0,0,0,4010140,-2071120,1070100,0,3041051,1001101,0,0,0,0,0,0,3140041,0,0,4040060,0,1070111,0,0,0,0,0,0,0,0,0,0,0,0,0,0,0
15,193,706.394681357779,0,0,555133.309060791,555134.356136693,0,30,9,0,0,3,5,40471810,100306169,0,24892471,0,4181000,-4180060,0,2110141,0,0,0,30000609,0,30301909,30610719,31011309,0,3041091,0,2160000,3181141,0,0,0,0,0,0,0,0,0,0,0,20701319,0,2121041,0,0,0,2070111
15,194,1042.87495440803,1,0,555136.179702246,555137.226823959,0,30,9,1,1,7,10,67503489,63823837,79767088,70135271,0,0,21111709,0,0,0,-3080041,40311619,3000120,0,0,21911919,0,0,0,0,20711109,21200809,21301719,2051171,3101070,2101010,20201309,0,0,31010809,0,4151021,0,0,30111319,31801719,2051091,0,2020121,0
15,195,837.756185792387,0,0,555139.285631592,555140.332703259,0,30,9,0,0,25,20,160541166,115584875,62676828,91574797,10301919,2011171,4100101,0,41202009,20011219,41701809,21101919,20111019,30100319,10610209,2151100,0,30411209,0,31911919,0,10400119,4050171,0,1051021,11801909,21301119,11000819,-2160180,11311609,0,11410809,20000609,11710319,0,4030111,0,2011121,31201819,11210009
15,196,701.392094488256,0,0,555142.32096306,555143.368032417,0,30,9,0,0,21,0,4343241,3171180,6300270,6190051,0,1031090,0,0,0,0,1131141,2181010,0,0,0,3171180,0,0,0,0,0,0,0,2160180,-4140090,0,0,0,0,0,0,0,0,0,0,2040000,0,0,4150051,0
15,197,1336.76875708625,1,0,555145.085782959,555146.132792263,0,30,9,1,1,26,5,96352167,16173610,39162749,1040101,2100000,0,0,2121130,0,40310809,31110009,20710219,0,3191170,0,0,0,1181131,11801309,0,0,0,0,1030000,0,30800609,3131030,0,0,-4201110,0,0,0,0,0,0,0,0,0,1040101
15,198,835.821364540607,1,0,555148.650480132,555149.697606464,0,30,9,0,1,13,20,144847756,144966417,139236916,111050854,20301019,0,1201161,30511409,41310319,30101109,1121020,20301719,0,0,4180141,30301109,-4101070,0,30811409,41111009,3061170,31400509,3011041,11601819,41900619,0,30600519,41411809,0,0,10711109,30411619,0,10501819,21302009,20001419,11700119,1151110,11911619,4071140
15,199,1089.45964463055,1,1,555151.674063701,555152.721128439,0,30,9,1,0,30,0,3220231,9322293,7051041,3170060,0,0,0,1140181,0,0,2080050,0,0,0,0,0,1000041,0,0,0,4171111,4151141,3051021,0,0,0,0,0,0,4000020,0,0,0,-3170060,0,0,0,0,0,0
15,200,1387.30277703144,1,0,555154.874110205,555155.921179947,0,30,9,1,1,35,20,103074776,131686797,145024994,94234929,3161150,3100031,11900119,21301319,0,21501419,0,20400719,21710019,20201919,0,3101190,11010009,10310409,40710819,41010409,2191041,3151001,10600319,41111519,0,0,10100409,31301919,21800509,0,30110319,21200219,4180161,21311319,2111121,11000809,0,0,-4030191,30401109
15,201,1142.72343320772,1,0,555158.356518961,555159.403580619,0,30,9,0,1,29,10,68094197,90233409,43965349,42440359,3020000,11800909,1161051,11601009,20100409,0,20410819,0,0,4091110,0,41211209,0,41800919,3130171,0,0,0,3171001,4131181,11000519,0,0,10311309,0,11310219,4041120,0,-2130140,0,0,0,0,40310219,0,0
15,202,497.996802674606,0,0,555161.72127588,555162.768336384,0,30,9,0,0,4,5,45351441,37194090,23410428,6040351,4200111,0,30801009,-4090070,4190190,0,0,2070061,0,0,20301309,0,0,4080151,0,0,2201111,10611519,0,11410019,0,0,12000409,0,0,0,0,0,0,0,3010191,0,0,0,3030160,0
15,203,793.189853662625,1,0,555164.286019634,555165.333094381,0,30,9,0,1,27,5,116095176,2020000,26821881,8371172,1061110,31710109,0,0,0,31010819,0,41701419,10611719,0,0,0,0,2020000,0,0,0,0,0,0,21710619,0,1020060,0,0,2071021,-2020181,0,0,0,0,0,4200001,1081000,3090171,0
15,204,918.737655272707,0,0,555167.262563102,555168.309645164,0,30,9,1,0,33,20,121979606,164526248,105315955,159167665,42011019,2091140,0,11602009,3051011,0,21301909,30310909,11611609,30611909,31400319,0,20000519,41601709,31400409,4171141,3200041,2140201,0,0,30900809,10701709,31000919,0,11401009,0,21311509,1171040,2071090,0,11500309,40900819,-2201080,30300409,30111709,40911209
15,205,622.11369886063,1,0,555170.427290071,555171.474355195,0,30,9,1,1,9,5,78065258,9491312,35782921,40310209,20411209,41501909,10001919,0,0,0,3120201,0,-3030020,0,0,0,0,1140101,4170030,0,4181181,0,0,0,1151160,30400419,0,0,0,3071141,1160201,0,0,0,0,0,0,40310209,0,0
15,206,879.136568633839,0,0,555173.133216106,555174.180279305,0,30,9,1,0,5,0,11193512,3140041,5110171,0,0,0,0,4010140,-2071120,1070100,0,3041051,1001101,0,0,0,0,0,0,3140041,0,0,4040060,0,1070111,0,0,0,0,0,0,0,0,0,0,0,0,0,0,0
15,207,646.012937300839,0,0,555176.133261917,555177.180322805,0,30,9,0,0,15,20,110264559,110815737,128618005,155646493,31500309,3071041,41401319,0,0,0,0,31111809,3180081,3020131,40010609,0,20601219,20910709,-3200111,1161120,11901119,10010719,1200170,1040020,3040160,0,20111719,21611709,40512009,30401709,10700509,20100409,11411419,20311109,20900619,0,30601309,0,31710509,20611119
15,208,544.759730459191,0,0,555178.874489393,555179.921572994,0,30,9,1,0,1,10,40442240,75763378,147813677,55892297,-3010200,0,1171001,0,0,4010130,30200819,0,2050090,0,0,0,2181160,2160090,31410919,0,40011209,0,3180041,40411309,0,21811909,40410009,0,0,0,42000409,0,0,4070160,0,0,10500309,20010919,0,21310909
15,209,1239.55034173559,1,0,555181.568634807,555182.61570455,0,30,9,1,1,6,0,5092140,1100180,4321362,4170271,0,0,0,0,0,-4021020,0,1071120,0,0,0,0,0,1100180,0,0,0,0,1201131,0,1060180,0,0,2060051,0,0,0,0,3120151,0,0,0,0,0,1050120,0
15,210,1156.37381642591,1,0,555184.968694707,555186.015769069,0,30,9,1,1,12,10,90421689,46823659,82873178,85523448,0,4010010,0,41310619,0,0,42010919,3090141,0,3100181,30111919,-3011050,10600509,0,0,0,0,0,20000919,4040050,40811909,0,11910119,3000020,0,0,3110161,0,0,31910419,10910109,0,2191011,0,40511909,0
15,211,701.332040247507,0,0,555188.368753452,555189.41581973,0,30,9,1,0,17,5,36901608,29064808,36531879,3190251,4080070,0,21310819,0,0,0,11510719,0,0,0,0,0,0,11900619,1020200,10901709,-3111180,2131100,0,0,0,31310809,4120050,0,0,1101020,0,0,0,0,1160190,0,0,0,0,2030061
15,212,565.785609185696,0,0,555191.28652124,555192.333509756,0,30,9,0,0,28,10,129746368,97635158,11201009,91785230,0,3121091,41110809,0,10202019,40600219,2120041,1181170,31411019,30000419,0,0,0,20211119,4081031,3041180,40301409,0,0,0,0,0,0,0,0,0,11201009,-3151151,0,40501219,4180101,40911609,0,0,3041150,0
15,213,484.56276836805,0,1,555193.98060198,555195.027668258,0,30,9,0,1,8,10,80025248,76382139,17301540,110823207,0,3011150,0,0,40101719,0,21800719,-4010041,11101619,3060081,1010030,0,30410109,0,0,41901919,0,0,4071120,0,0,0,0,0,0,2030001,11200419,4110131,21200119,0,20311119,0,21410909,3180110,0,40610819
15,214,583.135866560042,1,0,555196.615940532,555197.663002575,0,30,9,1,1,14,20,107206675,80626277,134396496,120966226,0,32011309,10200019,11401809,10201519,30510519,0,10800419,2081081,21210419,10012019,20500819,0,-4070121,0,0,3031190,21801709,20700119,11500009,0,21100909,4171011,1100150,41211819,3101060,31511419,0,30801319,20500019,30702009,4100040,2051111,0,10910819,21900909
15,215,1081.08594152145,1,0,555199.263040456,555200.310105579,0,30,9,0,1,32,0,1010110,5221252,4130260,9092392,0,0,0,0,0,1010110,0,0,0,0,0,0,0,0,0,0,4190121,1031131,0,0,0,0,0,1120170,3010090,0,0,0,0,4001111,0,-1000101,0,4091180,0,0
15,216,628.219203208573,0,0,555202.52191153,555203.568981658,0,30,9,0,0,2,0,6370150,2220281,9211251,4101180,4200130,-2170020,0,0,0,0,0,0,0,0,1050150,0,0,0,0,0,1170131,0,0,0,0,4060120,3040121,0,0,0,2111010,0,0,0,0,0,0,0,0,4101180
15,217,670.879971119575,1,0,555208.510272191,555209.557311137,0,30,10,1,1,14,20,107206675,80626277,134396496,120966226,0,32011309,10200019,11401809,10201519,30510519,0,10800419,2081081,21210419,10012019,20500819,0,-4070121,0,0,3031190,21801709,20700119,11500009,0,21100909,4171011,1100150,41211819,3101060,31511419,0,30801319,20500019,30702009,4100040,2051111,0,10910819,21900909
15,218,668.388494290411,0,0,555211.345578328,555212.392654615,0,30,10,1,0,7,10,67503489,63823837,79767088,70135271,0,0,21111709,0,0,0,-3080041,40311619,3000120,0,0,21911919,0,0,0,0,20711109,21200809,21301719,2051171,3101070,2101010,20201309,0,0,31010809,0,4151021,0,0,30111319,31801719,2051091,0,2020121,0
15,219,833.185526658781,0,0,555214.227976921,555215.275036655,0,30,10,1,0,5,0,11193512,3140041,5110171,0,0,0,0,4010140,-2071120,1070100,0,3041051,1001101,0,0,0,0,0,0,3140041,0,0,4040060,0,1070111,0,0,0,0,0,0,0,0,0,0,0,0,0,0,0
15,220,433.830107678659,0,0,555217.26335651,555218.310390451,0,30,10,1,0,9,5,78065258,9491312,35782921,40310209,20411209,41501909,10001919,0,0,0,3120201,0,-3030020,0,0,0,0,1140101,4170030,0,4181181,0,0,0,1151160,30400419,0,0,0,3071141,1160201,0,0,0,0,0,0,40310209,0,0
15,221,589.19171069283,1,0,555219.792768025,555220.839851242,0,30,10,1,1,17,5,36901608,29064808,36531879,3190251,4080070,0,21310819,0,0,0,11510719,0,0,0,0,0,0,11900619,1020200,10901709,-3111180,2131100,0,0,0,31310809,4120050,0,0,1101020,0,0,0,0,1160190,0,0,0,0,2030061
15,222,1083.37839285377,1,0,555222.545755719,555223.592825077,0,30,10,1,1,33,20,121979606,164526248,105315955,159167665,42011019,2091140,0,11602009,3051011,0,21301909,30310909,11611609,30611909,31400319,0,20000519,41601709,31400409,4171141,3200041,2140201,0,0,30900809,10701709,31000919,0,11401009,0,21311509,1171040,2071090,0,11500309,40900819,-2201080,30300409,30111709,40911209
15,223,1474.70541996881,1,0,555225.722299495,555226.769344601,0,30,10,0,1,32,20,184380327,144008846,131534266,95733845,21600719,3190121,2001161,10311109,31210719,31001809,3061051,41702019,40301619,20512019,42010509,0,4030130,21612019,0,11511919,41311209,3021041,31310609,0,4090110,0,41811719,11301309,0,1110010,41910509,20210319,10211319,0,41000619,-2201160,11310209,0,10800219,0
15,224,705.075415084139,0,0,555229.451740961,555230.498816478,0,30,10,1,0,26,5,96352167,16173610,39162749,1040101,2100000,0,0,2121130,0,40310809,31110009,20710219,0,3191170,0,0,0,1181131,11801309,0,0,0,0,1030000,0,30800609,3131030,0,0,-4201110,0,0,0,0,0,0,0,0,0,1040101
15,225,874.428477953188,0,0,555232.357667689,555233.404744361,0,30,10,0,0,25,10,100385519,24662218,31892219,92144238,2111051,22001009,0,40202019,0,0,31901409,4170031,0,0,0,0,11111509,0,3040200,0,10510509,0,0,10611209,0,0,0,0,-1180101,0,20100909,3181070,31201909,20300419,3050090,30210519,0,3100150,1100081,0
15,226,509.395155706443,1,0,555235.41654192,555236.463612048,0,30,10,0,1,13,10,126943504,15612493,74151339,74540879,10711109,11010409,20500909,10810719,40310209,2000140,31600009,0,0,4141180,0,0,-2090011,3100020,3141111,3140171,0,0,0,41910719,0,2040101,0,30200519,0,0,0,0,0,0,3030141,41310719,0,0,30200019,0
15,227,1198.67002498358,1,0,555238.134236257,555239.1812983,0,30,10,0,1,21,0,8362422,3170041,5242421,3081201,0,0,0,0,4191191,0,0,2061090,2110141,0,0,0,0,3170041,0,0,0,0,0,2031071,-1171150,0,0,2040200,0,0,0,0,3081201,0,0,0,0,0,0,0
15,228,453.330380260013,1,0,555241.475463887,555242.52252516,0,30,10,0,1,15,0,7361230,6191180,14104413,0,0,0,3201110,0,0,0,0,4160120,0,0,0,0,0,0,-4010080,0,0,2181100,0,4041071,2011101,0,0,4001100,0,4051141,0,0,0,0,0,0,0,0,0,0
15,229,722.889167140238,0,0,555244.157858322,555245.20492845,0,30,10,0,0,29,5,12971489,73362209,47122689,19622151,0,0,0,0,0,0,11901319,0,1070170,2170051,40010819,0,0,0,1170120,0,0,30011219,0,0,3070170,0,42011419,2041100,0,0,0,0,-3171001,0,0,0,0,10301009,4020081,2130060
15,230,623.187744058669,1,0,555247.063778121,555248.110853638,0,30,10,0,1,3,5,40783589,50101721,22300919,21312019,0,0,-1200140,20810419,0,0,3151050,4010071,11611909,3061060,0,41800309,1000091,0,2040181,2200080,0,0,21110909,0,1190010,0,0,0,0,0,0,0,0,0,0,0,0,0,21312019,0
15,231,1539.3644819269,0,0,555249.887354452,555250.9344292,0,30,10,1,0,6,0,5092140,1100180,4321362,4170271,0,0,0,0,0,-4021020,0,1071120,0,0,0,0,0,1100180,0,0,0,0,1201131,0,1060180,0,0,2060051,0,0,0,0,3120151,0,0,0,0,0,1050120,0
15,232,820.981447352096,0,0,555253.616826715,555254.663888374,0,30,10,0,0,28,20,179184945,121268317,219626993,86322118,31000809,0,0,20911119,40401419,41901319,4160070,40810209,0,3031110,30400819,0,31701019,1140161,10511219,4071171,30211309,10201509,40801119,10510619,40310509,40400419,3040010,2141190,41810209,20601909,20011009,-1080070,0,0,40710319,21801209,2020001,0,20710519,0
15,233,915.44776619412,1,0,555256.593338617,555257.640414134,0,30,10,0,1,27,20,179246593,77493742,164293774,168406415,11610809,21801419,10902009,41310209,41411109,0,0,20510619,31700419,4170120,2131201,4160131,0,20202009,0,40600119,4040151,2190011,11410509,40600119,41301419,12010419,10300809,0,4150110,40400319,-4120070,0,2070030,40801619,21810719,40011819,0,0,31700819,32011409
15,234,817.713886150159,1,0,555259.605150804,555260.652222857,0,30,10,1,1,1,10,40442240,75763378,147813677,55892297,-3010200,0,1171001,0,0,4010130,30200819,0,2050090,0,0,0,2181160,2160090,31410919,0,40011209,0,3180041,40411309,0,21811909,40410009,0,0,0,42000409,0,0,4070160,0,0,10500309,20010919,0,21310909
15,235,1005.08742593229,0,0,555262.534683044,555263.581678489,0,30,10,1,0,35,20,103074776,131686797,145024994,94234929,3161150,3100031,11900119,21301319,0,21501419,0,20400719,21710019,20201919,0,3101190,11010009,10310409,40710819,41010409,2191041,3151001,10600319,41111519,0,0,10100409,31301919,21800509,0,30110319,21200219,4180161,21311319,2111121,11000809,0,0,-4030191,30401109
15,236,1238.76463330816,1,0,555265.628777489,555266.675899972,0,30,10,1,1,12,10,90421689,46823659,82873178,85523448,0,4010010,0,41310619,0,0,42010919,3090141,0,3100181,30111919,-3011050,10600509,0,0,0,0,0,20000919,4040050,40811909,0,11910119,3000020,0,0,3110161,0,0,31910419,10910109,0,2191011,0,40511909,0
15,237,449.228605604731,1,0,555269.099480307,555270.14650193,0,30,10,0,1,4,5,34920420,13660619,59183479,16622293,0,0,0,-4020201,0,0,0,30900219,0,10600419,0,3060200,0,0,0,0,0,0,0,41701819,3190051,11201409,0,3090200,0,0,0,0,1170101,0,2111041,0,1200021,0,2141011,10000119
15,238,1223.62290555611,1,0,555271.770038303,555272.81711844,0,30,10,1,1,30,0,3220231,9322293,7051041,3170060,0,0,0,1140181,0,0,2080050,0,0,0,0,0,1000041,0,0,0,4171111,4151141,3051021,0,0,0,0,0,0,4000020,0,0,0,-3170060,0,0,0,0,0,0
15,239,670.234774122946,0,0,555275.099513799,555276.146575458,0,30,10,0,0,2,0,6372133,3100011,8513340,1051171,0,-1121051,0,0,3200081,2051001,0,0,0,0,0,0,0,3100011,0,0,0,0,0,0,0,3171070,0,1181080,0,0,4161190,0,0,0,0,0,0,0,1051171,0
15,240,604.331898619421,0,0,555278.017224997,555279.064275877,0,30,10,0,0,8,10,16785191,53773528,120565607,108424358,0,10301909,0,0,0,0,1201181,-1111070,4171031,0,3061200,0,0,0,10300609,0,40411719,0,0,0,4180051,20411819,21811509,0,30301209,41700919,2160100,0,1050150,0,4070181,40902009,0,21300509,41101509,0
15,241,953.508617938496,1,0,555284.970257654,555286.017329322,0,30,11,0,1,28,10,75194488,82736689,86162029,34902450,20610209,40301409,0,1090011,0,10001809,0,0,3191050,0,0,2141180,41510909,20801409,0,12010919,2131081,4141191,21810219,1180041,0,1160041,0,0,0,30411309,31600419,-3001131,0,31901319,0,0,0,0,0,0
15,242,890.325117157772,0,0,555288.029125726,555289.076194699,0,30,11,1,0,5,0,11193512,3140041,5110171,0,0,0,0,4010140,-2071120,1070100,0,3041051,1001101,0,0,0,0,0,0,3140041,0,0,4040060,0,1070111,0,0,0,0,0,0,0,0,0,0,0,0,0,0,0
15,243,647.733334335499,0,0,555291.05271199,555292.099783273,0,30,11,1,0,7,10,67503489,63823837,79767088,70135271,0,0,21111709,0,0,0,-3080041,40311619,3000120,0,0,21911919,0,0,0,0,20711109,21200809,21301719,2051171,3101070,2101010,20201309,0,0,31010809,0,4151021,0,0,30111319,31801719,2051091,0,2020121,0
15,244,623.148093000054,0,0,555293.923334582,555294.97040471,0,30,11,0,0,13,5,99047337,11220182,57642340,3130161,41302019,3091050,11411409,0,0,40111809,0,3131050,0,0,0,4070020,-3040161,0,4110001,0,0,0,2010111,0,2020201,41911519,0,0,11700509,0,0,0,0,0,3130161,0,0,0,0,0
15,245,496.137049165554,0,0,555296.676319196,555297.723403567,0,30,11,0,0,25,5,26301840,26630670,27744081,44621849,2151061,0,0,0,20110619,0,0,4040160,0,0,3080170,0,0,0,0,0,2040191,21510309,0,0,0,0,20501819,0,-1101171,4010061,2131030,0,0,0,11310319,2200121,31111409,0,0,0
15,246,427.504019928165,0,0,555299.299889831,555300.346956109,0,30,11,1,0,9,5,78065258,9491312,35782921,40310209,20411209,41501909,10001919,0,0,0,3120201,0,-3030020,0,0,0,0,1140101,4170030,0,4181181,0,0,0,1151160,30400419,0,0,0,3071141,1160201,0,0,0,0,0,0,40310209,0,0
15,247,749.425783287734,1,0,555301.946988599,555302.994056803,0,30,11,1,1,6,0,5092140,1100180,4321362,4170271,0,0,0,0,0,-4021020,0,1071120,0,0,0,0,0,1100180,0,0,0,0,1201131,0,1060180,0,0,2060051,0,0,0,0,3120151,0,0,0,0,0,1050120,0
15,248,481.546587543562,1,0,555304.852908783,555305.89998661,0,30,11,0,1,4,20,52952281,174990024,119035504,111185376,10900309,30610609,0,-4160151,0,0,4190141,0,3091071,0,20311209,40501519,1051121,30002019,21411919,30301409,20900819,10510009,2010110,10500819,30611109,11210519,0,32001819,20800319,0,11900809,31610009,1150080,21901519,10301809,11800509,0,30111319,2190060,2120071
15,249,892.095174407586,1,0,555307.429431232,555308.476497896,0,30,11,1,1,33,20,121979606,164526248,105315955,159167665,42011019,2091140,0,11602009,3051011,0,21301909,30310909,11611609,30611909,31400319,0,20000519,41601709,31400409,4171141,3200041,2140201,0,0,30900809,10701709,31000919,0,11401009,0,21311509,1171040,2071090,0,11500309,40900819,-2201080,30300409,30111709,40911209
15,250,600.448397453874,1,0,555310.453004793,555311.500070686,0,30,11,1,1,14,20,107206675,80626277,134396496,120966226,0,32011309,10200019,11401809,10201519,30510519,0,10800419,2081081,21210419,10012019,20500819,0,-4070121,0,0,3031190,21801709,20700119,11500009,0,21100909,4171011,1100150,41211819,3101060,31511419,0,30801319,20500019,30702009,4100040,2051111,0,10910819,21900909
15,251,860.66799541004,0,0,555313.158913119,555314.205995181,0,30,11,0,0,15,0,7261391,11303362,0,2351130,3071200,0,0,0,0,0,4190191,0,0,3001181,0,3111121,0,0,-2060010,3131050,0,0,0,0,0,0,0,0,0,0,0,0,1161010,0,0,0,1190120,0,0,0
15,252,778.805731912144,1,1,555316.276622316,555317.323743258,0,30,11,1,0,30,0,3220231,9322293,7051041,3170060,0,0,0,1140181,0,0,2080050,0,0,0,0,0,1000041,0,0,0,4171111,4151141,3051021,0,0,0,0,0,0,4000020,0,0,0,-3170060,0,0,0,0,0,0
15,253,644.620528095402,0,0,555319.170786131,555320.217863188,0,30,11,0,0,27,10,74944317,59462580,69360790,80712228,0,0,0,10501419,20200209,0,40011419,1141130,3090140,0,10801109,0,0,3200200,0,2140191,40210919,3110161,20200009,1180121,30410319,0,0,11410109,2070041,0,-4090191,0,0,0,40111619,0,0,0,40600609,0
15,254,1068.15351324622,1,0,555322.05317818,555323.100257162,0,30,11,1,1,35,20,103074776,131686797,145024994,94234929,3161150,3100031,11900119,21301319,0,21501419,0,20400719,21710019,20201919,0,3101190,11010009,10310409,40710819,41010409,2191041,3151001,10600319,41111519,0,0,10100409,31301919,21800509,0,30110319,21200219,4180161,21311319,2111121,11000809,0,0,-4030191,30401109
15,255,487.613595672883,1,0,555325.229703478,555326.27677938,0,30,11,0,1,8,20,119943856,104226609,208055593,112046646,20900209,0,21810109,21111519,0,0,31800519,-3110191,21211309,10802019,1011181,20810009,4010140,30311119,30111019,0,3051031,4120091,41100609,30611309,0,31700419,0,21310409,11911519,31410709,40010619,4181060,40210819,0,0,11800319,1091170,11311509,2150150,41301619
15,256,607.115562073886,1,0,555327.912099838,555328.959176125,0,30,11,0,1,21,0,4070190,6261181,9432192,3111201,1050020,0,0,0,3020170,0,0,0,0,0,3180061,0,0,0,0,3081120,0,0,0,0,-3181051,0,0,3061081,3190060,0,0,0,0,0,0,0,0,0,3111201,0
15,257,712.328877416439,0,0,555330.723913258,555331.771035741,0,30,11,1,0,17,5,36901608,29064808,36531879,3190251,4080070,0,21310819,0,0,0,11510719,0,0,0,0,0,0,11900619,1020200,10901709,-3111180,2131100,0,0,0,31310809,4120050,0,0,1101020,0,0,0,0,1160190,0,0,0,0,2030061
15,258,700.953622232191,0,0,555333.559247498,555334.606313391,0,30,11,1,0,26,5,96352167,16173610,39162749,1040101,2100000,0,0,2121130,0,40310809,31110009,20710219,0,3191170,0,0,0,1181131,11801309,0,0,0,0,1030000,0,30800609,3131030,0,0,-4201110,0,0,0,0,0,0,0,0,0,1040101
15,259,501.931503764354,1,0,555336.512238194,555337.559303702,0,30,11,0,1,29,5,86342199,6221081,55991418,49654421,0,0,3080181,0,41400109,40811809,1050100,0,0,0,0,0,0,0,0,0,2201030,4020051,31301009,3180200,0,21510209,0,0,0,0,0,2051160,-3061121,0,0,4041131,0,40501009,0,0
15,260,1245.51071529277,1,0,555339.182860478,555340.22993561,0,30,11,0,1,32,10,32891959,3091140,159735937,97295477,0,0,0,31801919,1090040,0,0,0,0,0,1031040,0,0,0,2060100,0,0,0,20002009,0,31810109,1110081,31301709,41111609,30210309,1010080,3180031,1051151,30500819,10511219,0,-4130160,10000509,0,41101619,0
15,261,1815.64086338039,0,0,555342.606459677,555343.65357754,0,30,11,1,0,1,10,40442240,75763378,147813677,55892297,-3010200,0,1171001,0,0,4010130,30200819,0,2050090,0,0,0,2181160,2160090,31410919,0,40011209,0,3180041,40411309,0,21811909,40410009,0,0,0,42000409,0,0,4070160,0,0,10500309,20010919,0,21310909
15,262,584.137923782691,1,0,555346.582981972,555347.630044401,0,30,11,1,1,12,10,90421689,46823659,82873178,85523448,0,4010010,0,41310619,0,0,42010919,3090141,0,3100181,30111919,-3011050,10600509,0,0,0,0,0,20000919,4040050,40811909,0,11910119,3000020,0,0,3110161,0,0,31910419,10910109,0,2191011,0,40511909,0
15,263,727.31892997399,0,0,555349.288909547,555350.335977365,0,30,11,0,0,3,20,130397914,87902488,124264987,206846903,31110409,0,-1131170,30610709,11911119,2111080,11611609,31001809,10910009,0,41400309,0,4020090,40310819,1040190,0,0,1131080,10910909,10211419,4160001,30600009,4061101,20900209,40400209,0,3021130,41701819,31800309,20610709,0,30711209,41110319,10001119,0,30911419
15,264,519.106218242086,1,0,555352.183064123,555353.230133866,0,30,11,0,1,2,0,4020350,8402262,3232251,0,2010170,-2010180,0,0,0,0,0,0,0,0,0,4000070,0,1201181,0,3201011,0,0,0,1051190,0,1160051,0,0,0,0,1021010,0,0,0,0,0,0,0,0,0
15,265,821.393742109649,1,0,555357.947850915,555358.994929897,0,30,12,1,1,5,0,11193512,3140041,5110171,0,0,0,0,4010140,-2071120,1070100,0,3041051,1001101,0,0,0,0,0,0,3140041,0,0,4040060,0,1070111,0,0,0,0,0,0,0,0,0,0,0,0,0,0,0
15,266,1003.1868662918,0,0,555360.936139973,555361.983207791,0,30,12,1,0,30,0,3220231,9322293,7051041,3170060,0,0,0,1140181,0,0,2080050,0,0,0,0,0,1000041,0,0,0,4171111,4151141,3051021,0,0,0,0,0,0,4000020,0,0,0,-3170060,0,0,0,0,0,0
15,267,563.924700720236,1,0,555364.030339128,555365.077436973,0,30,12,1,1,12,10,90421689,46823659,82873178,85523448,0,4010010,0,41310619,0,0,42010919,3090141,0,3100181,30111919,-3011050,10600509,0,0,0,0,0,20000919,4040050,40811909,0,11910119,3000020,0,0,3110161,0,0,31910419,10910109,0,2191011,0,40511909,0
15,268,818.833741825074,1,0,555366.724466064,555367.771538501,0,30,12,0,1,25,20,156295863,110324127,120152027,118908067,20500419,0,10211119,20601019,20801509,30511309,31310319,1050050,21310119,1070141,4060070,10302019,20110219,31700219,30510109,0,1071131,11500219,0,0,41910209,4040130,40911509,30200109,-3090070,0,0,11310309,20411509,0,31601319,10211909,1111201,4160001,40101819,0
15,269,626.609290251508,1,0,555369.630428978,555370.677464459,0,30,12,1,1,14,20,107206675,80626277,134396496,120966226,0,32011309,10200019,11401809,10201519,30510519,0,10800419,2081081,21210419,10012019,20500819,0,-4070121,0,0,3031190,21801709,20700119,11500009,0,21100909,4171011,1100150,41211819,3101060,31511419,0,30801319,20500019,30702009,4100040,2051111,0,10910819,21900909
15,270,1123.32633056212,0,0,555372.465736656,555373.512800624,0,30,12,0,0,32,20,113707618,125827284,190927875,127497288,30912009,31201719,4050041,30902019,4110080,2120041,0,0,10411709,21010119,31601119,0,10101609,0,21301809,10611719,31200909,0,41901409,12011119,30701709,40910919,41000609,0,0,3000091,21402019,3070080,40310319,1150201,40711909,-1011040,10111619,1021011,0,30111109
15,271,569.34266211465,0,0,555375.724603495,555376.771674778,0,30,12,0,0,3,0,4191211,4130070,4201000,13671292,0,0,-1030110,0,0,3161101,0,0,0,0,4130070,0,0,0,0,0,0,0,0,0,0,0,0,0,0,4201000,0,0,0,3200101,0,0,4200161,0,3130010,3141020
15,272,722.050334094092,1,0,555378.359942047,555379.4070064,0,30,12,0,1,29,0,3140050,11393412,3041161,4211330,0,0,0,3140050,0,0,0,0,0,4041040,0,0,0,1081141,3160080,3111151,0,0,0,0,0,0,0,0,0,3041161,0,0,-1130140,0,0,0,0,0,0,3081190
15,273,423.434581956826,0,0,555381.336458183,555382.383526771,0,30,12,1,0,9,5,78065258,9491312,35782921,40310209,20411209,41501909,10001919,0,0,0,3120201,0,-3030020,0,0,0,0,1140101,4170030,0,4181181,0,0,0,1151160,30400419,0,0,0,3071141,1160201,0,0,0,0,0,0,40310209,0,0
15,274,511.023161816411,0,0,555383.865905115,555384.912980632,0,30,12,0,0,27,0,9493451,5191021,4222070,3090041,0,4151200,1161200,4181051,0,0,0,0,0,0,0,0,0,0,0,3130010,0,2061011,0,0,0,1161000,0,0,0,0,-3061070,0,0,0,0,0,0,0,0,3090041
15,275,527.680101804435,1,0,555386.454199331,555387.501264839,0,30,12,1,1,26,5,96352167,16173610,39162749,1040101,2100000,0,0,2121130,0,40310809,31110009,20710219,0,3191170,0,0,0,1181131,11801309,0,0,0,0,1030000,0,30800609,3131030,0,0,-4201110,0,0,0,0,0,0,0,0,0,1040101
15,276,1157.84283308312,0,0,555389.054234132,555390.101294635,0,30,12,0,0,4,10,99305978,4090130,84585699,95812968,10210619,20810119,42001719,-2081111,0,4001201,0,0,20201209,0,0,0,0,0,0,0,0,4090130,3051120,3040011,0,1100001,41301119,0,11201609,4181020,20710819,0,0,0,0,31301309,0,2090131,31410809,31010719
15,277,455.002657137811,0,0,555392.371924388,555393.418994901,0,30,12,0,0,15,10,41401869,69334169,76506127,84591707,11510009,0,21510619,3170000,0,0,4050171,1161070,0,31911719,4041090,0,0,31311309,-2070051,0,0,0,0,2061090,30901709,0,2041200,0,11400109,30102019,0,31300619,0,40100309,0,0,11000719,0,0,2190060
15,278,488.120591267943,1,0,555395.030789149,555396.077856582,0,30,12,0,1,13,5,37740481,35643029,40812138,10381271,2040101,31610319,0,4090061,0,0,0,0,0,2200200,0,1161080,-2070111,0,0,10201619,0,20010019,0,30700919,0,0,0,0,0,0,10111219,0,0,0,0,0,3161090,0,3140051,4080130
15,279,633.019299944863,1,0,555397.619066812,555398.666136554,0,30,12,1,1,7,10,67503489,63823837,79767088,70135271,0,0,21111709,0,0,0,-3080041,40311619,3000120,0,0,21911919,0,0,0,0,20711109,21200809,21301719,2051171,3101070,2101010,20201309,0,0,31010809,0,4151021,0,0,30111319,31801719,2051091,0,2020121,0
15,280,656.590550323017,1,1,555400.501467715,555401.548534378,0,30,12,0,0,2,5,25201940,53311818,28541690,49522642,0,-4110011,0,0,1090010,0,0,20001919,0,0,0,31611409,0,0,21700409,0,0,0,4071041,0,0,20310609,0,0,4160040,0,0,2060041,2201141,0,0,40900109,0,0,3200170,1161181
15,281,820.486385608092,0,0,555403.301508213,555404.348581035,0,30,12,1,0,33,20,121979606,164526248,105315955,159167665,42011019,2091140,0,11602009,3051011,0,21301909,30310909,11611609,30611909,31400319,0,20000519,41601709,31400409,4171141,3200041,2140201,0,0,30900809,10701709,31000919,0,11401009,0,21311509,1171040,2071090,0,11500309,40900819,-2201080,30300409,30111709,40911209
15,282,708.046555286273,1,0,555406.289788031,555407.336870478,0,30,12,1,1,1,10,40442240,75763378,147813677,55892297,-3010200,0,1171001,0,0,4010130,30200819,0,2050090,0,0,0,2181160,2160090,31410919,0,40011209,0,3180041,40411309,0,21811909,40410009,0,0,0,42000409,0,0,4070160,0,0,10500309,20010919,0,21310909
15,283,854.796548257582,0,0,555409.231052001,555410.278082093,0,30,12,1,0,17,5,36901608,29064808,36531879,3190251,4080070,0,21310819,0,0,0,11510719,0,0,0,0,0,0,11900619,1020200,10901709,-3111180,2131100,0,0,0,31310809,4120050,0,0,1101020,0,0,0,0,1160190,0,0,0,0,2030061
15,284,572.423901525326,0,0,555412.254582061,555413.301658733,0,30,12,0,0,8,20,146066556,160167587,130415975,122914146,31210619,40900919,4021050,3061041,22011009,30701209,10000709,-4160000,0,3190111,30011209,3141081,40811919,30710719,1180130,0,20011509,31110909,11001509,11600309,2051081,41400019,21311509,1041130,0,11310109,30700309,0,0,31201119,0,40401509,0,10500809,40810709,0
15,285,1214.47658294346,1,0,555414.913458756,555415.960528114,0,30,12,0,1,21,5,4312150,80412317,32823408,4361311,2161070,0,0,0,0,0,2151080,0,0,2160130,21000009,12010509,0,0,1200110,0,40911419,3130140,11411719,0,-1201180,0,0,20210509,0,0,0,0,0,0,0,0,2181110,0,0,2180201
15,286,825.186777045019,1,0,555418.313511342,555419.3605807,0,30,12,1,1,6,0,5092140,1100180,4321362,4170271,0,0,0,0,0,-4021020,0,1071120,0,0,0,0,0,1100180,0,0,0,0,1201131,0,1060180,0,0,2060051,0,0,0,0,3120151,0,0,0,0,0,1050120,0
15,287,1307.50237230677,1,0,555421.372378259,555422.419447231,0,30,12,1,1,35,20,103074776,131686797,145024994,94234929,3161150,3100031,11900119,21301319,0,21501419,0,20400719,21710019,20201919,0,3101190,11010009,10310409,40710819,41010409,2191041,3151001,10600319,41111519,0,0,10100409,31301919,21800509,0,30110319,21200219,4180161,21311319,2111121,11000809,0,0,-4030191,30401109
15,288,586.374170612544,0,0,555424.866536453,555425.9136189,0,30,12,0,0,28,10,94384629,106804308,37455108,12100399,41800519,10510719,0,31700109,3141120,2090031,1081080,0,4061051,31311509,0,0,0,30300719,0,41000909,4191171,0,0,10611309,10701619,0,0,0,2200201,11800909,2141070,-2000090,0,10100309,0,0,0,0,0,0
15,289,734.789511188865,1,0,555430.749049381,555431.796060609,0,30,13,0,1,28,0,11422201,0,7230141,3241200,0,0,0,0,0,2180011,3181020,2030020,4031150,0,0,0,0,0,0,0,0,0,0,3200071,0,4030070,0,0,0,0,0,-1061010,0,0,2180190,0,0,0,0,0
15,290,491.034371894784,0,1,555433.666689746,555434.713761028,0,30,13,1,1,26,5,96352167,16173610,39162749,1040101,2100000,0,0,2121130,0,40310809,31110009,20710219,0,3191170,0,0,0,1181131,11801309,0,0,0,0,1030000,0,30800609,3131030,0,0,-4201110,0,0,0,0,0,0,0,0,0,1040101
15,291,1013.49731546361,0,0,555436.349078407,555437.396150459,0,30,13,1,0,5,0,11193512,3140041,5110171,0,0,0,0,4010140,-2071120,1070100,0,3041051,1001101,0,0,0,0,0,0,3140041,0,0,4040060,0,1070111,0,0,0,0,0,0,0,0,0,0,0,0,0,0,0
15,292,984.097733628005,1,0,555439.478548206,555440.525613714,0,30,13,0,1,13,10,54142737,121475518,6260091,49204639,0,0,10511009,10010619,0,3111000,30510109,0,0,40700209,3141161,0,-3110180,21701419,0,30510419,2011121,20301009,0,0,0,0,4180080,0,0,0,2080011,4171151,0,0,10210419,10611209,0,0,4100041,20111819
15,293,645.909382379614,0,0,555442.525647976,555443.572713099,0,30,13,0,0,3,20,89914936,161955955,66115386,151433656,10610909,11210509,-3000141,10111319,0,0,11100409,40810609,3071040,30810809,40411409,11400619,1170060,1031030,41610519,31400319,0,4121190,0,11600719,1180101,0,10411909,0,20510319,11101019,11311319,4160041,32010209,0,30100609,2141150,31101419,0,41010019,10910209
15,294,524.968426325358,1,0,555445.431573163,555446.478645601,0,30,13,1,1,7,10,67503489,63823837,79767088,70135271,0,0,21111709,0,0,0,-3080041,40311619,3000120,0,0,21911919,0,0,0,0,20711109,21200809,21301719,2051171,3101070,2101010,20201309,0,0,31010809,0,4151021,0,0,30111319,31801719,2051091,0,2020121,0
15,295,691.639840835705,1,0,555448.113966829,555449.161039652,0,30,13,0,1,32,0,4220291,1140090,5110011,7202371,0,0,0,0,0,0,3060191,1160100,0,0,0,0,1140090,0,0,0,0,0,0,2050001,0,3060010,0,0,0,0,0,0,0,0,0,-4011140,0,2041151,0,1150080
15,296,1074.59124014713,1,0,555450.914010792,555451.961083999,0,30,13,0,1,29,10,52432348,55191169,71723808,121365859,10500019,0,0,0,40901319,0,0,0,1031010,0,0,0,4080151,0,30600209,0,20510809,0,0,0,0,3150110,2170170,20600319,21402019,20210009,4191181,0,-2040191,41411119,40611519,0,3161051,3041170,0,31100809
15,297,424.402377568185,0,0,555454.208182922,555455.25525074,0,30,13,1,0,9,5,78065258,9491312,35782921,40310209,20411209,41501909,10001919,0,0,0,3120201,0,-3030020,0,0,0,0,1140101,4170030,0,4181181,0,0,0,1151160,30400419,0,0,0,3071141,1160201,0,0,0,0,0,0,40310209,0,0
15,298,1018.73126486316,1,0,555456.819992184,555457.867046144,0,30,13,1,1,6,0,5092140,1100180,4321362,4170271,0,0,0,0,0,-4021020,0,1071120,0,0,0,0,0,1100180,0,0,0,0,1201131,0,1060180,0,0,2060051,0,0,0,0,3120151,0,0,0,0,0,1050120,0
15,299,825.142506277189,0,0,555460.043571827,555461.090633486,0,30,13,0,0,27,5,21694151,4180031,71165338,36432180,0,4171200,0,3010031,11311719,0,0,0,3201201,0,0,0,0,0,4180031,0,0,0,0,0,0,0,3001130,31500809,21701719,11900509,-3061171,0,0,0,0,0,2141151,3080020,31211009,0
15,300,457.524546072818,0,0,555462.925964646,555463.973035158,0,30,13,0,0,8,20,108195877,170677754,108447347,163274867,10301809,20011019,0,2040100,0,0,31600209,-3041021,41201719,0,41911609,2041160,11711019,0,11701319,41210709,21000419,41101519,0,4181091,20401919,1041071,41210219,0,20712019,10900509,10000519,41710309,41900219,11700819,4000201,31711419,0,1050131,1190150,30011619
15,301,694.422349450178,1,0,555465.514244233,555466.561311666,0,30,13,1,1,12,10,90421689,46823659,82873178,85523448,0,4010010,0,41310619,0,0,42010919,3090141,0,3100181,30111919,-3011050,10600509,0,0,0,0,0,20000919,4040050,40811909,0,11910119,3000020,0,0,3110161,0,0,31910419,10910109,0,2191011,0,40511909,0
15,302,833.563944790512,0,0,555468.373106222,555469.420184435,0,30,13,1,0,14,20,107206675,80626277,134396496,120966226,0,32011309,10200019,11401809,10201519,30510519,0,10800419,2081081,21210419,10012019,20500819,0,-4070121,0,0,3031190,21801709,20700119,11500009,0,21100909,4171011,1100150,41211819,3101060,31511419,0,30801319,20500019,30702009,4100040,2051111,0,10910819,21900909
15,303,409.034291864373,0,0,555471.314327847,555472.361400285,0,30,13,0,0,15,20,80267096,136377036,135044794,117275207,0,20511919,20011319,10100909,2060150,4071051,11600209,1101030,10810509,4021040,41110809,21110909,0,41011709,-4090160,11901519,12010719,1120171,0,20200109,10710719,41612019,20200819,31211109,0,11110019,0,20601319,40801209,40900309,0,0,2161160,1110191,0,11701019
15,304,749.594396795146,0,0,555473.784960602,555474.832027265,0,30,13,0,0,2,5,86733628,29841280,5211251,31152531,0,-4001091,0,31210419,40911809,0,0,0,10610309,0,21500019,4200131,4141130,0,0,0,0,0,0,0,0,1080160,4131091,0,0,0,0,20910019,0,0,3070161,4091181,0,0,3081170,0
15,305,1483.46408549696,1,0,555476.785007182,555477.832068841,0,30,13,1,1,35,20,103074776,131686797,145024994,94234929,3161150,3100031,11900119,21301319,0,21501419,0,20400719,21710019,20201919,0,3101190,11010009,10310409,40710819,41010409,2191041,3151001,10600319,41111519,0,0,10100409,31301919,21800509,0,30110319,21200219,4180161,21311319,2111121,11000809,0,0,-4030191,30401109
15,306,810.51123875659,1,0,555480.420349968,555481.467422791,0,30,13,1,1,30,0,3220231,9322293,7051041,3170060,0,0,0,1140181,0,0,2080050,0,0,0,0,0,1000041,0,0,0,4171111,4151141,3051021,0,0,0,0,0,0,4000020,0,0,0,-3170060,0,0,0,0,0,0
15,307,593.098694575019,0,0,555483.467464367,555484.51453488,0,30,13,0,0,21,10,58713530,67415680,66672997,65856787,0,1200121,41401409,0,0,4111181,12000819,0,0,1171181,0,0,0,41410819,1051170,21711409,2071101,0,31801519,0,-4150150,20610219,0,10111109,0,0,0,0,1111140,0,21512009,2111010,31110719,10011909,0,0
15,308,689.705789554864,1,0,555486.314597321,555487.361637806,0,30,13,1,1,1,10,40442240,75763378,147813677,55892297,-3010200,0,1171001,0,0,4010130,30200819,0,2050090,0,0,0,2181160,2160090,31410919,0,40011209,0,3180041,40411309,0,21811909,40410009,0,0,0,42000409,0,0,4070160,0,0,10500309,20010919,0,21310909
15,309,837.023987085558,0,0,555489.067581165,555490.11462165,0,30,13,1,0,17,5,36901608,29064808,36531879,3190251,4080070,0,21310819,0,0,0,11510719,0,0,0,0,0,0,11900619,1020200,10901709,-3111180,2131100,0,0,0,31310809,4120050,0,0,1101020,0,0,0,0,1160190,0,0,0,0,2030061
15,310,1004.68860485125,0,0,555492.067605802,555493.114662841,0,30,13,0,0,25,0,0,7180362,6361111,10101270,0,0,0,0,0,0,0,0,0,3030161,0,0,1140180,3010021,0,0,0,0,0,0,0,4191020,0,0,-2170091,0,0,0,0,0,4090110,0,2010090,0,0,4001070
15,311,678.57729527168,0,0,555495.161751832,555496.208828889,0,30,13,0,0,4,5,4521371,23310790,84701578,73263869,0,1150171,0,-2200010,1171190,0,0,0,0,0,0,4090040,4040120,0,4170111,0,0,11010519,0,2100150,41700919,0,40900509,0,0,0,0,0,0,31101109,0,41011609,0,1151151,0,0
15,312,934.424104867503,0,0,555498.008862843,555499.055930661,0,30,13,1,0,33,20,121979606,164526248,105315955,159167665,42011019,2091140,0,11602009,3051011,0,21301909,30310909,11611609,30611909,31400319,0,20000519,41601709,31400409,4171141,3200041,2140201,0,0,30900809,10701709,31000919,0,11401009,0,21311509,1171040,2071090,0,11500309,40900819,-2201080,30300409,30111709,40911209
15,313,414.627411169931,0,0,555504.220719609,555505.267790892,0,30,14,1,0,9,5,78065258,9491312,35782921,40310209,20411209,41501909,10001919,0,0,0,3120201,0,-3030020,0,0,0,0,1140101,4170030,0,4181181,0,0,0,1151160,30400419,0,0,0,3071141,1160201,0,0,0,0,0,0,40310209,0,0
15,314,775.119331665337,1,0,555506.703115277,555507.75018271,0,30,14,1,1,33,20,121979606,164526248,105315955,159167665,42011019,2091140,0,11602009,3051011,0,21301909,30310909,11611609,30611909,31400319,0,20000519,41601709,31400409,4171141,3200041,2140201,0,0,30900809,10701709,31000919,0,11401009,0,21311509,1171040,2071090,0,11500309,40900819,-2201080,30300409,30111709,40911209
15,315,1749.66176529415,0,0,555509.573746723,555510.620815311,0,30,14,1,0,1,10,40442240,75763378,147813677,55892297,-3010200,0,1171001,0,0,4010130,30200819,0,2050090,0,0,0,2181160,2160090,31410919,0,40011209,0,3180041,40411309,0,21811909,40410009,0,0,0,42000409,0,0,4070160,0,0,10500309,20010919,0,21310909
15,316,891.874591005035,1,0,555513.491459461,555514.538526124,0,30,14,1,1,26,5,96352167,16173610,39162749,1040101,2100000,0,0,2121130,0,40310809,31110009,20710219,0,3191170,0,0,0,1181131,11801309,0,0,0,0,1030000,0,30800609,3131030,0,0,-4201110,0,0,0,0,0,0,0,0,0,1040101
15,317,1022.26445020642,0,0,555516.573851818,555517.620934264,0,30,14,0,0,2,20,128127185,153225817,207054534,90458106,0,-2001010,0,11501109,31201419,0,20311019,31401219,31711409,3090021,0,30810919,4070021,31402009,40600519,2050000,30601209,10601119,41010019,0,20801919,40810419,41810109,0,30610119,2011130,30000819,2171090,2031160,3131100,11101109,21411719,10400009,0,40211919,0
15,318,432.22250463441,0,0,555519.820971914,555520.868035882,0,30,14,1,0,14,20,107206675,80626277,134396496,120966226,0,32011309,10200019,11401809,10201519,30510519,0,10800419,2081081,21210419,10012019,20500819,0,-4070121,0,0,3031190,21801709,20700119,11500009,0,21100909,4171011,1100150,41211819,3101060,31511419,0,30801319,20500019,30702009,4100040,2051111,0,10910819,21900909
15,319,590.671891230159,0,0,555522.444544088,555523.491608826,0,30,14,0,0,21,5,34692798,5112131,31245670,43852600,10501809,22010809,0,0,2180180,0,0,0,0,0,4081080,0,0,0,1031051,0,0,0,10200519,1041111,-3140080,4001170,1161081,11701709,0,0,0,0,41811409,0,0,0,0,0,0,2041191
15,320,560.64174103085,0,0,555525.091639007,555526.138696047,0,30,14,0,0,29,0,4201010,6131211,4170061,7623382,0,0,0,0,0,0,0,4201010,0,4081010,0,0,0,0,0,2050201,0,0,0,0,0,4170061,0,0,0,0,0,0,-1131040,3141151,2191171,0,0,1160020,0,0
15,321,672.372085624374,1,0,555527.879910819,555528.926983256,0,30,14,0,1,13,5,52401818,10373261,39141530,38930209,20701409,0,0,0,0,0,0,31700409,0,3111021,2170110,0,-1091040,0,4001090,0,0,0,4130090,32000409,0,0,0,0,0,3011031,0,2160050,21810119,0,0,0,3150031,0,0,11810009
15,322,468.832432990894,0,0,555530.668197258,555531.715318971,0,30,14,0,0,28,5,66003398,57943370,5091281,18383220,4200180,0,0,0,0,31001809,0,30801409,0,4130161,30610209,2191181,0,0,0,21011819,0,0,0,4001131,0,1090150,0,0,0,0,0,-4061150,0,11101919,0,2150100,0,1070051,0,0
15,323,410.66037316341,1,0,555533.350588614,555534.397656047,0,30,14,0,1,27,10,42510957,65027040,68982328,75963549,0,10310719,0,10500219,21700019,0,0,0,0,3041151,10211819,1110100,12001219,3000031,31611709,0,0,4051011,22000919,3130180,0,0,41810119,0,0,0,-2041110,0,1201020,0,31201809,41410709,0,0,2150011,0
15,324,981.857252190821,0,0,555535.915322359,555536.962415969,0,30,14,1,0,7,10,67503489,63823837,79767088,70135271,0,0,21111709,0,0,0,-3080041,40311619,3000120,0,0,21911919,0,0,0,0,20711109,21200809,21301719,2051171,3101070,2101010,20201309,0,0,31010809,0,4151021,0,0,30111319,31801719,2051091,0,2020121,0
15,325,999.649446457624,0,0,555539.05656123,555540.103627508,0,30,14,0,0,3,10,42585569,78664817,24471800,116175667,4090060,0,-2061031,21011609,11311819,4111050,0,0,0,20300219,0,0,0,0,20811819,3160200,30201509,4191070,2110160,0,0,0,0,0,2151021,0,20210619,0,0,2161201,30901709,0,31312019,0,10700119,41100619
15,326,467.012330424041,1,0,555542.186019095,555543.233089993,0,30,14,1,1,30,0,3220231,9322293,7051041,3170060,0,0,0,1140181,0,0,2080050,0,0,0,0,0,1000041,0,0,0,4171111,4151141,3051021,0,0,0,0,0,0,4000020,0,0,0,-3170060,0,0,0,0,0,0
15,327,917.014178354293,1,0,555544.774358736,555545.821353797,0,30,14,1,1,5,0,11193512,3140041,5110171,0,0,0,0,4010140,-2071120,1070100,0,3041051,1001101,0,0,0,0,0,0,3140041,0,0,4040060,0,1070111,0,0,0,0,0,0,0,0,0,0,0,0,0,0,0
15,328,1191.93241233006,1,1,555547.939101874,555548.986130041,0,30,14,1,0,6,0,5092140,1100180,4321362,4170271,0,0,0,0,0,-4021020,0,1071120,0,0,0,0,0,1100180,0,0,0,0,1201131,0,1060180,0,0,2060051,0,0,0,0,3120151,0,0,0,0,0,1050120,0
15,329,513.998921611346,1,0,555551.339107109,555552.386204185,0,30,14,0,1,8,0,4100220,2171090,4132192,7411563,0,0,0,3040040,0,0,0,-1060180,0,0,0,0,2171090,0,0,0,0,0,3111081,1021111,0,0,0,0,0,0,0,0,0,2090181,2181201,0,0,3140181,0,0
15,330,1538.69965171907,1,0,555554.033311423,555555.080335355,0,30,14,1,1,35,20,103074776,131686797,145024994,94234929,3161150,3100031,11900119,21301319,0,21501419,0,20400719,21710019,20201919,0,3101190,11010009,10310409,40710819,41010409,2191041,3151001,10600319,41111519,0,0,10100409,31301919,21800509,0,30110319,21200219,4180161,21311319,2111121,11000809,0,0,-4030191,30401109
15,331,786.543092108332,0,0,555557.727472621,555558.774504252,0,30,14,0,0,32,20,155437084,95125859,148364807,90657297,41711119,0,11301109,30001219,20700609,0,30011319,21711709,0,31710609,4051011,1131081,4200121,10811909,0,11410409,31810719,0,41210309,0,20100819,1091111,30910909,41100609,10810909,0,3140141,10810209,10910819,10800009,40311219,-3111151,3021120,1081061,10611709,0
15,332,463.39676331263,1,0,555560.680422126,555561.727498413,0,30,14,0,1,15,10,68114628,25724538,113124466,24544141,40900619,10810219,0,0,0,3001111,2001070,0,11401609,0,0,11701809,0,10800609,-1171110,0,2051010,0,0,0,0,31000609,40301619,0,0,20311319,21510919,0,0,11302009,4020030,0,0,2101041,3101021,4020040
15,333,745.309379883111,1,0,555563.327525899,555564.374587173,0,30,14,0,1,25,20,106058357,178796865,164753033,50962078,3071110,0,0,10301219,31211619,4071160,41601919,4190111,11611219,40710509,3151071,0,20301219,42001919,20010519,42010509,0,10611119,11602019,32001019,40011809,21901809,10511209,10501709,-4081100,3041150,31101209,4190031,0,22011019,11700019,0,0,0,3060190,10000819
15,334,1341.61350945942,0,0,555566.186394818,555567.233468796,0,30,14,0,0,4,0,12511533,2161181,0,3251331,1020201,3101061,4120081,-2200030,0,0,2070160,0,0,0,0,0,0,0,0,0,2161181,0,0,0,0,0,0,0,0,0,0,2171141,0,0,0,0,0,1080190,0,0
15,335,943.190084537491,0,0,555569.715862923,555570.76294768,0,30,14,1,0,17,5,36901608,29064808,36531879,3190251,4080070,0,21310819,0,0,0,11510719,0,0,0,0,0,0,11900619,1020200,10901709,-3111180,2131100,0,0,0,31310809,4120050,0,0,1101020,0,0,0,0,1160190,0,0,0,0,2030061
15,336,694.085122318938,1,0,555572.715905654,555573.762974242,0,30,14,1,1,12,10,90421689,46823659,82873178,85523448,0,4010010,0,41310619,0,0,42010919,3090141,0,3100181,30111919,-3011050,10600509,0,0,0,0,0,20000919,4040050,40811909,0,11910119,3000020,0,0,3110161,0,0,31910419,10910109,0,2191011,0,40511909,0
15,337,469.421810470521,1,0,555579.445420648,555580.49249116,0,30,15,0,1,8,10,18801751,47680511,119607917,137733577,0,0,0,0,4191201,0,0,-4200041,10410509,0,0,40410219,0,0,2070101,4050150,1150041,0,30011919,0,2090121,0,41211819,11201219,4091020,0,31001819,0,0,31900909,0,41911219,30001219,30910219,0,3010011
