sub_id,Trial,RT,Resp,Error,Fix_onset,Disp_onset,q1,q2,block,repeat,tid,tloc,d_setsize,quad1,quad2,quad3,quad4,loc1,loc2,loc3,loc4,loc5,loc6,loc7,loc8,loc9,loc10,loc11,loc12,loc13,loc14,loc15,loc16,loc17,loc18,loc19,loc20,loc21,loc22,loc23,loc24,loc25,loc26,loc27,loc28,loc29,loc30,loc31,loc32,loc33,loc34,loc35,loc36
12,1,1638.08290145607,1,0,28366.6585649355,28367.7056591347,0,15,1,1,1,25,10,85394157,42293551,107627557,49644359,20901909,40711809,0,0,0,0,2180120,0,21600319,0,3071141,0,31000909,0,0,2091200,4040140,2090161,41601119,0,10701619,0,0,0,-3101181,41511619,10712019,0,0,3150120,31512019,0,11801209,0,0,3181011
12,2,1160.42449579618,1,0,28370.5292773365,28371.5763542125,0,15,1,1,1,29,0,9152252,1041121,9452373,3010051,0,4141080,2000041,3011131,0,0,0,0,0,0,0,0,0,0,1041121,0,0,0,0,0,0,0,0,4091141,0,2191141,3170091,0,-3010051,0,0,0,0,0,0,0
12,3,1677.72541131126,0,0,28373.7999568619,28374.8470414371,0,15,1,0,0,9,10,45144920,93633946,96082379,27912109,11811219,0,0,2101131,0,30201509,0,0,-1031061,0,40710419,0,0,0,11801709,0,30411709,10710109,31700009,0,1091181,4201010,2130060,21600009,0,4150101,31210009,0,0,0,0,21711919,2130170,0,0,4070020
12,4,1447.83018998714,0,0,28377.6588879177,28378.7177927192,0,15,1,1,0,6,0,3000051,6170211,6302321,4291141,0,0,0,0,0,-3000051,0,0,0,0,0,2110181,0,0,4060030,0,0,0,0,1081130,0,0,0,0,0,3091051,2130140,0,2200100,0,2091041,0,0,0,0,0
12,5,1015.38775897279,1,0,28381.2472314538,28382.2943125643,0,15,1,0,1,30,5,85421428,7220282,41595202,25594739,0,0,3110000,0,41510709,0,40800719,0,0,0,0,0,3130161,0,0,4090121,0,0,0,0,4011061,4151131,0,31401909,2031101,0,0,0,1080020,-1191181,11812019,0,0,11511519,0,0
12,6,1211.57156397385,0,0,28384.423849618,28385.4708745242,0,15,1,0,0,32,10,102823337,38433530,90146957,66915839,0,0,30611109,0,0,41110719,0,31101509,0,3150160,31201119,0,0,0,2081100,0,2001151,0,0,0,22011319,3131090,40110709,20601609,0,1201080,3091150,10210819,20611809,0,30912019,-4171101,0,0,1010091,0
12,7,875.054090211052,0,0,28387.7885889647,28388.8356762346,0,15,1,0,0,34,20,76284548,130649685,177395534,125935466,31201709,0,21000609,20001219,0,0,0,4081011,0,2111070,11811709,2170120,40411319,30402019,10400909,2141121,20600209,10601209,30210409,20500219,1161160,0,40801719,31910009,0,31410009,21402009,31810209,31510419,31611519,10300919,10510019,0,-4080140,2021201,4091040
12,8,1606.91068763481,1,0,28390.8474991557,28391.8946445547,0,15,1,0,1,12,20,90815497,118316776,130074597,130839735,10300219,4011030,0,11610709,10711619,31200619,1130121,1150071,20701109,4101011,30112009,-1190050,20000609,20311009,2090060,10210209,0,30301819,41400319,21210319,0,31911209,0,0,0,4151031,31401719,12011619,30911309,0,30112009,21401609,21401019,10902009,0,4100161
12,9,798.103858731338,1,0,28394.5652496286,28395.6123338188,0,15,1,1,1,15,0,3172200,7261201,1061191,7332270,0,0,1071050,0,0,0,0,2101150,0,0,0,3180051,0,0,-4081150,0,0,0,0,0,0,1061191,0,0,0,0,0,0,0,2151080,0,0,0,1041180,0,4140010
12,10,1311.65833417253,0,0,28397.5535957054,28398.6007091526,0,15,1,0,0,18,5,1110090,29693640,54454408,46044229,0,0,1110090,0,0,0,0,0,0,4070141,3031040,0,0,20511409,0,0,0,-2081050,0,1001190,30810619,0,0,0,0,1141190,21501409,0,0,11601109,0,0,0,31300919,2081101,1061100
12,11,759.148504195764,1,0,28400.9301418049,28401.9772202207,0,15,1,1,1,22,20,135559313,135835775,66185499,141407588,21310619,0,10911619,0,10711419,20311809,41701909,10600819,20011119,31611109,30501219,0,0,0,31111219,0,21111519,21500709,3011181,10910419,11911309,-4170121,4160170,1021180,0,31001119,0,20011219,1010061,2030001,1111001,40901519,3131060,21001109,41901409,10310209
12,12,1035.14087581061,0,0,28403.7890482232,28404.8361308735,0,15,1,1,0,24,5,24891269,44432318,6472332,24860429,2060091,0,10800509,0,0,1130160,10900509,0,0,0,2011190,30710219,0,0,0,0,0,11710909,0,2151170,1111101,0,2040010,-1170051,0,0,0,20810419,0,0,0,0,0,4050010,0,0
12,13,1430.32716996822,1,0,28407.0479587221,28408.0950429123,0,15,1,1,1,26,10,58272899,106713457,45961219,103424049,0,4041090,0,11210119,0,0,0,1110171,41911519,0,10601619,30300119,0,20901209,0,0,3000001,41910509,41911019,0,0,0,0,0,0,-4050200,0,0,40910809,21101819,2021190,3190031,30000019,3080040,3120141,0
12,14,1150.93636298843,1,0,28410.5304291397,28411.5775056307,0,15,1,0,1,27,20,160534615,125459306,136644787,86476216,41410019,20710319,0,11110119,2161090,41000909,20411209,20610819,3120131,20802019,4121070,21101209,21711819,2181070,41910609,2121091,11510419,0,0,10400219,31710819,20911519,30310019,0,1151031,40101109,-2060071,20502019,31500809,0,10911719,0,0,2160160,0,21401509
12,15,1696.24357338762,1,0,28413.8128611383,28414.8599472533,0,15,1,0,1,19,0,4101100,4051141,10162240,9242201,0,4101100,0,0,0,0,0,0,0,0,0,0,0,4051141,0,0,0,0,-4020170,0,0,0,0,0,2101010,0,4041060,0,0,4091110,0,3000010,0,2151081,0,0
12,16,765.083447331563,1,0,28417.7541457376,28418.8012322376,0,15,1,0,1,10,0,2152170,1201201,8181152,6351151,1121070,0,0,0,0,1031100,0,0,0,-1201201,0,0,0,0,0,0,0,0,0,0,0,2011040,0,0,0,2090031,4080081,3200040,0,0,0,3151111,0,0,0,0
12,17,913.156371254445,1,0,28420.7189333585,28421.7660179337,0,15,1,1,1,2,20,132255926,133336107,188586985,146338477,11000719,-4040000,0,1081190,3021080,0,40601709,31500019,41011209,30510109,40610819,0,0,22011409,4020071,11901409,3171181,21111109,0,10501719,30410719,21911919,0,40200819,40701619,40810019,4050171,31200309,20101309,1121031,20611609,0,1181101,31711409,40411709,0
12,18,607.784933974472,1,0,28423.8602024824,28424.9073374875,0,15,1,1,1,8,10,46771182,85405857,145996047,59726449,40610909,0,0,0,0,3110011,0,-1000141,2050121,31502009,0,11012009,0,0,0,40801809,2090030,0,0,30110809,0,41711619,41901809,30110709,0,0,2161101,1121180,1171131,0,11811919,41611209,0,0,0,4011010
12,19,715.097806376434,0,0,28426.6249974946,28427.6720670562,0,15,1,0,0,7,5,16903402,85263437,28242909,1101130,0,2141041,0,0,0,0,-3011171,1051081,10700109,31401719,0,0,21701009,1050100,31110609,0,0,0,4070040,1101090,21001709,2070070,0,0,0,0,0,0,0,0,0,0,0,0,1101130,0
12,20,1655.39729060765,0,0,28429.495656771,28430.5427344169,0,15,1,1,0,5,5,90594751,44090600,32242590,14321219,0,4061181,0,41411509,-2020031,0,1070120,2031191,40000719,40910509,0,0,3180091,0,0,0,0,0,30000309,0,0,0,1081200,0,0,1161081,0,10310219,0,0,4011000,0,0,0,0,0
12,21,714.8356479629,0,0,28433.3781189505,28434.4252358624,0,15,1,1,0,16,5,19823749,96072638,9263251,41081830,0,0,0,0,0,4071100,4141130,0,11611519,1150041,42010409,30410119,0,0,0,-2200060,20302009,0,0,0,0,0,0,3031161,2111050,0,4121040,0,1070111,0,0,0,0,40011719,0,0
12,22,882.69056079298,0,0,28436.3193893063,28437.3664638725,0,15,1,0,0,28,10,9601352,113325256,98464528,68074048,2200040,1140160,0,0,0,2191021,0,0,4070131,0,0,30711009,31801919,40301709,0,0,0,10510619,3191041,10910109,0,2160150,42001719,0,40201509,0,0,-2111110,0,0,21010609,2040001,0,21011819,21900509,0
12,23,1759.79870326046,0,0,28439.3312407144,28440.3783141257,0,15,1,1,0,13,20,126875435,157017156,153436206,169407785,0,20210519,0,40710119,21400019,0,21411719,21112009,2031050,40011409,0,1030000,-2051100,10110309,1091181,31110719,40810619,30801819,31010319,0,3181180,0,41100319,2001030,4131120,32011319,40000919,0,41900419,10401619,0,4191001,11011219,40501109,31201109,30201309
12,24,2000.94325378814,0,0,28443.2017196634,28444.2490153629,0,15,1,0,0,1,0,1141181,8222511,3111000,5211200,-1141181,0,0,0,0,0,0,0,0,0,2011021,3010160,0,1121190,0,0,0,2080140,0,0,3111000,0,0,0,0,0,0,0,1041090,0,0,0,4170110,0,0,0
12,25,1908.37169147198,0,0,28480.4853428969,28481.5324301668,0,15,2,1,0,15,0,3172200,7261201,1061191,7332270,0,0,1071050,0,0,0,0,2101150,0,0,0,3180051,0,0,-4081150,0,0,0,0,0,0,1061191,0,0,0,0,0,0,0,2151080,0,0,0,1041180,0,4140010
12,26,562.989336696774,1,0,28484.5795813402,28485.62671904,0,15,2,1,1,16,5,19823749,96072638,9263251,41081830,0,0,0,0,0,4071100,4141130,0,11611519,1150041,42010409,30410119,0,0,0,-2200060,20302009,0,0,0,0,0,0,3031161,2111050,0,4121040,0,1070111,0,0,0,0,40011719,0,0
12,27,749.728124515968,0,0,28487.3796661086,28488.4268068881,0,15,2,0,0,32,10,29243420,49343520,63022437,69493558,0,0,0,3071101,10310619,2081150,0,2170041,11610509,0,2180151,0,0,30400509,2130171,0,3121070,11511619,0,0,0,0,31111319,0,10700909,21210209,0,0,0,0,31400419,-1191150,0,4090051,11300219,21511719
12,28,523.318339732214,0,0,28490.3091578139,28491.3562439289,0,15,2,0,0,10,5,26642342,71243381,32010819,27232851,1180161,2020121,0,0,0,0,20411019,0,3031041,-3190181,2000171,4031201,0,0,0,20910319,41111509,0,0,0,0,0,0,0,32010819,0,0,0,3191141,0,0,0,4030001,20011709,0,0
12,29,789.269004675589,0,0,28492.9680546851,28494.0151431099,0,15,2,1,0,2,20,132255926,133336107,188586985,146338477,11000719,-4040000,0,1081190,3021080,0,40601709,31500019,41011209,30510109,40610819,0,0,22011409,4020071,11901409,3171181,21111109,0,10501719,30410719,21911919,0,40200819,40701619,40810019,4050171,31200309,20101309,1121031,20611609,0,1181101,31711409,40411709,0
12,30,645.378681594593,0,0,28495.9799068632,28497.0269856639,0,15,2,1,0,29,0,9152252,1041121,9452373,3010051,0,4141080,2000041,3011131,0,0,0,0,0,0,0,0,0,0,1041121,0,0,0,0,0,0,0,0,4091141,0,2191141,3170091,0,-3010051,0,0,0,0,0,0,0
12,31,1337.41337735773,1,0,28498.6858590526,28499.7329536367,0,15,2,1,1,6,0,3000051,6170211,6302321,4291141,0,0,0,0,0,-3000051,0,0,0,0,0,2110181,0,0,4060030,0,0,0,0,1081130,0,0,0,0,0,3091051,2130140,0,2200100,0,2091041,0,0,0,0,0
12,32,1499.3849318198,1,0,28502.1330273952,28503.1801065809,0,15,2,0,1,12,20,131624146,117685236,192737294,131687966,3020190,3021040,41410319,0,10001009,0,40510909,2050170,31610509,20100409,21401809,-3171081,0,31200019,0,20210809,0,21601109,40600109,10001919,3140100,40511409,10611219,41810719,0,4060200,42001619,41001909,31111509,11411919,31310909,10701619,0,4120060,2030041,0
12,33,890.688124763983,1,0,28505.8625395804,28506.9096233856,0,15,2,0,1,7,0,12222222,3140081,3181101,9441230,0,0,4161121,0,0,4001090,-4060011,0,0,0,0,0,0,0,0,0,0,3140081,0,0,0,0,0,0,0,0,3181101,0,0,3150020,0,0,4141150,0,2150060,0
12,34,861.757153652434,0,0,28508.9096880591,28509.9567718643,0,15,2,1,0,5,5,90594751,44090600,32242590,14321219,0,4061181,0,41411509,-2020031,0,1070120,2031191,40000719,40910509,0,0,3180091,0,0,0,0,0,30000309,0,0,0,1081200,0,0,1161081,0,10310219,0,0,4011000,0,0,0,0,0
12,35,1121.44296391489,1,0,28511.956834228,28513.003920343,0,15,2,1,1,25,10,85394157,42293551,107627557,49644359,20901909,40711809,0,0,0,0,2180120,0,21600319,0,3071141,0,31000909,0,0,2091200,4040140,2090161,41601119,0,10701619,0,0,0,-3101181,41511619,10712019,0,0,3150120,31512019,0,11801209,0,0,3181011
12,36,1957.27135755806,0,0,28515.2510487267,28516.2981248327,0,15,2,0,0,9,10,97873249,43901870,148664476,34734388,0,4040060,3000181,0,41911409,0,4131010,40600409,-4190180,0,0,0,0,40700709,3201161,0,0,0,30500709,0,2121200,41110919,30900709,41910819,0,2120120,0,10710419,10310919,0,3201141,0,10511909,0,0,0
12,37,1013.81750321161,0,0,28519.3923871436,28520.4394305279,0,15,2,0,0,27,10,65463549,95463897,81003309,40324100,0,31711619,0,0,0,31610919,0,2141011,0,40010209,0,2040140,0,1110020,0,0,41201719,11101809,0,0,0,21900419,31500219,0,3130121,21311409,-3161141,3171181,11400419,0,2040091,21701209,2011200,0,0,0
12,38,1091.53727165176,1,0,28522.4865447451,28523.5336277804,0,15,2,0,1,30,0,8352421,4132361,4050200,4160162,0,0,0,0,0,3010080,2181190,3161151,0,0,0,0,0,0,1001171,0,3131190,0,0,0,0,0,0,0,4050200,0,0,2100111,0,-2060051,0,0,0,0,0,0
12,39,1160.16772683724,1,0,28525.6749615777,28526.7219472179,0,15,2,0,1,18,20,139429034,73767308,143262129,146327364,0,12001919,2110150,30301919,20811119,31801609,32000409,0,10401909,10511719,4040050,2111201,20711619,21511709,2000061,10710819,0,-2170130,41601009,31800009,0,41400809,3070001,0,4170041,20200119,1020141,20400809,31411209,0,41211509,0,20101409,11900709,21301719,0
12,40,1705.33827608961,1,0,28528.9926201989,28530.0396997696,0,15,2,0,1,34,5,59263190,4032382,44931840,56181759,1140121,0,0,41101609,1160140,0,0,11711219,4150101,0,0,3021201,0,0,0,0,0,1011181,0,0,0,0,41810719,0,0,0,3121121,0,1150040,0,0,0,31500119,-3020181,0,20511419
12,41,815.144540636538,1,0,28532.780953649,28533.8280370693,0,15,2,1,1,8,10,46771182,85405857,145996047,59726449,40610909,0,0,0,0,3110011,0,-1000141,2050121,31502009,0,11012009,0,0,0,40801809,2090030,0,0,30110809,0,41711619,41901809,30110709,0,0,2161101,1121180,1171131,0,11811919,41611209,0,0,0,4011010
12,42,1109.23046238531,0,0,28535.8398661497,28536.8869538046,0,15,2,1,0,26,10,58272899,106713457,45961219,103424049,0,4041090,0,11210119,0,0,0,1110171,41911519,0,10601619,30300119,0,20901209,0,0,3000001,41910509,41911019,0,0,0,0,0,0,-4050200,0,0,40910809,21101819,2021190,3190031,30000019,3080040,3120141,0
12,43,1569.99793595605,1,0,28539.1929003735,28540.2399826389,0,15,2,1,1,24,5,24891269,44432318,6472332,24860429,2060091,0,10800509,0,0,1130160,10900509,0,0,0,2011190,30710219,0,0,0,0,0,11710909,0,2151170,1111101,0,2040010,-1170051,0,0,0,20810419,0,0,0,0,0,4050010,0,0
12,44,903.65668962113,0,0,28542.8282984578,28543.875383033,0,15,2,1,0,13,20,126875435,157017156,153436206,169407785,0,20210519,0,40710119,21400019,0,21411719,21112009,2031050,40011409,0,1030000,-2051100,10110309,1091181,31110719,40810619,30801819,31010319,0,3181180,0,41100319,2001030,4131120,32011319,40000919,0,41900419,10401619,0,4191001,11011219,40501109,31201109,30201309
12,45,895.203331874654,1,0,28545.8636906137,28546.9107717242,0,15,2,1,1,22,20,135559313,135835775,66185499,141407588,21310619,0,10911619,0,10711419,20311809,41701909,10600819,20011119,31611109,30501219,0,0,0,31111219,0,21111519,21500709,3011181,10910419,11911309,-4170121,4160170,1021180,0,31001119,0,20011219,1010061,2030001,1111001,40901519,3131060,21001109,41901409,10310209
12,46,1168.52599922277,0,0,28548.8402368671,28549.8873233671,0,15,2,0,0,19,20,140889947,84895207,137458376,119717456,0,21111119,1171011,20601119,11500819,40911819,2191190,40311709,3091161,40711709,3181060,30201419,0,0,0,0,0,10801019,-1081191,10911319,2031191,21300419,40310209,10410619,20011909,31401519,0,30910809,21502009,2110201,30700109,10701119,1081191,0,10711809,12000209
12,47,675.656631105085,0,0,28552.2403421925,28553.287423303,0,15,2,0,0,28,0,6343193,7212132,0,8322401,0,0,0,0,1061071,0,0,4091051,1191071,4061111,0,0,0,0,0,0,0,3151021,0,0,0,0,0,0,0,0,0,-3011090,0,0,2181140,0,3130171,0,0,0
12,48,2216.11641307754,1,0,28555.0757147923,28556.1227924382,0,15,2,0,1,1,5,36801728,10302212,33411159,76303318,-3130000,0,21810609,10810109,0,0,0,0,1051010,0,4151050,0,0,0,2081031,0,4070131,0,0,30110019,0,2120110,1181030,0,0,0,0,0,0,4081100,0,0,0,41811109,30411109,0
12,49,1221.11705596399,0,0,28592.4297441402,28593.4767975335,0,15,3,0,0,28,5,40512138,2321210,88463558,20884191,0,20510819,0,0,20001319,0,0,0,0,0,0,0,1190180,0,1131030,0,0,0,0,3040100,0,0,4101030,40912009,40410419,0,0,-1200151,3171161,11201619,0,0,0,3190060,0,2121200
12,50,542.741929988551,1,0,28595.8298128942,28596.8768990092,0,15,3,1,1,22,20,135559313,135835775,66185499,141407588,21310619,0,10911619,0,10711419,20311809,41701909,10600819,20011119,31611109,30501219,0,0,0,31111219,0,21111519,21500709,3011181,10910419,11911309,-4170121,4160170,1021180,0,31001119,0,20011219,1010061,2030001,1111001,40901519,3131060,21001109,41901409,10310209
12,51,782.345096828067,1,0,28598.4769476683,28599.5240314735,0,15,3,0,1,9,20,223297734,54744347,171848563,84665830,0,21410209,31911309,31801919,21001019,31700119,41501409,41910609,-2061141,0,20811419,2120190,0,0,0,0,10701019,21111719,31201309,31210019,10711919,31300309,31811909,2151060,11911619,20400409,1150010,3190081,30610909,3121141,10911419,3160171,0,0,31501109,2171000
12,52,993.440364654816,0,0,28601.4887956118,28602.5358778772,0,15,3,0,0,19,10,53856497,85503437,50743209,24964220,1031141,11201209,0,0,20511819,10011519,11100809,0,0,0,30200009,0,10311209,0,41901209,0,3091010,0,-1170060,3010171,21500309,22001619,3061050,0,0,0,0,0,0,0,20612009,2051111,0,0,1111000,1190100
12,53,1673.5728374224,0,0,28604.5947753644,28605.6418487757,0,15,3,0,0,34,20,147257787,146993195,134656558,198598925,2010091,0,30201509,31001309,30211519,41611819,0,11100419,1121121,30901219,0,0,11500209,41700309,40101409,2090030,20700019,0,41811909,0,0,21101109,4171050,40400219,2090021,3071131,22011119,0,41401919,10300319,31510909,31001909,41101109,-1021191,40101409,2160160
12,54,775.6598647793,0,0,28608.4536998759,28609.5007871457,0,15,3,0,0,10,5,31261070,41933490,88053188,8082123,0,0,0,1060161,0,0,0,0,30200909,-3131060,0,0,3180111,4121110,0,31501209,0,0,0,4141151,40510209,0,0,21800619,0,21601209,0,0,0,4011041,0,1010021,0,3061061,0,0
12,55,1145.73092087085,0,0,28611.3596693115,28612.4067481122,0,15,3,1,0,6,0,3000051,6170211,6302321,4291141,0,0,0,0,0,-3000051,0,0,0,0,0,2110181,0,0,4060030,0,0,0,0,1081130,0,0,0,0,0,3091051,2130140,0,2200100,0,2091041,0,0,0,0,0
12,56,1279.18687710189,0,0,28614.5950513814,28615.6421351866,0,15,3,1,0,13,20,126875435,157017156,153436206,169407785,0,20210519,0,40710119,21400019,0,21411719,21112009,2031050,40011409,0,1030000,-2051100,10110309,1091181,31110719,40810619,30801819,31010319,0,3181180,0,41100319,2001030,4131120,32011319,40000919,0,41900419,10401619,0,4191001,11011219,40501109,31201109,30201309
12,57,915.392609480477,0,0,28618.00690841,28619.0539995295,0,15,3,1,0,5,5,90594751,44090600,32242590,14321219,0,4061181,0,41411509,-2020031,0,1070120,2031191,40000719,40910509,0,0,3180091,0,0,0,0,0,30000309,0,0,0,1081200,0,0,1161081,0,10310219,0,0,4011000,0,0,0,0,0
12,58,823.8007728105,1,0,28621.0422928666,28622.0893793666,0,15,3,0,1,18,0,2120110,10333431,6350290,0,0,2120110,0,0,0,0,0,0,0,3151130,0,0,4001040,2050131,0,0,0,-1131130,2140090,0,0,0,0,0,1010040,0,3200160,0,0,0,0,0,0,0,0,0
12,59,1484.30524105061,1,0,28624.0659144562,28625.1129955667,0,15,3,1,1,2,20,132255926,133336107,188586985,146338477,11000719,-4040000,0,1081190,3021080,0,40601709,31500019,41011209,30510109,40610819,0,0,22011409,4020071,11901409,3171181,21111109,0,10501719,30410719,21911919,0,40200819,40701619,40810019,4050171,31200309,20101309,1121031,20611609,0,1181101,31711409,40411709,0
12,60,623.225718125468,0,0,28627.6660404924,28628.7130965804,0,15,3,1,0,8,10,46771182,85405857,145996047,59726449,40610909,0,0,0,0,3110011,0,-1000141,2050121,31502009,0,11012009,0,0,0,40801809,2090030,0,0,30110809,0,41711619,41901809,30110709,0,0,2161101,1121180,1171131,0,11811919,41611209,0,0,0,4011010
12,61,1594.83446228114,1,0,28630.5013842202,28631.5484703352,0,15,3,1,1,26,10,58272899,106713457,45961219,103424049,0,4041090,0,11210119,0,0,0,1110171,41911519,0,10601619,30300119,0,20901209,0,0,3000001,41910509,41911019,0,0,0,0,0,0,-4050200,0,0,40910809,21101819,2021190,3190031,30000019,3080040,3120141,0
12,62,948.899226572394,0,0,28634.3250255197,28635.3721016257,0,15,3,0,0,12,20,94516545,87698747,163126886,158156885,10001019,40101109,20701009,0,11601009,11101309,0,1011090,0,10201419,41701219,-1181020,2131071,1061190,10111719,0,0,21311109,0,21100709,40901019,20400319,40910909,20501719,12011019,3100131,4201061,0,2100200,0,40402019,21610609,20311619,1120010,31011219,41601209
12,63,793.665643810527,0,0,28637.5133507317,28638.5604299174,0,15,3,0,0,7,10,99274378,8152132,125502546,51413588,21910209,10510319,0,20801919,4170181,0,-1180041,0,40701709,3101030,0,3040091,0,2011011,0,0,0,0,0,0,30700209,0,0,0,41301509,41800419,11700409,0,0,0,32000709,1200190,4081120,11100519,3031050,0
12,64,1157.31170146682,0,0,28640.4075503709,28641.4546264769,0,15,3,1,0,24,5,24891269,44432318,6472332,24860429,2060091,0,10800509,0,0,1130160,10900509,0,0,0,2011190,30710219,0,0,0,0,0,11710909,0,2151170,1111101,0,2040010,-1170051,0,0,0,20810419,0,0,0,0,0,4050010,0,0
12,65,879.850318822719,1,0,28643.725298688,28644.7723736391,0,15,3,1,1,16,5,19823749,96072638,9263251,41081830,0,0,0,0,0,4071100,4141130,0,11611519,1150041,42010409,30410119,0,0,0,-2200060,20302009,0,0,0,0,0,0,3031161,2111050,0,4121040,0,1070111,0,0,0,0,40011719,0,0
12,66,1339.82284801095,1,0,28646.843049007,28647.89010471,0,15,3,0,1,1,5,5191261,11632381,94344598,87562059,-3040161,0,0,0,0,0,0,2151100,0,0,4140190,0,0,4151081,0,1190070,0,2151040,30211519,41511109,0,0,0,0,2121051,0,20500919,41510309,41910619,0,4141131,0,0,0,0,0
12,67,1064.45911764604,1,0,28650.4431777379,28651.4902103433,0,15,3,0,1,27,0,0,4281242,12632402,3311210,0,0,0,0,0,0,0,0,0,0,0,0,0,0,0,0,1180071,3101171,3170061,0,0,0,0,0,4201130,3120011,-2141200,1140060,0,2171150,0,0,0,0,0,0
12,68,924.534662386577,1,0,28653.6903288343,28654.7373664442,0,15,3,1,1,29,0,9152252,1041121,9452373,3010051,0,4141080,2000041,3011131,0,0,0,0,0,0,0,0,0,0,1041121,0,0,0,0,0,0,0,0,4091141,0,2191141,3170091,0,-3010051,0,0,0,0,0,0,0
12,69,520.533147180686,1,0,28656.7256547769,28657.7963532424,0,15,3,1,1,15,0,3172200,7261201,1061191,7332270,0,0,1071050,0,0,0,0,2101150,0,0,0,3180051,0,0,-4081150,0,0,0,0,0,0,1061191,0,0,0,0,0,0,0,2151080,0,0,0,1041180,0,4140010
12,70,1109.10073054038,1,0,28659.419845639,28660.466932139,0,15,3,0,1,32,0,5291110,1151010,6342151,5141280,0,0,0,3180020,0,0,0,0,2111090,0,0,0,0,0,0,0,1151010,0,0,0,2061040,0,2140011,2141100,0,0,0,0,0,0,0,-2001100,0,0,3140180,0
12,71,1024.42009800143,1,0,28662.7493737616,28663.7964506375,0,15,3,1,1,25,10,85394157,42293551,107627557,49644359,20901909,40711809,0,0,0,0,2180120,0,21600319,0,3071141,0,31000909,0,0,2091200,4040140,2090161,41601119,0,10701619,0,0,0,-3101181,41511619,10712019,0,0,3150120,31512019,0,11801209,0,0,3181011
12,72,1646.51816603509,0,0,28666.0082858003,28667.0553565169,0,15,3,0,0,30,10,29054191,35212749,150906026,87063499,20510919,0,0,1181001,0,4191200,3171071,0,0,21510609,11601109,0,0,0,0,0,0,2101031,32001409,1081181,31200009,41100819,11000709,31401719,0,0,3120180,0,0,-3200150,0,0,0,40811419,1150121,41901809
12,73,1881.9252584035,0,0,28702.7622514756,28703.8094168926,0,15,4,0,0,30,20,149663087,132555815,107405696,184615536,40800709,41501409,0,4060031,20110619,2190110,0,41000209,0,21711309,41611309,31010419,0,4160020,0,10611519,2051120,21400119,2090021,0,10511519,11701709,0,0,30700519,20800019,31601909,20401009,41810019,-3020081,21312019,21201219,3120060,30410319,41310719,2030091
12,74,519.692777397722,1,0,28706.9035856579,28707.9506348167,0,15,4,1,1,22,20,135559313,135835775,66185499,141407588,21310619,0,10911619,0,10711419,20311809,41701909,10600819,20011119,31611109,30501219,0,0,0,31111219,0,21111519,21500709,3011181,10910419,11911309,-4170121,4160170,1021180,0,31001119,0,20011219,1010061,2030001,1111001,40901519,3131060,21001109,41901409,10310209
12,75,1153.37085610372,1,0,28709.6683363996,28710.715418665,0,15,4,1,1,24,5,24891269,44432318,6472332,24860429,2060091,0,10800509,0,0,1130160,10900509,0,0,0,2011190,30710219,0,0,0,0,0,11710909,0,2151170,1111101,0,2040010,-1170051,0,0,0,20810419,0,0,0,0,0,4050010,0,0
12,76,1067.54188502237,1,0,28713.0214861116,28714.0684679022,0,15,4,0,1,1,10,68565837,6171101,73322337,113995449,-1141050,11601919,11700719,0,1000110,40100909,3021130,0,0,0,0,0,2090090,0,0,0,4081011,0,0,41101309,11310219,0,0,20910809,0,0,0,0,31111209,4031121,4011081,0,40200919,11510019,1120181,22010919
12,77,1751.43273165304,1,0,28716.257001763,28717.3038680653,0,15,4,0,1,27,20,193256983,46971911,107675426,202718814,30211419,40501609,20012019,10600509,40611109,0,10110309,0,41210009,2080061,11410009,4120170,4121021,1010040,0,21100519,0,3130091,0,0,30001309,21600619,0,11900309,1071150,41902019,-1200020,4060201,21210019,31311819,22001309,30011119,21411819,0,31500919,41211609
12,78,552.10418056231,0,0,28720.150996603,28721.1980815631,0,15,4,1,0,15,0,3172200,7261201,1061191,7332270,0,0,1071050,0,0,0,0,2101150,0,0,0,3180051,0,0,-4081150,0,0,0,0,0,0,1061191,0,0,0,0,0,0,0,2151080,0,0,0,1041180,0,4140010
12,79,1680.0151591051,1,0,28722.7981252177,28723.8452259612,0,15,4,1,1,25,10,85394157,42293551,107627557,49644359,20901909,40711809,0,0,0,0,2180120,0,21600319,0,3071141,0,31000909,0,0,2091200,4040140,2090161,41601119,0,10701619,0,0,0,-3101181,41511619,10712019,0,0,3150120,31512019,0,11801209,0,0,3181011
12,80,1061.66199130166,0,0,28726.6923552688,28727.7394383041,0,15,4,1,0,13,20,126875435,157017156,153436206,169407785,0,20210519,0,40710119,21400019,0,21411719,21112009,2031050,40011409,0,1030000,-2051100,10110309,1091181,31110719,40810619,30801819,31010319,0,3181180,0,41100319,2001030,4131120,32011319,40000919,0,41900419,10401619,0,4191001,11011219,40501109,31201109,30201309
12,81,1540.47797457315,0,0,28729.8336062995,28730.8807093528,0,15,4,1,0,5,5,90594751,44090600,32242590,14321219,0,4061181,0,41411509,-2020031,0,1070120,2031191,40000719,40910509,0,0,3180091,0,0,0,0,0,30000309,0,0,0,1081200,0,0,1161081,0,10310219,0,0,4011000,0,0,0,0,0
12,82,561.688938571024,1,0,28733.5514045076,28734.5984552062,0,15,4,1,1,16,5,19823749,96072638,9263251,41081830,0,0,0,0,0,4071100,4141130,0,11611519,1150041,42010409,30410119,0,0,0,-2200060,20302009,0,0,0,0,0,0,3031161,2111050,0,4121040,0,1070111,0,0,0,0,40011719,0,0
12,83,1619.79071146561,0,0,28736.3043946919,28737.3514758024,0,15,4,1,0,6,0,3000051,6170211,6302321,4291141,0,0,0,0,0,-3000051,0,0,0,0,0,2110181,0,0,4060030,0,0,0,0,1081130,0,0,0,0,0,3091051,2130140,0,2200100,0,2091041,0,0,0,0,0
12,84,727.59594893796,1,0,28740.104502558,28741.151587903,0,15,4,0,1,9,10,98307037,33660370,139335237,71952548,1040090,3091030,0,0,21311609,0,30901819,40811409,-1151080,0,0,0,31610209,0,0,2050161,0,0,1021050,0,4010040,0,41111319,40000419,2071181,10810119,40311109,1150130,0,0,0,0,30500909,40301509,0,0
12,85,925.409293686243,0,0,28743.0104646793,28744.0575500244,0,15,4,1,0,26,10,58272899,106713457,45961219,103424049,0,4041090,0,11210119,0,0,0,1110171,41911519,0,10601619,30300119,0,20901209,0,0,3000001,41910509,41911019,0,0,0,0,0,0,-4050200,0,0,40910809,21101819,2021190,3190031,30000019,3080040,3120141,0
12,86,1116.39227610431,0,0,28746.1164390425,28747.1635182282,0,15,4,0,0,7,5,39812110,75772168,4162321,27155029,1130120,0,4170180,30401709,0,0,-4110101,0,0,4050150,0,0,0,30011209,0,0,0,41710809,0,0,1041190,0,0,0,3121131,0,0,0,10911119,0,1041140,0,0,0,3201161,12001609
12,87,1236.08626293935,0,0,28749.3518218823,28750.3989076123,0,15,4,1,0,2,20,132255926,133336107,188586985,146338477,11000719,-4040000,0,1081190,3021080,0,40601709,31500019,41011209,30510109,40610819,0,0,22011409,4020071,11901409,3171181,21111109,0,10501719,30410719,21911919,0,40200819,40701619,40810019,4050171,31200309,20101309,1121031,20611609,0,1181101,31711409,40411709,0
12,88,1458.92822953465,1,0,28752.7989852205,28753.8460721054,0,15,4,0,1,32,10,107023588,44883897,53661459,59753910,0,0,0,41911419,0,41001419,0,20010609,4100141,0,0,11311719,0,0,0,1060040,11610719,20901419,4100170,4040180,4120191,0,0,10200009,0,31200909,0,41800809,1161061,0,4121170,-1170061,0,0,11500809,0
12,89,990.202458015119,0,0,28756.3637845442,28757.4108683494,0,15,4,0,0,28,0,4150141,1150131,5071061,9464622,0,0,4150141,0,0,0,0,0,0,0,1150131,0,0,0,0,0,0,0,0,2001020,0,0,0,3070041,0,0,0,-2111151,0,0,4071200,1171181,0,2111090,0,0
12,90,2000.58023560268,0,0,28759.4932892611,28760.5403788407,0,15,4,0,0,18,5,75741769,29161272,72433969,4191032,3131191,0,40210509,2190050,0,0,0,30210019,0,0,1100161,0,22010019,2031021,0,0,0,-4020071,41311019,0,0,0,0,1011141,0,0,30111809,0,0,0,0,2190001,0,0,0,2001031
12,91,923.119545892405,1,0,28763.6816414203,28764.7287194511,0,15,4,0,1,19,0,4312350,2081151,5281250,4112170,0,0,0,0,2120130,0,0,1011200,1181020,0,0,0,2081151,0,0,0,0,0,-1081170,0,4200080,0,0,0,0,0,0,0,0,0,0,0,1111120,0,0,3001050
12,92,1544.819949253,0,0,28766.7170347311,28767.764111607,0,15,4,0,0,12,5,46582300,48850209,3191171,88353728,0,21810819,0,0,2151071,0,21600319,1020091,0,3190030,0,-1160070,0,40410109,0,4090000,0,0,0,3191171,0,0,0,0,0,0,0,0,0,0,3110060,0,40111119,0,4131130,41001419
12,93,2404.61177776524,1,0,28770.5171364377,28771.564220243,0,15,4,0,1,34,20,141346346,141617888,177439513,78917597,40011009,0,4141011,11200109,21312019,3081070,0,31600009,30001119,20101209,2121011,30510909,41900519,2091030,40711019,3161030,1021161,0,21902019,21200919,40311819,0,20900109,31001919,0,10111009,32011719,1171070,0,30201809,11800609,21011609,10601309,-4131191,0,0
12,94,975.112758260366,1,0,28775.0584392842,28776.1055215496,0,15,4,1,1,29,0,9152252,1041121,9452373,3010051,0,4141080,2000041,3011131,0,0,0,0,0,0,0,0,0,0,1041121,0,0,0,0,0,0,0,0,4091141,0,2191141,3170091,0,-3010051,0,0,0,0,0,0,0
12,95,1029.160892238,0,0,28778.1174545695,28779.1644201917,0,15,4,1,0,8,10,46771182,85405857,145996047,59726449,40610909,0,0,0,0,3110011,0,-1000141,2050121,31502009,0,11012009,0,0,0,40801809,2090030,0,0,30110809,0,41711619,41901809,30110709,0,0,2161101,1121180,1171131,0,11811919,41611209,0,0,0,4011010
12,96,591.212749557599,1,0,28781.2233977508,28782.2704284314,0,15,4,0,1,10,0,6200292,5392441,6130231,3061171,0,0,0,0,0,3000191,0,3200101,0,-1171171,0,3180180,0,0,0,0,0,1041090,0,0,0,2120151,0,0,0,4010080,0,0,0,3061171,0,0,0,0,0,0
12,97,534.412914628774,1,0,28816.9419924431,28817.9890716288,0,15,5,1,1,15,0,3172200,7261201,1061191,7332270,0,0,1071050,0,0,0,0,2101150,0,0,0,3180051,0,0,-4081150,0,0,0,0,0,0,1061191,0,0,0,0,0,0,0,2151080,0,0,0,1041180,0,4140010
12,98,651.71860366172,1,0,28819.565590319,28820.6126645002,0,15,5,0,1,27,10,45692550,33713618,45923018,90564548,11710909,4201080,1030100,0,0,20610309,4060021,4080131,0,0,0,0,0,21811809,0,0,11901809,0,10910309,21101409,0,0,0,10910209,0,0,-3001091,31110209,0,1141081,30111219,2140020,0,22010909,4051110,0
12,99,790.303394776856,0,0,28822.4480143874,28823.495095113,0,15,5,1,0,29,0,9152252,1041121,9452373,3010051,0,4141080,2000041,3011131,0,0,0,0,0,0,0,0,0,0,1041121,0,0,0,0,0,0,0,0,4091141,0,2191141,3170091,0,-3010051,0,0,0,0,0,0,0
12,100,1346.07769370632,0,0,28825.3539815133,28826.4010649336,0,15,5,0,0,12,20,110744505,155596006,159974656,153406586,21200019,30000609,0,10510519,3191150,0,20311509,21510609,4020090,41800609,40811709,-2041090,0,4020120,4101041,41410919,11100209,10310309,30700309,31701719,21100719,3161171,31310019,0,0,42000719,0,3050040,3100081,11710519,41311109,42011719,0,12011709,40211409,0
12,101,1609.53573642473,1,0,28828.8835091739,28829.930574501,0,15,5,1,1,26,10,58272899,106713457,45961219,103424049,0,4041090,0,11210119,0,0,0,1110171,41911519,0,10601619,30300119,0,20901209,0,0,3000001,41910509,41911019,0,0,0,0,0,0,-4050200,0,0,40910809,21101819,2021190,3190031,30000019,3080040,3120141,0
12,102,672.345196919196,0,0,28832.7189056413,28833.7660059999,0,15,5,0,0,9,0,7212311,3261212,8103132,0,3050160,0,0,0,0,0,0,3061021,-1101130,0,1081011,0,0,0,0,0,2180201,0,0,0,0,0,4031030,1041041,0,0,3031061,0,0,0,0,0,0,0,0,0
12,103,1103.998073002,1,0,28835.5660534271,28836.6131179843,0,15,5,1,1,24,5,24891269,44432318,6472332,24860429,2060091,0,10800509,0,0,1130160,10900509,0,0,0,2011190,30710219,0,0,0,0,0,11710909,0,2151170,1111101,0,2040010,-1170051,0,0,0,20810419,0,0,0,0,0,4050010,0,0
12,104,1736.52511843102,1,0,28838.8486948444,28839.8955896338,0,15,5,0,1,32,20,89914046,112357687,136905595,121366204,0,10610919,31500719,0,3140080,0,31511709,3050010,10100609,10411909,1040160,31611519,11500609,11810009,2021191,40801219,0,3161071,0,4081030,40300909,0,20000509,40911219,11501509,0,20110419,11702019,2100100,12000019,40601109,-2150000,10101619,21500919,21210419,0
12,105,1061.68970849103,0,0,28842.7662531448,28843.813327326,0,15,5,1,0,25,10,85394157,42293551,107627557,49644359,20901909,40711809,0,0,0,0,2180120,0,21600319,0,3071141,0,31000909,0,0,2091200,4040140,2090161,41601119,0,10701619,0,0,0,-3101181,41511619,10712019,0,0,3150120,31512019,0,11801209,0,0,3181011
12,106,1226.24858557538,1,0,28846.0016929589,28847.0487324936,0,15,5,1,1,6,0,3000051,6170211,6302321,4291141,0,0,0,0,0,-3000051,0,0,0,0,0,2110181,0,0,4060030,0,0,0,0,1081130,0,0,0,0,0,3091051,2130140,0,2200100,0,2091041,0,0,0,0,0
12,107,879.735985417938,0,0,28849.3311375449,28850.3782563816,0,15,5,1,0,8,10,46771182,85405857,145996047,59726449,40610909,0,0,0,0,3110011,0,-1000141,2050121,31502009,0,11012009,0,0,0,40801809,2090030,0,0,30110809,0,41711619,41901809,30110709,0,0,2161101,1121180,1171131,0,11811919,41611209,0,0,0,4011010
12,108,1607.36147691932,1,0,28852.2723959669,28853.3194951705,0,15,5,0,1,30,10,62810128,103725256,112867307,48293231,0,0,0,0,41700019,0,0,0,21110109,0,11410919,21201209,0,31012019,40101109,0,0,0,31001619,31812019,3021130,3030050,0,1120140,41701209,0,1181140,0,40900719,-3001051,0,1090200,0,1161071,0,2140190
12,109,914.616143221792,1,0,28856.1195803239,28857.1902025671,0,15,5,0,1,10,0,5231270,4081101,9190332,2180161,1081110,0,0,0,2020110,0,0,0,2130050,-4081101,0,0,0,0,0,0,0,0,0,3120070,0,3060141,3010121,0,0,0,0,0,0,2180161,0,0,0,0,0,0
12,110,1077.83227647451,1,0,28859.3076802194,28860.3549816419,0,15,5,1,1,5,5,90594751,44090600,32242590,14321219,0,4061181,0,41411509,-2020031,0,1070120,2031191,40000719,40910509,0,0,3180091,0,0,0,0,0,30000309,0,0,0,1081200,0,0,1161081,0,10310219,0,0,4011000,0,0,0,0,0
12,111,1531.7043293071,1,0,28862.5079882255,28863.555147868,0,15,5,0,1,7,5,46784700,18931130,27331519,66002809,1191100,0,0,0,2021101,40401309,-3171190,0,0,4170011,0,0,0,3060000,0,11701119,0,0,0,0,0,0,3171030,0,0,2160070,22000419,0,0,31211809,30710909,4080091,0,0,0,0
12,112,1342.83516753203,0,0,28866.1669597792,28867.2140023936,0,15,5,0,0,34,0,3221221,5421311,6231260,3010090,2121201,0,1100020,0,0,0,0,0,0,0,0,0,0,1080100,0,2191061,0,2150150,0,0,0,0,0,4051190,2180070,0,0,0,0,0,0,0,0,-3010090,0,0
12,113,1845.97336928709,0,0,28869.7317275361,28870.778804797,0,15,5,0,0,19,10,93913557,57801349,33581729,38375080,30100019,0,0,0,10411509,2080101,30911609,0,20410319,0,40900019,2190110,10510219,0,0,0,0,4201001,-1070020,0,10110519,0,0,0,0,2191171,20210019,3091191,0,0,0,0,22011319,1001001,11211409,1060160
12,114,627.97883111125,0,0,28873.8377269217,28874.8848719357,0,15,5,0,0,28,5,21300999,41023421,44781919,67832970,0,0,0,0,0,0,0,20300909,1000090,31510009,0,1041171,0,4141091,1180120,0,3151030,0,0,0,0,0,41610719,0,0,3171200,0,-2171121,0,21800819,0,0,0,2151011,41710019,0
12,115,428.907818903099,0,0,28876.5907417434,28877.63786212,0,15,5,1,0,22,20,135559313,135835775,66185499,141407588,21310619,0,10911619,0,10711419,20311809,41701909,10600819,20011119,31611109,30501219,0,0,0,31111219,0,21111519,21500709,3011181,10910419,11911309,-4170121,4160170,1021180,0,31001119,0,20011219,1010061,2030001,1111001,40901519,3131060,21001109,41901409,10310209
12,116,1373.0257309071,1,0,28879.1084668859,28880.1555472265,0,15,5,0,1,18,5,64513908,8373271,36432010,12703169,10001719,0,20510319,0,0,2091061,0,31910809,0,0,0,0,0,0,4161150,2171111,0,-2041010,0,0,30100709,0,3010180,0,1131111,2190010,0,10612009,2091160,0,0,0,0,0,0,0
12,117,743.793951300177,1,0,28882.6967946386,28883.7439211745,0,15,5,1,1,16,5,19823749,96072638,9263251,41081830,0,0,0,0,0,4071100,4141130,0,11611519,1150041,42010409,30410119,0,0,0,-2200060,20302009,0,0,0,0,0,0,3031161,2111050,0,4121040,0,1070111,0,0,0,0,40011719,0,0
12,118,845.974909127108,0,0,28885.5674689285,28886.614550424,0,15,5,1,0,13,20,126875435,157017156,153436206,169407785,0,20210519,0,40710119,21400019,0,21411719,21112009,2031050,40011409,0,1030000,-2051100,10110309,1091181,31110719,40810619,30801819,31010319,0,3181180,0,41100319,2001030,4131120,32011319,40000919,0,41900419,10401619,0,4191001,11011219,40501109,31201109,30201309
12,119,838.957840729563,1,0,28888.6146135576,28889.6617454829,0,15,5,1,1,2,20,132255926,133336107,188586985,146338477,11000719,-4040000,0,1081190,3021080,0,40601709,31500019,41011209,30510109,40610819,0,0,22011409,4020071,11901409,3171181,21111109,0,10501719,30410719,21911919,0,40200819,40701619,40810019,4050171,31200309,20101309,1121031,20611609,0,1181101,31711409,40411709,0
12,120,710.311586746684,0,0,28891.5441125771,28892.5911936876,0,15,5,0,0,1,20,90055318,170144346,169925654,192886625,-3060030,0,2091160,20611519,2070191,0,21011409,41211009,0,3020071,41711919,41200009,31700909,32000019,0,20511419,0,0,31900919,21110619,40510519,1030050,4070020,30701609,20300209,0,20301709,31400819,30811719,21810819,20500309,3171200,41500609,0,40511109,3180041
12,121,1327.69234316584,0,0,28927.427488269,28928.4745747689,0,15,6,0,0,10,0,0,11442262,11232292,1111000,0,0,0,0,0,0,0,0,0,-3201031,0,0,0,0,0,0,4111180,4130051,1000041,0,4201180,2000031,0,0,4031040,0,0,1111000,0,0,0,0,0,0,0,0
12,122,663.661632519506,0,0,28930.8276293957,28931.8746596913,0,15,6,1,0,29,0,9152252,1041121,9452373,3010051,0,4141080,2000041,3011131,0,0,0,0,0,0,0,0,0,0,1041121,0,0,0,0,0,0,0,0,4091141,0,2191141,3170091,0,-3010051,0,0,0,0,0,0,0
12,123,1198.59376005115,1,0,28933.5924213281,28934.6394443095,0,15,6,0,1,7,0,4001030,8270322,7121201,7200180,0,0,0,0,0,0,-4001030,0,0,4140090,0,0,0,3040181,0,0,0,1090051,4060040,0,0,0,0,0,0,0,3061161,0,3170180,0,0,0,0,0,0,4030000
12,124,661.190183149301,0,0,28937.0277494265,28938.074840546,0,15,6,0,0,9,20,108887136,156636895,179683866,103374887,21211109,21101619,11611419,11811819,0,42011019,0,0,-1140151,20411519,2170181,20600719,30101019,20702019,31310219,30310109,1031110,0,31100919,31900219,0,3060101,30800709,41600209,40110709,0,1111000,21300709,31700119,11710919,2050090,3201001,31312019,0,0,2100030
12,125,1192.82242532427,1,0,28939.7572450583,28940.8043581206,0,15,6,0,1,30,10,88731118,95784716,7453242,91736117,21700419,3120071,0,0,41910619,0,0,22000009,0,31800809,0,21000819,0,31001519,1181050,0,10800519,0,0,2181101,0,2091010,3181131,0,0,0,0,30210619,0,-3041170,41201209,4181000,0,11011109,0,2091010
12,126,1430.2809746514,1,0,28943.0867531629,28944.1338350433,0,15,6,0,1,12,20,190057755,49313468,190219595,165404446,30810609,40211719,2200141,2081040,10400419,41310809,30311419,30601409,2130190,10210409,10310219,-1041091,0,0,4120050,0,3031090,20600609,31601519,22011109,0,41111819,31101809,3190011,40301509,0,20901819,40500519,30910809,11011209,1060081,0,41910209,0,0,40011619
12,127,1498.14728232741,0,0,28946.6397934691,28947.6868734247,0,15,6,1,0,26,10,58272899,106713457,45961219,103424049,0,4041090,0,11210119,0,0,0,1110171,41911519,0,10601619,30300119,0,20901209,0,0,3000001,41910509,41911019,0,0,0,0,0,0,-4050200,0,0,40910809,21101819,2021190,3190031,30000019,3080040,3120141,0
12,128,701.231897517573,0,0,28950.2046070364,28951.2516893017,0,15,6,1,0,8,10,46771182,85405857,145996047,59726449,40610909,0,0,0,0,3110011,0,-1000141,2050121,31502009,0,11012009,0,0,0,40801809,2090030,0,0,30110809,0,41711619,41901809,30110709,0,0,2161101,1121180,1171131,0,11811919,41611209,0,0,0,4011010
12,129,2019.13381408303,1,0,28953.1576271706,28954.2047125157,0,15,6,0,1,27,0,2202251,6351351,5411322,3011041,0,0,0,1191120,0,0,0,0,1011131,4171171,0,0,0,0,0,0,2180180,0,0,0,0,1140161,0,2110080,0,0,-2161081,0,0,0,0,0,0,0,3011041,0
12,130,814.795381047588,0,0,28957.3930758387,28958.4401288471,0,15,6,1,0,2,20,132255926,133336107,188586985,146338477,11000719,-4040000,0,1081190,3021080,0,40601709,31500019,41011209,30510109,40610819,0,0,22011409,4020071,11901409,3171181,21111109,0,10501719,30410719,21911919,0,40200819,40701619,40810019,4050171,31200309,20101309,1121031,20611609,0,1181101,31711409,40411709,0
12,131,1186.54409700684,1,0,28960.3813657113,28961.4284495165,0,15,6,0,1,18,5,24563609,20724811,34381650,16452060,0,0,0,0,0,4051091,0,10201809,10310709,3201170,0,11301219,0,4101180,0,1000181,0,-1121061,0,0,0,0,0,3071141,31310509,0,0,0,2140020,0,4110131,0,10201909,0,0,0
12,132,1168.58720801611,0,0,28963.6873423072,28964.7344172583,0,15,6,1,0,13,20,126875435,157017156,153436206,169407785,0,20210519,0,40710119,21400019,0,21411719,21112009,2031050,40011409,0,1030000,-2051100,10110309,1091181,31110719,40810619,30801819,31010319,0,3181180,0,41100319,2001030,4131120,32011319,40000919,0,41900419,10401619,0,4191001,11011219,40501109,31201109,30201309
12,133,730.849638985092,1,0,28966.9580283769,28968.0050987085,0,15,6,0,1,28,5,31601609,42533993,34503170,60462989,0,0,0,0,0,0,0,31601609,0,4160051,0,0,30100619,1141201,0,0,3081061,4051061,0,30312019,0,0,0,3151100,0,0,1040051,-3140141,0,0,21310109,0,4101130,31911609,0,0
12,134,1024.40854917222,0,0,28969.8405090345,28970.8875393302,0,15,6,0,0,19,10,45642709,56486577,39865191,45152718,0,31010709,0,2090180,0,11401719,1140101,0,0,0,10312009,0,0,20801009,21011409,0,1171070,3191080,-1100141,0,0,4161051,10611719,0,3191071,0,20801209,0,11300319,0,2041071,0,20600119,0,0,11211209
12,135,1148.28398196551,1,0,28972.9934859761,28974.0405705513,0,15,6,1,1,24,5,24891269,44432318,6472332,24860429,2060091,0,10800509,0,0,1130160,10900509,0,0,0,2011190,30710219,0,0,0,0,0,11710909,0,2151170,1111101,0,2040010,-1170051,0,0,0,20810419,0,0,0,0,0,4050010,0,0
12,136,550.664426566073,0,0,28976.2171090285,28977.2641955285,0,15,6,1,0,22,20,135559313,135835775,66185499,141407588,21310619,0,10911619,0,10711419,20311809,41701909,10600819,20011119,31611109,30501219,0,0,0,31111219,0,21111519,21500709,3011181,10910419,11911309,-4170121,4160170,1021180,0,31001119,0,20011219,1010061,2030001,1111001,40901519,3131060,21001109,41901409,10310209
12,137,1868.27685248863,0,0,28979.0054220757,28980.052505496,0,15,6,0,0,1,10,129955368,101555018,83334658,3232081,-2071101,0,20601519,4131151,40600219,0,1150050,20200619,41200709,41601219,0,0,0,4040171,4011190,10700819,0,41201619,41310519,0,0,0,30001519,1011101,0,0,11011519,0,0,0,0,0,2181051,1051030,0,0
12,138,516.954550083028,1,0,28982.9938151178,28984.0408550374,0,15,6,1,1,16,5,19823749,96072638,9263251,41081830,0,0,0,0,0,4071100,4141130,0,11611519,1150041,42010409,30410119,0,0,0,-2200060,20302009,0,0,0,0,0,0,3031161,2111050,0,4121040,0,1070111,0,0,0,0,40011719,0,0
12,139,1361.5719874324,1,0,28985.6879617094,28986.7350478244,0,15,6,0,1,34,20,171305776,180639366,109746636,141729735,0,2120011,11710809,41010819,41611709,40201509,0,4040100,30610819,1111171,40911809,21211219,40302009,4100130,0,31701919,0,41301109,2151140,20911819,2180130,0,11001509,0,41500519,32001519,0,20501709,0,40400819,40501219,10911519,3121200,-3081131,11401819,11810319
12,140,1487.05001270355,1,0,28989.2645373738,28990.3116192542,0,15,6,1,1,25,10,85394157,42293551,107627557,49644359,20901909,40711809,0,0,0,0,2180120,0,21600319,0,3071141,0,31000909,0,0,2091200,4040140,2090161,41601119,0,10701619,0,0,0,-3101181,41511619,10712019,0,0,3150120,31512019,0,11801209,0,0,3181011
12,141,1125.82574445696,1,0,28992.8647076806,28993.9117218078,0,15,6,1,1,6,0,3000051,6170211,6302321,4291141,0,0,0,0,0,-3000051,0,0,0,0,0,2110181,0,0,4060030,0,0,0,0,1081130,0,0,0,0,0,3091051,2130140,0,2200100,0,2091041,0,0,0,0,0
12,142,1128.21866179002,0,0,28996.1941430275,28997.2412295275,0,15,6,0,0,32,5,4231122,33671690,25992860,54172909,0,0,0,0,0,3201041,0,1030081,0,20900109,0,0,1060121,0,0,0,10710319,1001141,2161121,0,0,0,0,21810719,0,2021020,0,30111009,0,0,0,-2011201,0,0,21000519,1050180
12,143,1089.25329826525,0,0,28999.5471795611,29000.5942656761,0,15,6,1,0,15,0,3172200,7261201,1061191,7332270,0,0,1071050,0,0,0,0,2101150,0,0,0,3180051,0,0,-4081150,0,0,0,0,0,0,1061191,0,0,0,0,0,0,0,2151080,0,0,0,1041180,0,4140010
12,144,847.469327578438,1,0,29002.8649194091,29003.9120078338,0,15,6,1,1,5,5,90594751,44090600,32242590,14321219,0,4061181,0,41411509,-2020031,0,1070120,2031191,40000719,40910509,0,0,3180091,0,0,0,0,0,30000309,0,0,0,1081200,0,0,1161081,0,10310219,0,0,4011000,0,0,0,0,0
12,145,935.246201126574,1,0,29031.8657543894,29032.912834345,0,15,7,1,1,25,10,85394157,42293551,107627557,49644359,20901909,40711809,0,0,0,0,2180120,0,21600319,0,3071141,0,31000909,0,0,2091200,4040140,2090161,41601119,0,10701619,0,0,0,-3101181,41511619,10712019,0,0,3150120,31512019,0,11801209,0,0,3181011
12,146,1653.76813582043,0,0,29034.9481937792,29035.9952806641,0,15,7,0,0,1,20,101634527,138857257,89875936,199178324,-1190201,41301319,0,10410309,11712019,21610009,11400519,0,4010151,3151191,0,0,40500909,11901909,1091020,41600819,40611409,0,0,30211509,1041160,20100309,20911119,2180090,4031030,0,11400719,40411919,4051121,30511309,30800119,41600109,11301809,30201719,10300219,0
12,147,626.756965019013,1,0,29038.7953619679,29039.8424461581,0,15,7,1,1,22,20,135559313,135835775,66185499,141407588,21310619,0,10911619,0,10711419,20311809,41701909,10600819,20011119,31611109,30501219,0,0,0,31111219,0,21111519,21500709,3011181,10910419,11911309,-4170121,4160170,1021180,0,31001119,0,20011219,1010061,2030001,1111001,40901519,3131060,21001109,41901409,10310209
12,148,1068.86923041748,1,0,29041.607233856,29042.6543411438,0,15,7,1,1,5,5,90594751,44090600,32242590,14321219,0,4061181,0,41411509,-2020031,0,1070120,2031191,40000719,40910509,0,0,3180091,0,0,0,0,0,30000309,0,0,0,1081200,0,0,1161081,0,10310219,0,0,4011000,0,0,0,0,0
12,149,1898.67606470216,1,0,29044.7602369749,29045.8073153907,0,15,7,0,1,7,5,45401550,41131380,44714480,8432251,0,0,2140031,21501009,0,0,-1160091,20600419,0,0,0,1030171,0,0,0,0,0,40101209,0,30311709,0,0,2160151,0,0,1031101,11211519,0,2171030,4191050,0,0,0,0,2070171,0
12,150,781.830404022912,1,0,29048.8662467545,29049.9133232454,0,15,7,0,1,28,0,8202171,4120160,5082201,12421252,0,0,0,0,0,4131111,0,0,4071060,0,0,0,0,0,0,0,4120160,0,3031130,2051071,0,0,0,0,0,0,0,-4180051,0,0,0,0,0,4160200,4081001,0
12,151,792.903421108349,0,0,29051.7251531728,29052.7722258141,0,15,7,1,0,29,0,9152252,1041121,9452373,3010051,0,4141080,2000041,3011131,0,0,0,0,0,0,0,0,0,0,1041121,0,0,0,0,0,0,0,0,4091141,0,2191141,3170091,0,-3010051,0,0,0,0,0,0,0
12,152,1202.8060028897,0,0,29054.5840526618,29055.6311403166,0,15,7,0,0,27,5,43484399,35903700,51752942,22711389,0,30602019,0,0,0,1171161,0,0,11711219,0,1121041,0,0,31711619,0,0,3071040,0,40200609,0,0,2201101,3080101,0,0,4180021,-2091110,0,0,0,2010070,20701319,0,0,0,0
12,153,605.6553299386,1,0,29058.0312067609,29059.0782855616,0,15,7,1,1,26,10,58272899,106713457,45961219,103424049,0,4041090,0,11210119,0,0,0,1110171,41911519,0,10601619,30300119,0,20901209,0,0,3000001,41910509,41911019,0,0,0,0,0,0,-4050200,0,0,40910809,21101819,2021190,3190031,30000019,3080040,3120141,0
12,154,1374.28416828698,0,0,29060.725406862,29061.7724806583,0,15,7,0,0,32,0,1170111,2051160,10222312,5201350,0,0,1170111,0,0,0,0,0,0,2051160,0,0,0,0,0,0,0,0,3091070,0,0,2001201,2030021,0,3100020,0,0,0,0,0,0,-3100190,2101160,0,0,0
12,155,1772.9712974251,1,0,29064.3137388493,29065.3608199598,0,15,7,1,1,13,20,126875435,157017156,153436206,169407785,0,20210519,0,40710119,21400019,0,21411719,21112009,2031050,40011409,0,1030000,-2051100,10110309,1091181,31110719,40810619,30801819,31010319,0,3181180,0,41100319,2001030,4131120,32011319,40000919,0,41900419,10401619,0,4191001,11011219,40501109,31201109,30201309
12,156,975.167807675462,1,0,29068.2197302277,29069.2668109533,0,15,7,0,1,34,0,10453312,4040031,0,6321141,0,1091111,0,0,0,4180150,3041041,0,2141010,0,0,0,0,0,0,0,0,4040031,0,0,0,0,0,0,0,0,0,0,3020090,0,0,2200051,0,-1101000,0,0
12,157,880.735729035223,1,0,29071.4080646787,29072.4551434795,0,15,7,0,1,19,10,42622128,91222909,70322759,76533119,0,0,0,0,0,0,20811619,0,21810509,4051161,0,1020161,32010219,0,30511309,0,2120050,21510009,-2050071,1010000,0,22001009,4040141,0,10511019,30710519,0,0,0,3171010,0,1060191,0,0,40500209,31801709
12,158,679.424628993729,0,0,29074.5022680905,29075.5493515108,0,15,7,1,0,16,5,19823749,96072638,9263251,41081830,0,0,0,0,0,4071100,4141130,0,11611519,1150041,42010409,30410119,0,0,0,-2200060,20302009,0,0,0,0,0,0,3031161,2111050,0,4121040,0,1070111,0,0,0,0,40011719,0,0
12,159,1762.59967921214,0,0,29077.3611768186,29078.4082579291,0,15,7,0,0,12,5,42750790,49073511,45544960,37591020,0,40410619,0,1150170,0,0,1190001,0,0,0,4051021,-3121181,0,0,0,0,41901309,0,2160101,0,0,1071141,0,0,21311909,21001809,0,31410009,2040001,0,0,4141010,0,0,0,0
12,160,1371.26299466399,0,0,29081.3612792182,29082.4083741873,0,15,7,0,0,18,20,152417764,129946056,141676117,111395347,11011019,31911909,11300909,10400119,0,4031130,2141150,40310209,41311319,31100519,21702019,0,30211409,11611319,31310619,0,0,-4010171,1050090,30901519,41811119,20500819,0,3201081,1000061,11500019,31711409,41500319,0,4180020,0,3190161,10702019,11311319,40511509,0
12,161,729.599285783479,0,0,29084.9378656616,29085.9849398428,0,15,7,0,0,10,10,31401909,71575998,57063360,87435226,0,0,0,0,0,0,31401909,0,0,-1131060,2021030,21910319,1200150,21801119,20501119,0,3011201,0,0,0,0,1030161,2020041,1191040,31410209,21411909,0,21911219,0,10411019,0,10311409,41701509,0,0,3100070
12,162,570.62580728234,0,0,29087.7967686153,29088.843897076,0,15,7,1,0,15,0,3172200,7261201,1061191,7332270,0,0,1071050,0,0,0,0,2101150,0,0,0,3180051,0,0,-4081150,0,0,0,0,0,0,1061191,0,0,0,0,0,0,0,2151080,0,0,0,1041180,0,4140010
12,163,1749.14837331016,1,0,29090.5144898311,29091.5615736364,0,15,7,0,1,30,20,116224597,104526606,165013195,189062905,2060021,3040040,0,40200209,21510509,30911009,11301609,4050080,3151120,20301309,30401319,20201709,20901619,2020141,10700509,0,0,0,1180030,0,30510419,0,30800609,0,41000119,41011809,20510209,31110019,30600309,-1070160,41610309,2170061,32000419,10301609,0,40200019
12,164,1137.37033872167,1,0,29094.4322483113,29095.4793394307,0,15,7,1,1,6,0,3000051,6170211,6302321,4291141,0,0,0,0,0,-3000051,0,0,0,0,0,2110181,0,0,4060030,0,0,0,0,1081130,0,0,0,0,0,3091051,2130140,0,2200100,0,2091041,0,0,0,0,0
12,165,1367.2867328969,0,0,29097.7970561811,29098.8441342119,0,15,7,0,0,9,10,128965256,68635709,4212351,93825756,0,31211909,10800809,40800509,0,0,1120140,40901809,-4130080,21611619,2081120,41801709,0,0,2110161,1031100,0,0,1020011,1061200,0,0,2131140,0,0,0,0,10100809,0,22011319,40102009,0,0,0,21611619,0
12,166,891.270185733447,0,0,29101.3383343901,29102.3854120359,0,15,7,1,0,8,10,46771182,85405857,145996047,59726449,40610909,0,0,0,0,3110011,0,-1000141,2050121,31502009,0,11012009,0,0,0,40801809,2090030,0,0,30110809,0,41711619,41901809,30110709,0,0,2161101,1121180,1171131,0,11811919,41611209,0,0,0,4011010
12,167,825.666678589187,1,0,29104.4678360273,29105.5149213724,0,15,7,1,1,2,20,132255926,133336107,188586985,146338477,11000719,-4040000,0,1081190,3021080,0,40601709,31500019,41011209,30510109,40610819,0,0,22011409,4020071,11901409,3171181,21111109,0,10501719,30410719,21911919,0,40200819,40701619,40810019,4050171,31200309,20101309,1121031,20611609,0,1181101,31711409,40411709,0
12,168,1443.73459032067,0,0,29107.5385133199,29108.5855863462,0,15,7,1,0,24,5,24891269,44432318,6472332,24860429,2060091,0,10800509,0,0,1130160,10900509,0,0,0,2011190,30710219,0,0,0,0,0,11710909,0,2151170,1111101,0,2040010,-1170051,0,0,0,20810419,0,0,0,0,0,4050010,0,0
12,169,1648.69050074412,1,0,29137.0334730261,29138.0805614508,0,15,8,0,1,34,20,76815525,129304397,179728956,161626888,0,11610919,0,1161150,10210309,31710819,11611819,0,10510509,20610409,20410319,30411709,4100011,2060121,0,0,30500409,21211419,0,21411009,40011119,4021001,1071071,30610609,20301819,22001519,40300809,3071021,0,2070021,40311909,31612009,0,-2160110,40401609,42000209
12,170,1205.39448038835,1,0,29140.7865278838,29141.8336086093,0,15,8,1,1,24,5,24891269,44432318,6472332,24860429,2060091,0,10800509,0,0,1130160,10900509,0,0,0,2011190,30710219,0,0,0,0,0,11710909,0,2151170,1111101,0,2040010,-1170051,0,0,0,20810419,0,0,0,0,0,4050010,0,0
12,171,999.0203737907,0,0,29144.2101481644,29145.2572315847,0,15,8,0,0,18,5,42811470,49612378,16201359,48384019,0,0,0,0,0,40710419,2101051,0,0,30601709,4160120,0,0,0,0,0,11700519,-3150030,0,12010219,0,0,2160090,2031050,0,0,0,41301809,3011000,1031040,0,3040170,0,0,0,0
12,172,672.585027594323,1,0,29147.4573031104,29148.5043884555,0,15,8,1,1,29,0,9152252,1041121,9452373,3010051,0,4141080,2000041,3011131,0,0,0,0,0,0,0,0,0,0,1041121,0,0,0,0,0,0,0,0,4091141,0,2191141,3170091,0,-3010051,0,0,0,0,0,0,0
12,173,603.221221779677,0,0,29150.2338559852,29151.2809297815,0,15,8,0,0,28,0,15462373,4080111,0,4181031,0,4040000,0,4131121,3191111,4100141,0,0,0,0,0,2060081,0,2020030,0,0,0,0,0,0,0,0,0,0,0,0,0,-2051000,0,0,0,2130031,0,0,0,0
12,174,470.152536276146,1,0,29152.9398520602,29153.9868942896,0,15,8,1,1,15,0,3172200,7261201,1061191,7332270,0,0,1071050,0,0,0,0,2101150,0,0,0,3180051,0,0,-4081150,0,0,0,0,0,0,1061191,0,0,0,0,0,0,0,2151080,0,0,0,1041180,0,4140010
12,175,1278.87659857151,0,0,29155.5398876306,29156.5869668162,0,15,8,1,0,13,20,126875435,157017156,153436206,169407785,0,20210519,0,40710119,21400019,0,21411719,21112009,2031050,40011409,0,1030000,-2051100,10110309,1091181,31110719,40810619,30801819,31010319,0,3181180,0,41100319,2001030,4131120,32011319,40000919,0,41900419,10401619,0,4191001,11011219,40501109,31201109,30201309
12,176,1277.75251256389,0,0,29159.0341166808,29160.0811854725,0,15,8,1,0,26,10,58272899,106713457,45961219,103424049,0,4041090,0,11210119,0,0,0,1110171,41911519,0,10601619,30300119,0,20901209,0,0,3000001,41910509,41911019,0,0,0,0,0,0,-4050200,0,0,40910809,21101819,2021190,3190031,30000019,3080040,3120141,0
12,177,818.176878125087,1,0,29162.4106731742,29163.4577623689,0,15,8,0,1,27,10,34122649,63383058,74263547,127893339,0,11101309,0,0,1110031,0,21911309,0,0,0,0,4130160,4161070,3180200,0,40501519,11410109,0,0,0,0,2120160,40511309,10400109,0,20101919,-1130050,40001019,0,0,4181031,41200219,0,0,1110051,41401019
12,178,598.291411712125,0,0,29165.4225261222,29166.4696076176,0,15,8,0,0,9,10,99255818,24043029,107386478,61135498,32011219,3061180,30702019,1160170,0,31301219,0,0,-1020011,0,0,0,20902019,0,0,0,0,3141010,0,0,2111071,31001709,41711709,0,2150080,30411909,0,0,0,3120001,0,11911819,0,31102019,4201040,10800619
12,179,1047.20401248414,0,0,29168.1284906303,29169.1755721258,0,15,8,0,0,1,5,14282331,37012380,76462978,46012521,-1110141,0,0,0,2160181,11012009,0,0,0,3021151,0,0,0,0,30901219,0,0,3090010,0,0,0,0,41111619,1150040,30000309,4201010,0,0,41900319,3041001,0,0,1071201,0,0,0
12,180,575.194908928097,1,0,29171.4226920404,29172.4697835448,0,15,8,1,1,8,10,46771182,85405857,145996047,59726449,40610909,0,0,0,0,3110011,0,-1000141,2050121,31502009,0,11012009,0,0,0,40801809,2090030,0,0,30110809,0,41711619,41901809,30110709,0,0,2161101,1121180,1171131,0,11811919,41611209,0,0,0,4011010
12,181,692.762371410936,1,0,29174.105133124,29175.152209615,0,15,8,1,1,2,20,132255926,133336107,188586985,146338477,11000719,-4040000,0,1081190,3021080,0,40601709,31500019,41011209,30510109,40610819,0,0,22011409,4020071,11901409,3171181,21111109,0,10501719,30410719,21911919,0,40200819,40701619,40810019,4050171,31200309,20101309,1121031,20611609,0,1181101,31711409,40411709,0
12,182,975.743709277594,0,0,29176.9287289981,29177.9758794016,0,15,8,0,0,10,20,175526603,141575835,101368757,87645250,20800819,31101209,30311819,0,20401309,31200019,30811019,0,10900409,-4040151,11310309,31410609,0,31901919,10800419,31210709,20901719,0,11711219,4041200,2091120,40511319,0,10010909,31901809,0,1101181,0,4080080,21011219,3190021,3011041,0,21910919,4031051,30410919
12,183,1088.65506893198,1,0,29180.1641264665,29181.2112114266,0,15,8,1,1,6,0,3000051,6170211,6302321,4291141,0,0,0,0,0,-3000051,0,0,0,0,0,2110181,0,0,4060030,0,0,0,0,1081130,0,0,0,0,0,3091051,2130140,0,2200100,0,2091041,0,0,0,0,0
12,184,1018.85972188029,0,0,29183.481881328,29184.5289562791,0,15,8,1,0,16,5,19823749,96072638,9263251,41081830,0,0,0,0,0,4071100,4141130,0,11611519,1150041,42010409,30410119,0,0,0,-2200060,20302009,0,0,0,0,0,0,3031161,2111050,0,4121040,0,1070111,0,0,0,0,40011719,0,0
12,185,1927.48808287797,0,0,29186.6701999956,29187.7172861106,0,15,8,0,0,12,20,110754574,104755030,181326814,129677005,21910319,11700619,3001180,20910109,11610209,0,10611119,31011019,0,0,40501619,-3170021,21700519,3071100,0,31211709,2040021,3060041,41801709,30901509,4111040,11010009,41700819,40201519,0,11600209,0,40601809,2071040,31900309,10101519,21201319,0,3190190,0,20610819
12,186,1033.52596457626,0,0,29190.835021416,29191.8821056062,0,15,8,1,0,5,5,90594751,44090600,32242590,14321219,0,4061181,0,41411509,-2020031,0,1070120,2031191,40000719,40910509,0,0,3180091,0,0,0,0,0,30000309,0,0,0,1081200,0,0,1161081,0,10310219,0,0,4011000,0,0,0,0,0
12,187,1080.22634869121,1,0,29193.9292306023,29194.9763136376,0,15,8,1,1,25,10,85394157,42293551,107627557,49644359,20901909,40711809,0,0,0,0,2180120,0,21600319,0,3071141,0,31000909,0,0,2091200,4040140,2090161,41601119,0,10701619,0,0,0,-3101181,41511619,10712019,0,0,3150120,31512019,0,11801209,0,0,3181011
12,188,1168.1506622881,1,0,29197.1293194513,29198.1764051813,0,15,8,0,1,7,10,125906506,79114689,14910030,58573299,30610909,30701819,0,31300309,21811709,0,-1170041,0,10311719,1091011,4050040,42010919,1051010,30911709,0,0,0,0,0,4010011,0,0,0,10900019,0,0,0,4010161,0,1181130,10301719,0,0,0,41910119,1170170
12,189,1517.67596692662,1,0,29200.411769543,29201.4588602775,0,15,8,1,1,22,20,135559313,135835775,66185499,141407588,21310619,0,10911619,0,10711419,20311809,41701909,10600819,20011119,31611109,30501219,0,0,0,31111219,0,21111519,21500709,3011181,10910419,11911309,-4170121,4160170,1021180,0,31001119,0,20011219,1010061,2030001,1111001,40901519,3131060,21001109,41901409,10310209
12,190,1719.58260157407,0,0,29204.1177571488,29205.1648567374,0,15,8,0,0,32,5,2191170,20863279,75715867,18501452,0,0,0,0,2191170,0,0,0,0,0,3161090,0,0,0,3001160,4200120,0,10500909,0,0,0,3191130,0,0,21210819,20311909,31002009,0,0,2090131,3000041,-2101071,0,11310209,0,0
12,191,1071.70331301313,1,0,29208.0708192438,29209.117903049,0,15,8,0,1,30,0,4020120,7391200,7273390,6121261,0,0,0,4020120,0,0,0,0,0,4201000,0,0,0,3190200,0,0,0,0,0,0,0,0,2121130,1101090,0,0,4051170,0,0,-4120101,0,0,0,0,2001160,0
12,192,1515.25494744055,0,0,29211.2003416689,29212.2473950622,0,15,8,0,0,19,0,7201180,11263163,7100201,0,0,0,3180090,0,0,4021090,0,0,0,0,3001071,0,0,2020021,0,2041041,0,4201030,-3040080,0,4060121,0,0,0,0,0,0,0,0,0,0,0,0,0,0,0
12,193,918.523496977286,0,0,29236.1775057847,29237.2245903598,0,15,9,0,0,9,10,56685950,111714207,95403907,42482260,0,0,2151051,0,0,31211909,21211809,0,-2111181,0,21611319,3020041,0,2120050,21600209,20600819,40600719,2161050,0,30501919,4190050,0,0,20511119,40200819,0,0,0,0,1080141,0,0,0,1100110,0,40302009
12,194,893.241570818645,0,0,29239.2717203604,29240.3188030107,0,15,9,0,0,34,0,5112282,7381220,11492303,1030201,0,0,0,0,2051101,0,0,3061181,0,0,0,0,3191170,4190050,0,0,0,0,0,0,4201071,0,3150191,0,0,4141041,0,0,0,0,0,0,0,-1030201,0,0
12,195,897.827225784567,1,0,29242.3541562856,29243.4012420156,0,15,9,0,1,30,10,124703756,68320779,57974190,69074610,0,41600619,0,0,30600019,12001309,0,40501809,0,4150140,0,0,21910109,41100509,0,0,1160021,0,0,2071001,2010191,40211609,11511209,2170180,0,0,0,1041191,21410109,-3151060,3161141,0,0,0,40311109,0
12,196,1095.36378360281,0,0,29245.4836598476,29246.5307486573,0,15,9,1,0,26,10,58272899,106713457,45961219,103424049,0,4041090,0,11210119,0,0,0,1110171,41911519,0,10601619,30300119,0,20901209,0,0,3000001,41910509,41911019,0,0,0,0,0,0,-4050200,0,0,40910809,21101819,2021190,3190031,30000019,3080040,3120141,0
12,197,1426.3074076116,0,0,29248.7425772758,29249.7896637758,0,15,9,0,0,32,20,141235445,124658026,143353096,108517787,20310219,31912019,0,2200160,21200909,3000110,0,21610509,41001519,0,2121061,30211219,0,20811009,31000819,0,10502009,30011909,2190061,0,41900709,4040080,41601209,30210209,12010709,11400119,0,10301309,0,1191201,10401919,-1170201,2041120,21600319,30411209,31400509
12,198,1047.59859746991,1,0,29252.3073862235,29253.3544738784,0,15,9,1,1,15,0,3172200,7261201,1061191,7332270,0,0,1071050,0,0,0,0,2101150,0,0,0,3180051,0,0,-4081150,0,0,0,0,0,0,1061191,0,0,0,0,0,0,0,2151080,0,0,0,1041180,0,4140010
12,199,1986.80209784288,0,0,29255.5192414043,29256.566330599,0,15,9,1,0,8,10,46771182,85405857,145996047,59726449,40610909,0,0,0,0,3110011,0,-1000141,2050121,31502009,0,11012009,0,0,0,40801809,2090030,0,0,30110809,0,41711619,41901809,30110709,0,0,2161101,1121180,1171131,0,11811919,41611209,0,0,0,4011010
12,200,895.438543022465,1,0,29259.7664891259,29260.8135109524,0,15,9,0,1,28,0,2001201,4080010,5111290,7293380,2001201,0,0,0,0,0,0,0,0,4080010,0,0,0,0,0,0,0,0,0,0,4110120,1001170,0,0,0,0,0,-2040050,0,1061000,0,0,2081140,2111190,0,0
12,201,956.53300243066,0,0,29262.8723972757,29263.9194776163,0,15,9,0,0,19,5,37312109,40511209,71014499,36452440,2191140,32010909,0,0,0,3110060,0,0,0,0,0,40511209,0,0,0,0,0,0,-4191030,0,0,30701219,2100181,0,2121060,0,31901009,0,0,2190190,3111150,1041081,30110019,0,0,0
12,202,1489.61500758742,0,0,29265.896021175,29266.9431153742,0,15,9,0,0,18,20,112496068,92395766,108847696,189456703,31611319,0,41410509,4011141,12001419,0,0,3060161,20401519,2020180,20800509,40311619,4070000,11711209,0,11311219,0,-2171030,10211519,31111119,10901809,0,2111041,2190170,0,11211219,41110819,20611219,10501809,31600119,41700609,20710909,40100609,0,3031110,21200319
12,203,993.108143349673,0,0,29269.5196517727,29270.5667274937,0,15,9,1,0,24,5,24891269,44432318,6472332,24860429,2060091,0,10800509,0,0,1130160,10900509,0,0,0,2011190,30710219,0,0,0,0,0,11710909,0,2151170,1111101,0,2040010,-1170051,0,0,0,20810419,0,0,0,0,0,4050010,0,0
12,204,1222.63072246278,1,0,29272.6491553347,29273.6962325956,0,15,9,0,1,1,10,49212100,45273538,137326525,40623020,-2090010,0,2030180,41010719,0,0,0,0,4081191,11600309,0,0,21901719,0,0,0,1170091,10601419,31201519,41201319,20310709,30500319,0,4111150,0,0,10001509,30310709,0,2011080,0,4150070,0,0,4151161,0
12,205,950.076052231452,1,0,29276.0257137529,29277.0727944785,0,15,9,0,1,10,20,198746835,86636536,116834676,157854554,0,30012019,0,30211019,21700319,31611219,40900719,41301419,3010121,-4201040,3081170,2160180,21210709,10700119,20100409,3181000,22001909,0,0,2181130,0,31610809,0,40201819,31110519,10700219,1030180,40600109,0,0,40811309,41200319,11201109,11810209,10200409,2031090
12,206,550.565106637805,0,0,29279.1552103857,29280.2023080495,0,15,9,1,0,16,5,19823749,96072638,9263251,41081830,0,0,0,0,0,4071100,4141130,0,11611519,1150041,42010409,30410119,0,0,0,-2200060,20302009,0,0,0,0,0,0,3031161,2111050,0,4121040,0,1070111,0,0,0,0,40011719,0,0
12,207,877.572504814452,1,0,29281.7670588681,29282.8141445982,0,15,9,1,1,5,5,90594751,44090600,32242590,14321219,0,4061181,0,41411509,-2020031,0,1070120,2031191,40000719,40910509,0,0,3180091,0,0,0,0,0,30000309,0,0,0,1081200,0,0,1161081,0,10310219,0,0,4011000,0,0,0,0,0
12,208,921.631286815682,0,0,29284.8259667493,29285.8730582537,0,15,9,1,0,25,10,85394157,42293551,107627557,49644359,20901909,40711809,0,0,0,0,2180120,0,21600319,0,3071141,0,31000909,0,0,2091200,4040140,2090161,41601119,0,10701619,0,0,0,-3101181,41511619,10712019,0,0,3150120,31512019,0,11801209,0,0,3181011
12,209,672.255501012842,0,0,29287.9554749308,29289.0025575812,0,15,9,0,0,27,0,0,4080181,8142322,4242292,0,0,0,0,0,0,0,0,0,0,0,0,0,2000151,0,2080030,0,0,0,0,0,0,0,2011050,0,3081181,-3050091,0,0,2040101,0,0,1121160,0,0,1081031
12,210,1765.2982555519,1,0,29290.7790854335,29291.8261707786,0,15,9,1,1,29,0,9152252,1041121,9452373,3010051,0,4141080,2000041,3011131,0,0,0,0,0,0,0,0,0,0,1041121,0,0,0,0,0,0,0,0,4091141,0,2191141,3170091,0,-3010051,0,0,0,0,0,0,0
12,211,1000.72498092413,1,0,29294.790963404,29295.8380514438,0,15,9,0,1,7,5,8401310,3020060,8093323,149705125,0,0,0,3060190,0,0,-3140040,0,2201080,0,0,0,0,0,0,0,3020060,0,0,2011121,0,0,0,2041201,0,0,4041001,31900019,41310819,40700619,0,11210519,0,20402009,0,4181140
12,212,1035.77529147151,0,0,29297.9557644215,29299.0028443771,0,15,9,1,0,13,20,126875435,157017156,153436206,169407785,0,20210519,0,40710119,21400019,0,21411719,21112009,2031050,40011409,0,1030000,-2051100,10110309,1091181,31110719,40810619,30801819,31010319,0,3181180,0,41100319,2001030,4131120,32011319,40000919,0,41900419,10401619,0,4191001,11011219,40501109,31201109,30201309
12,213,2019.60423637865,1,0,29301.1558567351,29302.2029390005,0,15,9,1,1,6,0,3000051,6170211,6302321,4291141,0,0,0,0,0,-3000051,0,0,0,0,0,2110181,0,0,4060030,0,0,0,0,1081130,0,0,0,0,0,3091051,2130140,0,2200100,0,2091041,0,0,0,0,0
12,214,684.186596081418,1,0,29305.3442138988,29306.3913023236,0,15,9,1,1,22,20,135559313,135835775,66185499,141407588,21310619,0,10911619,0,10711419,20311809,41701909,10600819,20011119,31611109,30501219,0,0,0,31111219,0,21111519,21500709,3011181,10910419,11911309,-4170121,4160170,1021180,0,31001119,0,20011219,1010061,2030001,1111001,40901519,3131060,21001109,41901409,10310209
12,215,833.744699397357,1,0,29308.1207602293,29309.167849039,0,15,9,1,1,2,20,132255926,133336107,188586985,146338477,11000719,-4040000,0,1081190,3021080,0,40601709,31500019,41011209,30510109,40610819,0,0,22011409,4020071,11901409,3171181,21111109,0,10501719,30410719,21911919,0,40200819,40701619,40810019,4050171,31200309,20101309,1121031,20611609,0,1181101,31711409,40411709,0
12,216,2077.00191568074,1,0,29311.050256939,29312.0973484435,0,15,9,0,1,12,5,12481489,37004030,51011492,82354219,0,10410409,0,0,0,2071080,0,0,0,0,0,-2071010,0,31912019,0,3021001,0,0,4150031,2200021,1171031,0,40300409,0,0,3190000,0,0,0,0,40402009,0,0,1140191,40812019,0
12,217,583.398042050248,1,0,29340.76876617,29341.8158476654,0,15,10,0,1,28,0,4101271,3080030,2190140,11234342,0,0,2031191,0,0,0,0,0,2070080,0,0,0,0,3080030,0,0,0,0,0,0,0,0,2190140,0,0,0,0,-3111091,0,4051170,0,3021080,0,0,1051001,0
12,218,616.108944836014,1,0,29343.5217913857,29344.5688751909,0,15,10,1,1,22,20,135559313,135835775,66185499,141407588,21310619,0,10911619,0,10711419,20311809,41701909,10600819,20011119,31611109,30501219,0,0,0,31111219,0,21111519,21500709,3011181,10910419,11911309,-4170121,4160170,1021180,0,31001119,0,20011219,1010061,2030001,1111001,40901519,3131060,21001109,41901409,10310209
12,219,452.220669747476,1,0,29346.3689353218,29347.4160075782,0,15,10,1,1,16,5,19823749,96072638,9263251,41081830,0,0,0,0,0,4071100,4141130,0,11611519,1150041,42010409,30410119,0,0,0,-2200060,20302009,0,0,0,0,0,0,3031161,2111050,0,4121040,0,1070111,0,0,0,0,40011719,0,0
12,220,1214.6866680705,0,0,29348.898418327,29349.9454952029,0,15,10,0,0,27,10,84234318,67942568,49391131,92514090,2010181,0,0,0,40010809,0,10401809,0,31811519,0,0,10801019,4040111,21600919,31500519,0,0,0,3160161,0,3070081,0,0,0,41000819,0,-2160070,4160061,0,30511219,3131071,3090201,0,40010119,0,11611419
12,221,1512.81698967432,0,0,29352.2749902188,29353.3220682496,0,15,10,0,0,19,10,94763596,62123109,37014979,49494291,1030150,30611209,0,0,11111019,0,10110009,0,41901209,0,30101319,0,0,30910619,0,0,0,1111171,-2081140,2041190,0,0,10300819,1191121,21400709,0,0,0,2080181,0,20301609,3180131,3021161,20911209,0,0
12,222,910.239907014329,0,0,29355.9927368421,29357.0398175677,0,15,10,0,0,9,5,35903209,20601309,20003841,20642660,0,10400819,0,20501209,0,4000151,0,0,-1001030,0,0,0,0,0,0,0,20601309,0,0,0,3021041,0,0,4060111,2011080,10911609,0,0,0,0,4181070,0,3151181,2000100,11310309,0
12,223,1783.45147462824,1,0,29359.0634226039,29360.1105010196,0,15,10,0,1,18,20,107754725,110505784,101083538,114376207,0,1030091,11700019,30311519,10311709,11100109,21300209,1091050,20910019,10801019,21800209,1170170,0,20611309,21701919,10200209,21100819,-3120130,0,21511509,2121041,4040170,31600009,0,0,0,41810809,0,40711919,0,4010091,30600309,11300909,12011209,4040061,11701709
12,224,1883.79039426218,1,0,29362.9811695352,29364.0282598847,0,15,10,1,1,8,10,46771182,85405857,145996047,59726449,40610909,0,0,0,0,3110011,0,-1000141,2050121,31502009,0,11012009,0,0,0,40801809,2090030,0,0,30110809,0,41711619,41901809,30110709,0,0,2161101,1121180,1171131,0,11811919,41611209,0,0,0,4011010
12,225,1593.21608640312,0,0,29367.063648191,29368.1107269917,0,15,10,1,0,6,0,3000051,6170211,6302321,4291141,0,0,0,0,0,-3000051,0,0,0,0,0,2110181,0,0,4060030,0,0,0,0,1081130,0,0,0,0,0,3091051,2130140,0,2200100,0,2091041,0,0,0,0,0
12,226,1800.21998913435,1,0,29370.7696381066,29371.8167230667,0,15,10,0,1,10,20,78264870,160728896,141249844,193808216,30000709,42011909,0,0,3111111,3141141,0,0,0,-2130021,31701019,21101419,30900509,30501909,11701509,2181201,0,30511309,22011219,3091011,12001219,21710119,0,10711119,20311519,10712019,40701619,40310809,30812019,41001809,4120170,2031151,30510219,3011120,42010919,0
12,227,1210.03479981664,1,0,29374.7226944271,29375.7697728429,0,15,10,0,1,1,5,52893190,23413271,54502308,26100729,-1200200,0,0,3071140,3041130,4070011,0,0,41510709,0,0,0,0,21212009,0,0,1130181,1071081,0,2180070,0,41510219,0,0,0,10812019,0,0,0,0,0,0,22010709,0,4090020,0
12,228,1526.19515299375,1,0,29378.0874895932,29379.134577633,0,15,10,1,1,24,5,24891269,44432318,6472332,24860429,2060091,0,10800509,0,0,1130160,10900509,0,0,0,2011190,30710219,0,0,0,0,0,11710909,0,2151170,1111101,0,2040010,-1170051,0,0,0,20810419,0,0,0,0,0,4050010,0,0
12,229,1744.71785760761,0,0,29381.6640787313,29382.7111502178,0,15,10,1,0,5,5,90594751,44090600,32242590,14321219,0,4061181,0,41411509,-2020031,0,1070120,2031191,40000719,40910509,0,0,3180091,0,0,0,0,0,30000309,0,0,0,1081200,0,0,1161081,0,10310219,0,0,4011000,0,0,0,0,0
12,230,1302.84734769521,0,0,29385.4877111768,29386.534825009,0,15,10,0,0,12,10,77544497,13641150,40985020,111056678,0,31301609,0,4140060,0,0,10601209,31501619,0,0,0,-2131041,0,0,11510109,0,0,0,10700619,3041101,0,0,21101019,0,2071180,0,4071101,0,20300419,2201130,41401309,2051131,4101161,30001419,11000109,0
12,231,1246.65921573614,1,0,29389.0289882309,29390.0760762707,0,15,10,1,1,2,20,132255926,133336107,188586985,146338477,11000719,-4040000,0,1081190,3021080,0,40601709,31500019,41011209,30510109,40610819,0,0,22011409,4020071,11901409,3171181,21111109,0,10501719,30410719,21911919,0,40200819,40701619,40810019,4050171,31200309,20101309,1121031,20611609,0,1181101,31711409,40411709,0
12,232,604.885792978166,1,0,29392.4526212152,29393.4996984761,0,15,10,1,1,15,0,3172200,7261201,1061191,7332270,0,0,1071050,0,0,0,0,2101150,0,0,0,3180051,0,0,-4081150,0,0,0,0,0,0,1061191,0,0,0,0,0,0,0,2151080,0,0,0,1041180,0,4140010
12,233,1757.27836384613,1,0,29395.1821129975,29396.2291991125,0,15,10,1,1,26,10,58272899,106713457,45961219,103424049,0,4041090,0,11210119,0,0,0,1110171,41911519,0,10601619,30300119,0,20901209,0,0,3000001,41910509,41911019,0,0,0,0,0,0,-4050200,0,0,40910809,21101819,2021190,3190031,30000019,3080040,3120141,0
12,234,1031.59961992787,1,0,29399.1939948175,29400.2410716935,0,15,10,1,1,25,10,85394157,42293551,107627557,49644359,20901909,40711809,0,0,0,0,2180120,0,21600319,0,3071141,0,31000909,0,0,2091200,4040140,2090161,41601119,0,10701619,0,0,0,-3101181,41511619,10712019,0,0,3150120,31512019,0,11801209,0,0,3181011
12,235,1750.80794001406,1,0,29402.3117924867,29403.3588150831,0,15,10,0,1,30,5,24110130,36881090,45231679,34765141,0,0,0,0,21110019,3000111,0,0,0,0,0,4020101,0,0,1160080,0,0,31700909,0,30411519,0,10700119,0,0,0,4120041,0,0,0,-2061200,21300619,3161190,0,0,4131041,4111091
12,236,1886.5644229445,0,0,29406.2177569178,29407.2648041518,0,15,10,0,0,7,20,152055047,151915826,101727997,84114146,40301819,3130171,10111519,11600909,0,0,-4200111,41700109,41010409,32001819,21311509,40210719,3070150,0,0,20910019,3101191,31310419,10612019,21101419,3180061,2110141,11210709,0,10111519,40202019,3200110,2090061,10601009,0,0,10400419,10412019,20410419,0,30200219
12,237,1339.9618189178,0,0,29410.3354833692,29411.3825737188,0,15,10,0,0,32,0,3200170,10272302,4150161,9391311,0,3200170,0,0,0,0,0,0,0,0,0,4070141,0,0,2151101,4051060,0,0,0,0,0,0,0,0,4150161,0,0,0,4120091,0,0,-4101180,1170040,0,0,0
12,238,1243.55720030871,0,0,29413.7708799906,29414.8179672605,0,15,10,1,0,29,0,9152252,1041121,9452373,3010051,0,4141080,2000041,3011131,0,0,0,0,0,0,0,0,0,0,1041121,0,0,0,0,0,0,0,0,4091141,0,2191141,3170091,0,-3010051,0,0,0,0,0,0,0
12,239,1394.67516543664,0,0,29417.1356901702,29418.1827670462,0,15,10,0,0,34,0,1110110,5130102,4110171,6211601,0,0,0,0,0,0,0,0,1110110,0,0,0,0,0,0,0,3060021,2070081,0,0,0,0,0,0,4110171,0,0,0,1030110,2040140,0,0,0,-1050151,2091200,0
12,240,1129.99949119694,0,0,29420.6181398,29421.6652278398,0,15,10,1,0,13,20,126875435,157017156,153436206,169407785,0,20210519,0,40710119,21400019,0,21411719,21112009,2031050,40011409,0,1030000,-2051100,10110309,1091181,31110719,40810619,30801819,31010319,0,3181180,0,41100319,2001030,4131120,32011319,40000919,0,41900419,10401619,0,4191001,11011219,40501109,31201109,30201309
12,241,1300.32700828451,0,0,29443.6658634103,29444.7129418261,0,15,11,0,0,18,10,36932770,56394500,140295505,12211461,0,0,20500109,4071141,0,0,0,10311409,2050111,0,21911819,0,0,1080031,1151191,0,30210309,-2041150,0,42001709,20401519,0,10810819,3170130,0,21900809,42010519,0,1000151,0,0,1001091,0,0,0,10210219
12,242,1094.86179451051,1,0,29447.1600832215,29448.2071681816,0,15,11,0,1,34,0,6202231,6230312,1120071,6090272,0,2141161,0,4061070,0,0,0,0,0,1050150,0,0,0,0,0,4060111,1120051,0,0,0,0,0,1120071,0,0,0,0,3000071,0,0,0,0,0,-3090201,0,0
12,243,979.691098971671,1,0,29450.3484165176,29451.3955014777,0,15,11,0,1,27,0,4071031,3082212,11282362,4120141,0,0,0,0,0,4071031,0,0,0,0,2001201,0,0,0,0,1081011,0,0,2041120,1070021,0,0,4131100,0,0,0,-4040121,0,0,0,0,0,0,0,0,4120141
12,244,526.700606733357,1,0,29453.5132202299,29454.5602963359,0,15,11,0,1,10,10,88413669,51174249,80701649,94715247,0,4071021,0,1021121,31900409,0,10710709,40710409,0,-4041171,0,11411609,0,2050170,0,0,2160080,31511219,0,0,3171120,41810019,2160171,0,3060030,0,30500309,41201719,31801819,0,0,0,21711709,0,0,0
12,245,891.521565241419,0,0,29456.2074076273,29457.2544906627,0,15,11,0,0,7,10,50881392,25453159,116055727,110714719,0,41601019,0,0,0,2140111,-3050121,4090141,0,0,0,0,0,0,10900719,10511309,0,4041131,3141061,0,40400419,0,0,31301109,0,21101319,20111819,0,41501419,1140041,0,41511409,4000201,0,21501509,1060140
12,246,560.561772876099,0,0,29459.3251525568,29460.3722717785,0,15,11,1,0,13,20,126875435,157017156,153436206,169407785,0,20210519,0,40710119,21400019,0,21411719,21112009,2031050,40011409,0,1030000,-2051100,10110309,1091181,31110719,40810619,30801819,31010319,0,3181180,0,41100319,2001030,4131120,32011319,40000919,0,41900419,10401619,0,4191001,11011219,40501109,31201109,30201309
12,247,1621.94957253814,0,0,29462.1370575516,29463.1840770683,0,15,11,0,0,30,0,7272231,0,8422152,6212331,1030080,0,4141090,0,0,2101061,0,0,0,0,0,0,0,0,0,0,0,0,0,1070050,3151051,0,0,0,0,4201051,0,0,3021200,-3191131,0,0,0,0,0,0
12,248,1365.68375545539,1,0,29465.9841583721,29467.0312464119,0,15,11,0,1,19,20,131347675,101924537,142254654,128814648,32011019,21511519,21600219,2001140,0,20011509,2200041,10101419,21910809,20810419,0,2170070,0,1171091,4151100,10710919,22010719,40900219,-4140190,21901509,0,12000009,10400309,21710309,31501909,40600419,0,0,30411319,41410619,4080121,0,1110151,10700619,41101819,0
12,249,1341.23565473783,1,0,29469.4666137763,29470.5137002762,0,15,11,0,1,9,5,15560550,14463393,28632140,75024137,0,0,0,0,10310419,0,4070070,0,-1180061,3050101,4151010,0,0,3201091,0,4061191,0,0,0,4011061,4110160,0,20510919,0,0,0,0,21601409,0,0,0,0,21810909,31611819,0,0
12,250,478.293305721309,0,0,29473.0314215691,29474.078508454,0,15,11,1,0,16,5,19823749,96072638,9263251,41081830,0,0,0,0,0,4071100,4141130,0,11611519,1150041,42010409,30410119,0,0,0,-2200060,20302009,0,0,0,0,0,0,3031161,2111050,0,4121040,0,1070111,0,0,0,0,40011719,0,0
12,251,2565.25444698855,0,0,29475.6903234449,29476.7374126395,0,15,11,1,0,5,5,90594751,44090600,32242590,14321219,0,4061181,0,41411509,-2020031,0,1070120,2031191,40000719,40910509,0,0,3180091,0,0,0,0,0,30000309,0,0,0,1081200,0,0,1161081,0,10310219,0,0,4011000,0,0,0,0,0
12,252,1193.09497768336,1,0,29480.4786973159,29481.5257784264,0,15,11,0,1,28,5,8312111,52232688,47721631,69364930,0,0,0,4191080,4121031,0,0,0,0,1020160,0,0,0,11101609,0,0,40110919,0,0,0,4151121,0,0,40410319,3160191,0,0,-4010170,31011819,0,1091061,0,0,0,2050061,31201819
12,253,1202.74440913636,1,0,29483.8199890755,29484.867060177,0,15,11,0,1,1,20,103635630,218246294,180315736,136277484,-1170060,4040021,4001201,40600319,21511309,1001091,0,1001020,30310609,0,0,31710909,41611119,41110519,21001719,41510919,0,41301109,21201809,30100319,41400019,3140090,0,40611919,41810419,0,2051161,0,10601019,40501809,10111209,42011609,0,11200719,1140200,20710919
12,254,601.493132027827,1,0,29487.1730094407,29488.2200959406,0,15,11,1,1,22,20,135559313,135835775,66185499,141407588,21310619,0,10911619,0,10711419,20311809,41701909,10600819,20011119,31611109,30501219,0,0,0,31111219,0,21111519,21500709,3011181,10910419,11911309,-4170121,4160170,1021180,0,31001119,0,20011219,1010061,2030001,1111001,40901519,3131060,21001109,41901409,10310209
12,255,693.607360721217,1,0,29489.9848643905,29491.0319381867,0,15,11,1,1,8,10,46771182,85405857,145996047,59726449,40610909,0,0,0,0,3110011,0,-1000141,2050121,31502009,0,11012009,0,0,0,40801809,2090030,0,0,30110809,0,41711619,41901809,30110709,0,0,2161101,1121180,1171131,0,11811919,41611209,0,0,0,4011010
12,256,1611.40934142168,1,0,29492.831994083,29493.8790844326,0,15,11,0,1,12,5,25672420,32461601,56913018,38652509,0,0,3191011,0,0,21411409,0,0,1070000,0,0,-1160041,0,0,1001151,0,0,30300409,0,0,11012009,0,1000120,0,41700809,3200080,0,3111180,0,0,0,0,0,4031110,0,31510219
12,257,1508.32603510207,0,0,29496.5732837639,29497.6203698788,0,15,11,1,0,29,0,9152252,1041121,9452373,3010051,0,4141080,2000041,3011131,0,0,0,0,0,0,0,0,0,0,1041121,0,0,0,0,0,0,0,0,4091141,0,2191141,3170091,0,-3010051,0,0,0,0,0,0,0
12,258,1197.93355200454,0,0,29500.161626915,29501.2087076405,0,15,11,1,0,26,10,58272899,106713457,45961219,103424049,0,4041090,0,11210119,0,0,0,1110171,41911519,0,10601619,30300119,0,20901209,0,0,3000001,41910509,41911019,0,0,0,0,0,0,-4050200,0,0,40910809,21101819,2021190,3190031,30000019,3080040,3120141,0
12,259,528.071837681637,0,0,29503.5852495054,29504.6323383151,0,15,11,1,0,15,0,3172200,7261201,1061191,7332270,0,0,1071050,0,0,0,0,2101150,0,0,0,3180051,0,0,-4081150,0,0,0,0,0,0,1061191,0,0,0,0,0,0,0,2151080,0,0,0,1041180,0,4140010
12,260,1437.29650320893,0,0,29506.1970879789,29507.244182948,0,15,11,1,0,6,0,3000051,6170211,6302321,4291141,0,0,0,0,0,-3000051,0,0,0,0,0,2110181,0,0,4060030,0,0,0,0,1081130,0,0,0,0,0,3091051,2130140,0,2200100,0,2091041,0,0,0,0,0
12,261,1522.63349418354,1,0,29509.7618969266,29510.8089822717,0,15,11,0,1,32,20,155068898,166930904,89868186,98741738,3161171,0,30311709,11811019,31800609,1081121,4191031,31501619,41210619,41001009,30912009,0,20311019,2181191,10911519,20510619,20101919,21001619,32011109,0,1091160,0,11700009,11601009,21011909,1141171,11311819,21410009,41410209,0,1090151,-4130150,0,0,30701219,0
12,262,1429.30163396886,0,0,29513.4090728915,29514.4561532321,0,15,11,1,0,24,5,24891269,44432318,6472332,24860429,2060091,0,10800509,0,0,1130160,10900509,0,0,0,2011190,30710219,0,0,0,0,0,11710909,0,2151170,1111101,0,2040010,-1170051,0,0,0,20810419,0,0,0,0,0,4050010,0,0
12,263,1045.63414168661,1,0,29516.9386067115,29517.9856651093,0,15,11,1,1,25,10,85394157,42293551,107627557,49644359,20901909,40711809,0,0,0,0,2180120,0,21600319,0,3071141,0,31000909,0,0,2091200,4040140,2090161,41601119,0,10701619,0,0,0,-3101181,41511619,10712019,0,0,3150120,31512019,0,11801209,0,0,3181011
12,264,1333.39861949207,1,0,29520.0798481182,29521.1269299986,0,15,11,1,1,2,20,132255926,133336107,188586985,146338477,11000719,-4040000,0,1081190,3021080,0,40601709,31500019,41011209,30510109,40610819,0,0,22011409,4020071,11901409,3171181,21111109,0,10501719,30410719,21911919,0,40200819,40701619,40810019,4050171,31200309,20101309,1121031,20611609,0,1181101,31711409,40411709,0
12,265,781.37307040015,1,0,29546.9865039392,29548.0335981384,0,15,12,1,1,8,10,46771182,85405857,145996047,59726449,40610909,0,0,0,0,3110011,0,-1000141,2050121,31502009,0,11012009,0,0,0,40801809,2090030,0,0,30110809,0,41711619,41901809,30110709,0,0,2161101,1121180,1171131,0,11811919,41611209,0,0,0,4011010
12,266,787.623296568199,0,0,29549.845414977,29550.8925049416,0,15,12,1,0,25,10,85394157,42293551,107627557,49644359,20901909,40711809,0,0,0,0,2180120,0,21600319,0,3071141,0,31000909,0,0,2091200,4040140,2090161,41601119,0,10701619,0,0,0,-3101181,41511619,10712019,0,0,3150120,31512019,0,11801209,0,0,3181011
12,267,1125.5920731528,1,0,29552.7043294795,29553.7514075103,0,15,12,1,1,24,5,24891269,44432318,6472332,24860429,2060091,0,10800509,0,0,1130160,10900509,0,0,0,2011190,30710219,0,0,0,0,0,11710909,0,2151170,1111101,0,2040010,-1170051,0,0,0,20810419,0,0,0,0,0,4050010,0,0
12,268,675.408716248057,1,0,29555.8926462223,29556.9397365719,0,15,12,0,1,10,0,5131151,2190191,8310242,5330011,2000080,0,0,0,0,0,0,3131071,0,-2190191,0,0,0,0,0,0,0,0,0,0,3050170,0,3160011,0,0,2100061,0,0,0,0,1200010,0,0,4130001,0,0
12,269,496.700983996561,0,0,29558.622143009,29559.6692418277,0,15,12,1,0,22,20,135559313,135835775,66185499,141407588,21310619,0,10911619,0,10711419,20311809,41701909,10600819,20011119,31611109,30501219,0,0,0,31111219,0,21111519,21500709,3011181,10910419,11911309,-4170121,4160170,1021180,0,31001119,0,20011219,1010061,2030001,1111001,40901519,3131060,21001109,41901409,10310209
12,270,1273.01749274193,0,0,29561.3398669197,29562.3869476452,0,15,12,1,0,6,0,3000051,6170211,6302321,4291141,0,0,0,0,0,-3000051,0,0,0,0,0,2110181,0,0,4060030,0,0,0,0,1081130,0,0,0,0,0,3091051,2130140,0,2200100,0,2091041,0,0,0,0,0
12,271,743.558355192363,1,0,29564.7752677757,29565.8223492711,0,15,12,0,1,19,10,72121528,48245071,67014220,101313636,0,0,40711219,0,0,0,0,31410309,0,0,41001709,0,0,0,3091091,0,3141081,1011190,-1040101,0,0,1051000,2111161,31511519,30110409,0,1190030,21210819,4080161,21900209,11711009,30610219,0,11801219,0,0
12,272,454.579325552913,0,0,29567.57534292,29568.6224267253,0,15,12,1,0,16,5,19823749,96072638,9263251,41081830,0,0,0,0,0,4071100,4141130,0,11611519,1150041,42010409,30410119,0,0,0,-2200060,20302009,0,0,0,0,0,0,3031161,2111050,0,4121040,0,1070111,0,0,0,0,40011719,0,0
12,273,711.246656919684,1,0,29570.1636510397,29571.2107359998,0,15,12,0,1,30,0,5260390,2201050,8362312,6191301,0,0,0,0,0,4080190,1180200,0,0,0,2201050,0,0,0,0,0,0,0,0,0,3111100,3190141,0,0,0,2061071,0,0,0,-3060101,3131200,0,0,0,0,0
12,274,957.516577687784,0,0,29572.9402223926,29573.9872954189,0,15,12,1,0,26,10,58272899,106713457,45961219,103424049,0,4041090,0,11210119,0,0,0,1110171,41911519,0,10601619,30300119,0,20901209,0,0,3000001,41910509,41911019,0,0,0,0,0,0,-4050200,0,0,40910809,21101819,2021190,3190031,30000019,3080040,3120141,0
12,275,1460.24518098056,0,0,29576.0344219548,29577.0814919015,0,15,12,0,0,32,20,96025665,111494416,148668176,150836935,0,10510419,41002019,1191090,20810009,0,10910709,11601419,0,11301419,11100409,1101150,4080011,11610809,31800409,0,0,40500209,0,40511809,20911919,40001309,22011109,3180120,1150101,20901809,0,0,41610619,1081030,30902019,-4041100,20711519,1180110,31100519,20210019
12,276,805.282610737777,1,0,29579.6815771318,29580.728661322,0,15,12,0,1,34,10,46761468,8212300,54194758,120827625,21100909,0,0,0,21500409,0,0,0,4160150,0,2001050,0,2021110,0,0,4190140,0,0,31901709,0,0,1180131,0,0,10411209,0,10701709,21710919,11011319,1081030,40210409,30911709,0,-2000090,11901119,2001030
12,277,507.758217685478,0,0,29582.5640112092,29583.6110965543,0,15,12,1,0,15,0,3172200,7261201,1061191,7332270,0,0,1071050,0,0,0,0,2101150,0,0,0,3180051,0,0,-4081150,0,0,0,0,0,0,1061191,0,0,0,0,0,0,0,2151080,0,0,0,1041180,0,4140010
12,278,973.35733627915,0,0,29585.2582166998,29586.3052951156,0,15,12,0,0,18,5,62483968,14921220,2201021,34902890,0,0,2070010,21811819,4070120,30510909,4021110,0,0,0,0,0,1050030,0,0,10801109,0,-3070081,0,0,0,0,0,0,2201021,0,0,20110619,0,0,0,1130001,2151051,11511219,0,0
12,279,788.65537690217,0,0,29588.3759481557,29589.4230346556,0,15,12,1,0,5,5,90594751,44090600,32242590,14321219,0,4061181,0,41411509,-2020031,0,1070120,2031191,40000719,40910509,0,0,3180091,0,0,0,0,0,30000309,0,0,0,1081200,0,0,1161081,0,10310219,0,0,4011000,0,0,0,0,0
12,280,1458.26301699344,0,0,29591.3054452504,29592.3525309804,0,15,12,1,0,29,0,9152252,1041121,9452373,3010051,0,4141080,2000041,3011131,0,0,0,0,0,0,0,0,0,0,1041121,0,0,0,0,0,0,0,0,4091141,0,2191141,3170091,0,-3010051,0,0,0,0,0,0,0
12,281,1371.38271752337,0,0,29594.9290847021,29595.9761588833,0,15,12,0,0,12,5,13143140,14431120,49832651,26623308,0,0,0,0,0,11112019,0,0,2031121,0,0,-3130011,0,0,0,0,0,11301109,4190140,1110120,0,1171081,0,0,40200119,0,3161191,0,4170130,1140050,11001519,10311609,0,0,0,0
12,282,658.023879244865,0,0,29598.4585961943,29599.5057288896,0,15,12,0,0,28,0,7050190,1131090,4220171,6372221,0,0,0,0,0,4000030,0,0,3050160,0,0,1131090,0,0,0,0,0,0,0,0,0,0,1080061,0,3140110,0,0,-4100031,0,0,1071070,1201120,0,0,0,0
12,283,961.492839454877,1,0,29601.293970334,29602.3410537543,0,15,12,0,1,9,10,18361700,14760280,57245185,97813198,0,2140141,0,1130110,0,0,0,11000319,-4091130,0,4150171,0,0,0,0,0,0,10610109,10211419,0,11410909,10600609,0,10911019,2170190,1141020,10800019,1000141,20100319,0,41901009,0,30701619,4110110,0,0
12,284,1465.98879851808,1,0,29604.3293509411,29605.3764370561,0,15,12,0,1,7,5,21111440,47652800,19734133,13101899,0,0,0,0,20000309,0,-1111131,0,0,0,0,3021021,0,20110509,4121151,0,20400119,0,1080161,3121181,11200709,0,0,0,2151031,0,2181051,0,0,0,2201190,0,0,10900709,0,0
12,285,1201.21341939375,1,0,29607.8471041857,29608.8941883759,0,15,12,0,1,27,20,126704756,200748404,83035038,160775986,20611419,0,0,30400219,10711819,31900009,0,2070071,31011219,40000619,11511809,4101011,0,31811319,31611119,30000509,30011109,21700909,31410119,3130160,10610119,0,2071140,1071150,31701319,0,-3041031,2040090,3121111,41310519,21902019,40601019,21400209,30401019,0,0
12,286,1070.17463303782,1,0,29611.2942621344,29612.3413455547,0,15,12,1,1,2,20,132255926,133336107,188586985,146338477,11000719,-4040000,0,1081190,3021080,0,40601709,31500019,41011209,30510109,40610819,0,0,22011409,4020071,11901409,3171181,21111109,0,10501719,30410719,21911919,0,40200819,40701619,40810019,4050171,31200309,20101309,1121031,20611609,0,1181101,31711409,40411709,0
12,287,596.224556313246,1,0,29614.4472952803,29615.4943783156,0,15,12,0,1,1,20,153537606,108018874,132575816,108127216,-4110140,0,20011719,0,20501919,4101091,31711519,32000109,41101109,0,11001919,21201019,0,40800019,10212009,10801809,3191190,10810909,0,4120191,4141160,20811819,40501419,21200409,0,31100209,10700609,30010609,0,20711519,31800809,2061160,1070030,20302009,2171080,0
12,288,673.241770997265,1,0,29617.1650253503,29618.2121060759,0,15,12,1,1,13,20,126875435,157017156,153436206,169407785,0,20210519,0,40710119,21400019,0,21411719,21112009,2031050,40011409,0,1030000,-2051100,10110309,1091181,31110719,40810619,30801819,31010319,0,3181180,0,41100319,2001030,4131120,32011319,40000919,0,41900419,10401619,0,4191001,11011219,40501109,31201109,30201309
12,289,795.322900750762,1,0,29623.0828346453,29624.1299280745,0,15,13,1,1,22,20,135559313,135835775,66185499,141407588,21310619,0,10911619,0,10711419,20311809,41701909,10600819,20011119,31611109,30501219,0,0,0,31111219,0,21111519,21500709,3011181,10910419,11911309,-4170121,4160170,1021180,0,31001119,0,20011219,1010061,2030001,1111001,40901519,3131060,21001109,41901409,10310209
12,290,1222.87517267614,1,0,29626.1182202568,29627.1653013673,0,15,13,0,1,1,10,111912688,6272271,124994426,88942527,-3030060,0,3191010,30700119,0,31810609,3180171,40000719,0,0,0,0,0,3091030,1060100,0,0,2121141,0,0,1061180,0,21800909,0,41010209,40310709,20811419,3130090,31900509,0,0,41911209,0,0,0,12000719
12,291,833.28659585095,1,0,29629.4359674191,29630.4830473747,0,15,13,0,1,28,20,128707168,158945945,127357668,178636784,41411919,20202009,40801819,3170081,0,2011131,21110209,0,0,4121090,40511209,31101909,41400119,0,31310109,0,10501509,0,0,31501509,21811119,3100151,10001609,20700019,32011009,4031151,4201101,-1010080,10212019,0,20801909,40110109,41610009,41410509,3171040,20311109
12,292,426.244658974611,1,0,29632.4360548052,29633.4831386105,0,15,13,1,1,16,5,19823749,96072638,9263251,41081830,0,0,0,0,0,4071100,4141130,0,11611519,1150041,42010409,30410119,0,0,0,-2200060,20302009,0,0,0,0,0,0,3031161,2111050,0,4121040,0,1070111,0,0,0,0,40011719,0,0
12,293,1372.59187990276,0,0,29635.1067218579,29636.1538025834,0,15,13,0,0,30,10,90083219,81864957,30721831,76336508,0,0,30800419,0,31410709,20611009,4061021,0,3200061,0,1050100,30211319,0,0,0,30301719,20301819,0,0,4150141,0,0,21501509,0,0,1060100,4010081,0,20912019,-1111130,21811909,0,0,31300319,0,1201131
12,294,673.272182913934,0,0,29638.5538751871,29639.6009870945,0,15,13,0,0,34,20,139475435,134424897,165796353,91972626,41510419,20311919,3120070,20511109,42011009,0,0,12010909,0,3011190,30900809,20710619,32010209,3090180,3090171,0,41611719,0,40810409,30010719,11200019,0,30310309,20901809,21101009,10411019,1051060,21900119,1000200,0,32000019,0,3090100,-2070060,10610419,21301709
12,295,992.456789401331,1,0,29641.3186609601,29642.3657459203,0,15,13,1,1,13,20,126875435,157017156,153436206,169407785,0,20210519,0,40710119,21400019,0,21411719,21112009,2031050,40011409,0,1030000,-2051100,10110309,1091181,31110719,40810619,30801819,31010319,0,3181180,0,41100319,2001030,4131120,32011319,40000919,0,41900419,10401619,0,4191001,11011219,40501109,31201109,30201309
12,296,1544.32835410626,1,0,29644.4128674517,29645.4599497171,0,15,13,0,1,9,5,68391979,12630600,56101548,8623410,0,0,3141111,0,21400309,0,0,41810509,-2040050,0,0,0,2030081,0,0,0,10600519,0,0,31910619,0,0,20100809,0,4090120,0,0,3190000,0,0,0,1071200,0,0,1201190,3161020
12,297,3315.2985250199,1,0,29648.177689796,29649.224766672,0,15,13,1,1,5,5,90594751,44090600,32242590,14321219,0,4061181,0,41411509,-2020031,0,1070120,2031191,40000719,40910509,0,0,3180091,0,0,0,0,0,30000309,0,0,0,1081200,0,0,1161081,0,10310219,0,0,4011000,0,0,0,0,0
12,298,1610.84344881237,0,0,29653.56607383,29654.6131749585,0,15,13,1,0,6,0,3000051,6170211,6302321,4291141,0,0,0,0,0,-3000051,0,0,0,0,0,2110181,0,0,4060030,0,0,0,0,1081130,0,0,0,0,0,3091051,2130140,0,2200100,0,2091041,0,0,0,0,0
12,299,1656.79931842533,1,0,29657.27206952,29658.3191475508,0,15,13,1,1,24,5,24891269,44432318,6472332,24860429,2060091,0,10800509,0,0,1130160,10900509,0,0,0,2011190,30710219,0,0,0,0,0,11710909,0,2151170,1111101,0,2040010,-1170051,0,0,0,20810419,0,0,0,0,0,4050010,0,0
12,300,1249.13258991,1,0,29660.9898257673,29662.0369080327,0,15,13,0,1,19,0,4110170,5180161,6313373,7301201,0,0,0,0,0,0,0,0,4110170,0,0,0,0,0,0,0,2160041,3020120,-1171001,3031201,0,0,0,2111171,0,0,0,0,0,0,4150101,0,0,0,3151100,0
12,301,638.216867871961,0,0,29664.4605067556,29665.5075917157,0,15,13,1,0,26,10,58272899,106713457,45961219,103424049,0,4041090,0,11210119,0,0,0,1110171,41911519,0,10601619,30300119,0,20901209,0,0,3000001,41910509,41911019,0,0,0,0,0,0,-4050200,0,0,40910809,21101819,2021190,3190031,30000019,3080040,3120141,0
12,302,659.342370534432,0,0,29667.3194170235,29668.3665039084,0,15,13,1,0,25,10,85394157,42293551,107627557,49644359,20901909,40711809,0,0,0,0,2180120,0,21600319,0,3071141,0,31000909,0,0,2091200,4040140,2090161,41601119,0,10701619,0,0,0,-3101181,41511619,10712019,0,0,3150120,31512019,0,11801209,0,0,3181011
12,303,994.180259622226,0,0,29670.060669748,29671.1077547082,0,15,13,1,0,15,0,3172200,7261201,1061191,7332270,0,0,1071050,0,0,0,0,2101150,0,0,0,3180051,0,0,-4081150,0,0,0,0,0,0,1061191,0,0,0,0,0,0,0,2151080,0,0,0,1041180,0,4140010
12,304,1727.46775694031,0,0,29673.1784108279,29674.2254965579,0,15,13,0,0,7,10,90324758,38841661,57671078,77221971,0,41600319,0,0,3011171,11110109,-4201141,10300509,20101509,0,0,4030051,0,0,0,30610519,4201091,0,11010309,31600619,0,0,0,0,3160041,11900109,0,30301009,40710709,1060121,0,3050071,0,0,2100061,0
12,305,2570.03258244004,0,0,29677.0255778617,29678.0726628218,0,15,13,1,0,29,0,9152252,1041121,9452373,3010051,0,4141080,2000041,3011131,0,0,0,0,0,0,0,0,0,0,1041121,0,0,0,0,0,0,0,0,4091141,0,2191141,3170091,0,-3010051,0,0,0,0,0,0,0
12,306,682.461970976874,1,0,29681.7551296979,29682.8022104234,0,15,13,0,1,27,5,51013328,2141030,70432299,46253810,0,0,0,0,30211419,0,0,0,20801909,0,0,0,0,0,0,0,0,2141030,31710219,0,30610809,0,0,0,3040161,3011020,-2060090,0,0,0,0,4001061,4110130,2121200,4111110,31910309
12,307,2202.82602086081,0,0,29684.5199212453,29685.5669981213,0,15,13,0,0,12,20,135835336,102444579,122316906,220826564,0,0,0,20811209,1200071,31201319,30810919,20910209,30901609,0,42000009,-3061141,21100819,0,1100011,32001409,1180020,2001170,4161061,3110170,31910809,0,21710319,0,10611419,20211609,30601519,4160081,10710609,20111809,41100109,0,40310019,41311019,21211309,41911609
12,308,1343.61086386707,1,0,29688.9671019068,29690.0141907165,0,15,13,1,1,2,20,132255926,133336107,188586985,146338477,11000719,-4040000,0,1081190,3021080,0,40601709,31500019,41011209,30510109,40610819,0,0,22011409,4020071,11901409,3171181,21111109,0,10501719,30410719,21911919,0,40200819,40701619,40810019,4050171,31200309,20101309,1121031,20611609,0,1181101,31711409,40411709,0
12,309,1134.56705299905,0,0,29692.4260254173,29693.4731099925,0,15,13,0,0,32,5,4322301,53221228,51812318,52296281,0,0,1120080,0,2131170,1071051,0,0,0,0,0,0,41510009,0,0,0,11711219,0,0,0,0,0,0,20401109,0,0,31411209,40001819,3001100,0,0,-2061020,4171080,0,2001191,1060071
12,310,1094.7124296581,0,0,29695.6378856026,29696.6849713326,0,15,13,0,0,18,0,2061182,6491240,4240160,2161170,0,1040001,0,1021181,0,0,0,0,0,0,0,0,3150030,0,2190080,0,0,-1151130,0,0,0,0,2180070,0,0,2060090,0,2161170,0,0,0,0,0,0,0,0
12,311,811.714923431282,1,0,29698.8968111149,29699.9438903006,0,15,13,0,1,10,0,10221422,9162342,0,5191091,4021140,0,0,2010151,0,0,4190131,0,0,-3041051,4010110,0,0,2111181,0,0,0,0,0,0,0,0,0,0,0,0,0,0,0,2121000,0,0,0,0,0,3070091
12,312,799.635618397588,0,0,29701.8498389484,29702.8969177491,0,15,13,1,0,8,10,46771182,85405857,145996047,59726449,40610909,0,0,0,0,3110011,0,-1000141,2050121,31502009,0,11012009,0,0,0,40801809,2090030,0,0,30110809,0,41711619,41901809,30110709,0,0,2161101,1121180,1171131,0,11811919,41611209,0,0,0,4011010
12,313,942.81761331149,0,0,29718.1444180051,29719.1915437711,0,15,14,1,0,2,20,132255926,133336107,188586985,146338477,11000719,-4040000,0,1081190,3021080,0,40601709,31500019,41011209,30510109,40610819,0,0,22011409,4020071,11901409,3171181,21111109,0,10501719,30410719,21911919,0,40200819,40701619,40810019,4050171,31200309,20101309,1121031,20611609,0,1181101,31711409,40411709,0
12,314,1410.73188712471,0,0,29721.2974596202,29722.3445449653,0,15,14,0,0,30,0,3261121,7301393,0,6262261,0,0,0,2121061,0,0,0,1140060,0,0,0,0,0,2130171,0,2070061,0,3101161,0,0,0,0,0,0,0,0,0,1000090,0,-3131140,0,2131031,0,0,0,0
12,315,891.474600004585,0,0,29724.8387316698,29725.8858197096,0,15,14,1,0,29,0,9152252,1041121,9452373,3010051,0,4141080,2000041,3011131,0,0,0,0,0,0,0,0,0,0,1041121,0,0,0,0,0,0,0,0,4091141,0,2191141,3170091,0,-3010051,0,0,0,0,0,0,0
12,316,578.159019416489,0,0,29727.9211764491,29728.9680524643,0,15,14,0,0,9,0,9232101,11121231,1110101,2011090,0,0,0,0,0,0,4021001,2111080,-3100020,0,0,0,0,0,0,4060050,3031121,4030060,0,0,0,0,1110101,0,0,0,0,0,2011090,0,0,0,0,0,0,0
12,317,542.478616687731,0,0,29730.603605214,29731.6506886342,0,15,14,0,0,10,20,129254204,60692828,99007874,114935974,1060130,11500009,20510819,30101819,21710609,31610209,10700419,0,2060190,-2030070,2150020,1110180,20010619,0,30000719,3200120,2191100,0,30110819,3170100,11310609,21101209,12011909,10601909,10701319,0,0,21411909,21411209,11701809,10000219,0,40000219,0,0,10410609
12,318,1313.49151826726,1,0,29733.4036869027,29734.4507753274,0,15,14,1,1,6,0,3000051,6170211,6302321,4291141,0,0,0,0,0,-3000051,0,0,0,0,0,2110181,0,0,4060030,0,0,0,0,1081130,0,0,0,0,0,3091051,2130140,0,2200100,0,2091041,0,0,0,0,0
12,319,1099.64531941296,1,0,29736.8743782849,29737.9214601653,0,15,14,0,1,1,20,124477849,108374907,107031625,167028315,-4120101,4131011,0,3101071,0,40611509,20611419,11801219,40101519,20710319,3111111,20001319,31301509,2150030,0,0,31100619,0,11611919,10701709,2111011,0,20011919,1171030,10602009,30410409,20411619,30611809,0,0,31310309,41511609,10811809,30311519,21400209,1071051
12,320,1665.62955295012,0,0,29740.1333295896,29741.1804388023,0,15,14,0,0,18,10,46652721,79174009,96023497,109444358,40501409,0,2141171,4010141,0,0,0,0,0,3181110,0,0,31501609,3000091,0,0,40311019,-1180180,0,3200031,0,30911509,40300719,0,11500219,10111019,0,0,0,40300709,30902019,32001509,3100020,0,0,3140101
12,321,887.27891048984,1,0,29743.9098951681,29744.9569570305,0,15,14,1,1,16,5,19823749,96072638,9263251,41081830,0,0,0,0,0,4071100,4141130,0,11611519,1150041,42010409,30410119,0,0,0,-2200060,20302009,0,0,0,0,0,0,3031161,2111050,0,4121040,0,1070111,0,0,0,0,40011719,0,0
12,322,979.240309687157,1,0,29746.9099883286,29747.9570451866,0,15,14,0,1,27,10,118330427,82953427,7393172,97582488,41410009,0,0,0,0,3010090,41900019,32010309,0,4011051,0,22010219,31710109,0,11710019,11411019,0,2101010,2121140,0,4111031,0,0,0,0,0,-1161001,0,0,1100061,11100409,41211709,0,41000309,3170000,0
12,323,1532.24327465432,1,0,29750.1218288809,29751.1689061418,0,15,14,0,1,7,10,70313890,89255857,52643368,34901488,0,11300619,2201081,11901009,0,0,-3100121,1110051,40701009,1040180,31000509,0,0,40011709,4021200,0,12011109,1171150,1141130,41500319,0,0,0,0,0,0,10001919,0,0,0,0,3191070,0,21210309,10500109,0
12,324,787.346124674514,0,0,29753.8278168716,29754.8748914378,0,15,14,1,0,22,20,135559313,135835775,66185499,141407588,21310619,0,10911619,0,10711419,20311809,41701909,10600819,20011119,31611109,30501219,0,0,0,31111219,0,21111519,21500709,3011181,10910419,11911309,-4170121,4160170,1021180,0,31001119,0,20011219,1010061,2030001,1111001,40901519,3131060,21001109,41901409,10310209
12,325,978.942734862358,1,0,29756.8161725725,29757.8632201914,0,15,14,1,1,26,10,58272899,106713457,45961219,103424049,0,4041090,0,11210119,0,0,0,1110171,41911519,0,10601619,30300119,0,20901209,0,0,3000001,41910509,41911019,0,0,0,0,0,0,-4050200,0,0,40910809,21101819,2021190,3190031,30000019,3080040,3120141,0
12,326,2618.1846543368,0,0,29760.0397555889,29761.0868401641,0,15,14,0,0,28,5,42530438,29060530,1080011,56863491,0,0,0,30100009,11300309,0,0,1130120,0,0,3070101,0,0,0,0,0,4090120,21900309,0,0,0,0,0,0,1080011,0,0,-3070150,0,0,4140141,11811719,31611309,4070041,0,2160131
12,327,766.874285724043,1,0,29764.8398988714,29765.8869730526,0,15,14,0,1,34,5,18421910,34860821,47552709,42410389,0,0,0,0,3190050,11201809,0,0,4030051,1010071,0,0,2070151,0,30610509,1170090,0,0,0,20610209,0,2191171,0,4051120,20700209,0,0,40300309,0,0,0,0,0,-2110080,0,0
12,328,999.681351757317,1,0,29767.828217616,29768.8752983416,0,15,14,0,1,32,20,153856387,126087074,156826094,79094299,20910209,41302009,21100009,2050001,11810709,1201141,31300609,20010509,4171191,10310009,30110919,21200909,0,0,41811219,10611409,2031000,10011609,20900919,11810419,0,21610609,30500219,41002009,0,0,31001919,1190041,2100000,0,0,-2060150,1041180,31001709,0,41701219
12,329,868.782691191882,1,0,29770.8989183912,29771.9460152851,0,15,14,1,1,8,10,46771182,85405857,145996047,59726449,40610909,0,0,0,0,3110011,0,-1000141,2050121,31502009,0,11012009,0,0,0,40801809,2090030,0,0,30110809,0,41711619,41901809,30110709,0,0,2161101,1121180,1171131,0,11811919,41611209,0,0,0,4011010
12,330,737.873251717247,0,0,29773.9577974003,29775.0048908296,0,15,14,1,0,15,0,3172200,7261201,1061191,7332270,0,0,1071050,0,0,0,0,2101150,0,0,0,3180051,0,0,-4081150,0,0,0,0,0,0,1061191,0,0,0,0,0,0,0,2151080,0,0,0,1041180,0,4140010
12,331,1383.34730419592,1,0,29776.8284805443,29777.8755608849,0,15,14,1,1,13,20,126875435,157017156,153436206,169407785,0,20210519,0,40710119,21400019,0,21411719,21112009,2031050,40011409,0,1030000,-2051100,10110309,1091181,31110719,40810619,30801819,31010319,0,3181180,0,41100319,2001030,4131120,32011319,40000919,0,41900419,10401619,0,4191001,11011219,40501109,31201109,30201309
12,332,2795.74135331495,0,0,29780.4168163812,29781.4639125052,0,15,14,1,0,25,10,85394157,42293551,107627557,49644359,20901909,40711809,0,0,0,0,2180120,0,21600319,0,3071141,0,31000909,0,0,2091200,4040140,2090161,41601119,0,10701619,0,0,0,-3101181,41511619,10712019,0,0,3150120,31512019,0,11801209,0,0,3181011
12,333,1861.4980749262,1,0,29785.3111141855,29786.3581644991,0,15,14,0,1,12,5,40752710,13900989,52962499,22141461,31700309,0,0,0,3011070,0,4011140,0,2030191,0,0,-2200080,0,11700909,0,0,0,0,0,41200609,0,0,1060071,0,10701819,0,0,0,4061201,0,0,0,4040020,2140021,0,11900219
12,334,1110.06351790274,1,0,29789.2406097403,29790.2876823817,0,15,14,1,1,24,5,24891269,44432318,6472332,24860429,2060091,0,10800509,0,0,1130160,10900509,0,0,0,2011190,30710219,0,0,0,0,0,11710909,0,2151170,1111101,0,2040010,-1170051,0,0,0,20810419,0,0,0,0,0,4050010,0,0
12,335,922.667601720605,0,0,29792.4289391868,29793.476014138,0,15,14,0,0,19,0,3191030,5051220,9332381,3351160,0,3191030,0,0,0,0,0,0,0,0,3001180,0,0,0,0,2050040,0,0,-2081110,0,4091181,3160090,0,0,0,0,0,0,0,0,1151100,0,2200060,0,0,0
12,336,1179.37650887325,1,0,29795.4643155593,29796.5113982097,0,15,14,1,1,5,5,90594751,44090600,32242590,14321219,0,4061181,0,41411509,-2020031,0,1070120,2031191,40000719,40910509,0,0,3180091,0,0,0,0,0,30000309,0,0,0,1081200,0,0,1161081,0,10310219,0,0,4011000,0,0,0,0,0
