sub_id,Trial,RT,Resp,Error,Fix_onset,Disp_onset,q1,q2,block,repeat,tid,tloc,d_setsize,quad1,quad2,quad3,quad4,loc1,loc2,loc3,loc4,loc5,loc6,loc7,loc8,loc9,loc10,loc11,loc12,loc13,loc14,loc15,loc16,loc17,loc18,loc19,loc20,loc21,loc22,loc23,loc24,loc25,loc26,loc27,loc28,loc29,loc30,loc31,loc32,loc33,loc34,loc35,loc36
19,1,1479.56323449034,0,0,726651.467697296,726652.514779357,0,50,1,1,0,18,20,99895367,184169267,158874485,76554277,10311509,0,10200019,42000009,2111181,4061030,31211619,0,0,31310819,41111109,10711719,21500019,1011161,3121001,31801809,41400519,-2201111,31710409,10011009,0,0,30200009,4040111,11300219,30411009,41201719,2070020,10910209,11101019,0,0,0,40911109,1061011,10500909
19,2,1545.70748144761,1,0,726655.067769438,726656.114834946,0,50,1,0,1,13,0,8262161,8360341,7272191,7150142,0,0,0,0,0,0,4151151,4111010,0,0,0,0,-4200141,0,4160200,0,0,0,0,4171001,0,0,0,0,3101190,0,0,3100101,0,0,0,4050041,0,0,0,0
19,3,1314.32503520045,0,0,726658.703124158,726659.750187356,0,50,1,1,0,11,5,25631299,24172290,34592288,22221519,0,21510219,0,0,0,4121080,0,0,0,0,-2201021,20801109,0,0,1170160,0,0,0,20000219,0,0,0,0,11410909,0,3181160,0,2090030,11810319,0,2110000,0,4111060,0,0,2100110
19,4,1093.02898973692,1,0,726662.103168659,726663.150242637,0,50,1,0,1,36,10,171194835,45811788,47882230,22043070,0,21111419,42010219,40510609,32000109,0,11801309,2061151,21700019,0,10000509,0,2000120,0,0,31611019,0,2200140,4161060,0,0,3021051,0,0,0,40700119,0,0,10711819,0,0,4160040,0,3061041,0,-4110170
19,5,2070.58105978649,0,0,726665.279689723,726666.32676755,0,50,1,1,0,31,0,6322361,0,10470441,5310170,0,0,3141180,0,0,3181181,0,0,0,0,0,0,0,0,0,0,0,0,0,4110110,0,3130201,0,0,2100030,0,1130100,0,0,0,-3190100,0,0,0,2120070,0
19,6,1558.64491430111,1,0,726669.432694586,726670.479771258,0,50,1,0,1,7,20,112987157,142806076,134964736,173525784,11111609,2200131,40401119,1111110,11801009,10501309,-4050061,0,31810809,40610409,4101070,31410509,0,1161060,31011619,1140180,2060010,31311219,30401309,0,20910719,20510809,0,31110009,2021071,0,30010819,40601109,10201719,40000209,10210619,0,40701019,0,31811109,0
19,7,1397.76718453504,0,0,726673.150448592,726674.197475219,0,50,1,0,0,20,5,25042191,44671741,51682099,37022749,0,0,2090151,1050131,0,0,21901909,0,0,2000181,0,0,1161141,0,41510419,0,0,0,0,-1080061,0,0,0,20501019,0,0,30101019,2031010,3060080,30900609,0,0,1031050,0,0,0
19,8,1917.39103000145,0,0,726676.785750572,726677.83281839,0,50,1,1,0,26,5,37450691,10572362,65123197,21931350,31410409,0,3000101,0,0,0,0,0,3040181,0,4171131,0,2070190,1140001,0,0,0,3191040,11510219,10312009,41300909,0,0,0,0,-2000060,0,0,0,20910309,1021041,0,0,0,0,0
19,9,870.288565405644,0,0,726680.926991752,726681.97406188,0,50,1,1,0,9,20,74193309,123978386,199369834,137896436,4200010,20800619,0,0,4010111,0,1181040,40000519,-4001010,11511619,0,40111009,11410909,21902009,11201619,21600009,2050011,4191201,11401709,1141041,0,10400009,41011309,40200709,21801419,31412019,42001619,2081071,0,40500809,32011909,0,0,11400819,41001819,10900009
19,10,775.053476565517,1,0,726683.96237904,726685.009410286,0,50,1,1,1,16,5,3172171,89026797,9542261,15511359,1011051,0,0,0,0,0,0,2161120,0,2011021,12010419,0,41611909,0,21411319,-1071110,10911019,0,0,0,0,0,0,1200091,4161040,0,4181130,0,11401209,4110150,0,0,0,0,0,0
19,11,1513.27940018382,0,0,726686.83297276,726687.880035188,0,50,1,0,0,4,10,38871819,73732676,51654968,75133708,0,0,0,-4050131,0,2110150,0,22011419,10700119,0,0,0,30500119,0,11710619,10810219,20711719,0,0,31001309,0,4121050,2061130,0,4171170,10300309,0,0,1150110,40312009,2160160,1000110,30511319,0,0,0
19,12,991.789641790092,0,0,726690.409490974,726691.456558407,0,50,1,1,0,8,10,84004110,37765377,52002338,45542428,0,4191140,10401019,3161181,0,1160151,30900209,-3190091,31000319,2201090,11701119,0,0,0,10200209,1201180,2051170,10410609,0,0,40201819,0,0,0,11800519,0,0,0,0,3120010,0,11210609,0,0,0,31211809
19,13,1544.85671455041,0,0,726693.468406012,726694.515432254,0,50,1,0,0,10,20,100295186,154447566,142336817,146754596,31401609,0,0,11611119,0,3011190,11800809,1170050,41300409,-3140041,20900709,3140171,20200719,41700709,20902009,31011809,10400219,3051180,21211809,3001121,4191121,20410919,40910509,0,10700819,0,41910519,20811519,30800709,30400119,21310019,3031011,0,40401219,0,0
19,14,1124.11778676324,1,0,726697.244892583,726698.29196348,0,50,1,0,1,6,5,41832310,10300420,8021392,133223056,0,0,0,3161200,4020010,-3051091,0,0,31600009,0,3040160,0,4200190,0,3060070,0,0,0,4020191,0,0,0,0,0,0,4001201,0,40610619,0,30801019,30110409,0,31701009,0,0,0
19,15,1422.40208620206,1,0,726700.562592078,726701.609666825,0,50,1,0,1,21,20,107543626,79323419,213119817,179357214,11500109,20900119,0,0,10010709,41111819,0,2110151,21910719,3180051,0,20100109,0,2041071,31812009,20100119,2090060,0,30001809,40300219,-1090201,41901219,31302009,2091131,3130101,31801919,31501209,0,41110809,40400019,40601909,4131020,30801619,11410919,0,10900919
19,16,885.087676579133,1,0,726704.186237395,726705.233247854,0,50,1,1,1,3,10,49672511,119853816,78714237,42411418,0,0,-1090151,0,40410109,4101060,0,0,4071191,21601819,12000219,2060150,40110909,0,0,40910609,0,3170110,20711509,20110519,4010130,0,0,0,2080160,0,31801919,30610019,0,0,0,0,10710209,0,1091190,0
19,17,1422.70466662012,1,0,726707.280357248,726708.327411207,0,50,1,0,1,35,10,116587466,55683639,24572169,68302879,30411819,0,31002009,20511709,0,2010000,31511919,1140010,0,41201219,11411219,0,0,2030160,1041041,0,0,0,0,11000719,0,0,0,0,10410409,0,3161041,0,3201011,1100200,21900719,0,40000809,0,-2100140,0
19,18,1066.6559827514,1,0,726710.833342323,726711.880408987,0,50,1,0,1,33,0,5281211,1140140,3130260,6531320,0,1201030,4080181,0,0,0,0,0,0,0,0,0,0,0,0,0,0,1140140,0,0,0,0,1070060,0,0,0,2060200,2170110,0,0,0,1201140,-3160070,0,0,0
19,19,916.450951714069,1,0,726714.080447406,726715.127525233,0,50,1,1,1,24,0,1081111,6392062,6261211,3111121,0,0,0,0,0,0,0,1081111,0,0,0,4110051,0,0,0,1181010,0,1101001,3080080,0,0,0,1181080,-2000051,0,0,0,0,0,0,0,3111121,0,0,0,0
19,20,853.737875004299,1,0,726717.186379446,726718.233448034,0,50,1,0,1,30,0,12493551,0,6412352,4011031,0,0,4181150,0,0,1131190,0,4081170,3100041,0,0,0,0,0,0,0,0,0,0,0,0,0,1020171,0,4201130,1191051,0,0,0,-4011031,0,0,0,0,0,0
19,21,2333.81799340714,0,0,726720.24527947,726721.29232188,0,50,1,1,0,1,20,123284638,159447065,110184726,106564616,-3120120,2100001,0,0,20511319,41901209,20511009,31000819,4140161,30511019,3201181,11301819,31011309,30911709,31000019,0,21510009,0,0,4051151,21301419,0,0,11710419,21510609,41210519,10400609,20411209,31700809,3011050,10610619,4120171,21310309,11400419,4000030,0
19,22,791.466735186987,0,0,726724.680621948,726725.727690536,0,50,1,1,0,17,0,6261370,13203541,0,3241191,3061200,0,0,0,0,0,0,3200170,0,4041180,0,4160100,1001141,0,0,0,-4001120,0,0,0,0,0,0,0,0,0,0,0,0,0,2090041,1151150,0,0,0,0
19,23,1021.87137689907,1,0,726727.704202437,726728.751265251,0,50,1,0,1,19,5,24461590,20854153,4332171,76233637,0,3160171,0,0,0,0,0,0,21301419,0,0,4201091,10300619,0,3150201,0,2091051,1111191,-2171131,0,0,0,0,0,0,0,2161040,41302009,0,21810619,11100919,0,0,2020090,0,0
19,24,1715.3808332514,1,0,726730.833652218,726731.880723501,0,50,1,1,1,5,10,44071641,78306199,43823277,86136059,0,0,0,0,-2030131,0,40911409,0,1130101,1141020,2021121,30801419,11710909,0,0,0,1030021,31601709,0,0,0,21110119,10701609,1001130,0,0,11010419,0,0,20211919,0,1120071,20901219,2201041,41701809,0
19,25,1930.69841177203,0,1,726767.74009903,726768.787174548,0,50,2,1,1,8,10,84004110,37765377,52002338,45542428,0,4191140,10401019,3161181,0,1160151,30900209,-3190091,31000319,2201090,11701119,0,0,0,10200209,1201180,2051170,10410609,0,0,40201819,0,0,0,11800519,0,0,0,0,3120010,0,11210609,0,0,0,31211809
19,26,810.327585204504,0,0,726771.822533348,726772.869591157,0,50,2,1,0,16,5,3172171,89026797,9542261,15511359,1011051,0,0,0,0,0,0,2161120,0,2011021,12010419,0,41611909,0,21411319,-1071110,10911019,0,0,0,0,0,0,1200091,4161040,0,4181130,0,11401209,4110150,0,0,0,0,0,0
19,27,896.618456579745,1,0,726774.893152783,726775.940230225,0,50,2,0,1,19,5,121985719,0,55843521,2130111,4201111,0,30901209,4071081,0,0,42010609,40801709,0,0,0,0,0,0,0,0,0,0,-4071110,0,3170141,11510219,2110141,1191120,0,30710719,3080071,0,0,0,0,2130111,0,0,0,0
19,28,3409.39728484955,0,0,726777.846145019,726778.893217842,0,50,2,1,0,17,0,6261370,13203541,0,3241191,3061200,0,0,0,0,0,0,3200170,0,4041180,0,4160100,1001141,0,0,0,-4001120,0,0,0,0,0,0,0,0,0,0,0,0,0,2090041,1151150,0,0,0,0
19,29,1701.16955961566,1,0,726783.340342095,726784.387420308,0,50,2,0,1,7,20,111525316,127917396,102236816,150747555,3070200,21201309,12010609,41700119,20311019,10201009,-3031051,0,0,0,0,2191131,20301009,31410719,12001719,0,20611709,41401109,31901019,1181030,3081100,2050030,11301909,0,21711319,31010409,0,2031070,0,2201191,10100019,40711019,31201009,11001919,31800609,21700719
19,30,893.668104428798,0,0,726787.163929976,726788.211000874,0,50,2,1,0,31,0,6322361,0,10470441,5310170,0,0,3141180,0,0,3181181,0,0,0,0,0,0,0,0,0,0,0,0,0,4110110,0,3130201,0,0,2100030,0,1130100,0,0,0,-3190100,0,0,0,2120070,0
19,31,1045.17007397953,1,0,726790.187504306,726791.234575204,0,50,2,1,1,3,10,49672511,119853816,78714237,42411418,0,0,-1090151,0,40410109,4101060,0,0,4071191,21601819,12000219,2060150,40110909,0,0,40910609,0,3170110,20711509,20110519,4010130,0,0,0,2080160,0,31801919,30610019,0,0,0,0,10710209,0,1091190,0
19,32,1913.36971230339,1,0,726793.305200414,726794.352281706,0,50,2,1,1,18,20,99895367,184169267,158874485,76554277,10311509,0,10200019,42000009,2111181,4061030,31211619,0,0,31310819,41111109,10711719,21500019,1011161,3121001,31801809,41400519,-2201111,31710409,10011009,0,0,30200009,4040111,11300219,30411009,41201719,2070020,10910209,11101019,0,0,0,40911109,1061011,10500909
19,33,886.209072195925,0,0,726797.446443904,726798.493514802,0,50,2,1,0,24,0,1081111,6392062,6261211,3111121,0,0,0,0,0,0,0,1081111,0,0,0,4110051,0,0,0,1181010,0,1101001,3080080,0,0,0,1181080,-2000051,0,0,0,0,0,0,0,3111121,0,0,0,0
19,34,949.796783505008,1,0,726800.434731807,726801.481796545,0,50,2,0,1,4,5,5442433,50003711,52913837,33941819,0,0,0,-1170091,3081171,0,0,0,1191171,0,0,0,1020150,3051031,4021111,0,0,41911419,0,0,12001619,10801809,0,0,0,30110409,0,0,0,0,30810719,1130010,0,0,2001090,0
19,35,935.612457455136,0,0,726803.481831962,726804.52889978,0,50,2,1,0,26,5,37450691,10572362,65123197,21931350,31410409,0,3000101,0,0,0,0,0,3040181,0,4171131,0,2070190,1140001,0,0,0,3191040,11510219,10312009,41300909,0,0,0,0,-2000060,0,0,0,20910309,1021041,0,0,0,0,0
19,36,1094.4187042769,0,0,726806.634823736,726807.681985485,0,50,2,0,0,6,0,7182410,7172230,1061161,5241161,1010150,0,2001060,0,0,-4171200,0,0,0,0,0,4141170,0,0,3031060,0,0,0,1061161,0,0,0,0,0,0,0,0,0,0,0,2190040,0,3051121,0,0,0
19,37,1357.10860625841,0,0,726809.964283449,726811.011354732,0,50,2,0,0,33,10,76696419,56292950,64903009,101141919,20611809,0,0,1041171,10301819,3030001,0,0,41711619,41100709,0,0,0,0,10011019,0,4141101,1040121,21900909,0,0,40001919,0,0,0,3000181,0,31210119,40700209,0,22001109,0,-3030111,1200181,3000190,0
19,38,1239.11761736963,1,0,726813.517282768,726814.564350201,0,50,2,0,1,20,0,0,3101151,4451243,3281411,0,0,0,0,0,0,0,0,0,0,0,2060020,0,0,0,0,0,1041131,0,-1071151,0,0,0,2200071,0,1180021,0,0,1190140,1061201,0,0,1030070,0,0,0
19,39,1527.02525409404,1,0,726817.011451357,726818.058574225,0,50,2,0,1,10,10,81422238,26961752,135068817,85603948,0,0,0,0,0,0,41210519,0,40211719,-2060141,2001021,0,0,0,0,0,20700419,2200171,41810009,0,41512019,11911509,0,2131171,30411809,3151100,4141200,0,10410909,40901109,0,30200819,0,1001111,0,3090000
19,40,616.331536322832,1,0,726820.740919385,726821.787994133,0,50,2,0,1,21,20,133693749,136625003,123513389,128397196,2070141,0,4020070,40111309,10411009,40000519,3190151,30810509,3080041,10600509,0,11910819,21700219,30100719,0,10700709,31011009,20601019,42011419,2091031,-4190201,2000091,31700219,21110109,0,20410319,0,21301619,0,11611709,0,0,20210119,42012019,3150011,30111719
19,41,1214.50658340473,0,0,726823.588027316,726824.635098599,0,50,2,0,0,13,10,91991608,79694128,67903200,43663049,0,3090161,4080100,0,31910209,0,0,31401119,21510019,0,0,40601709,-4090161,11200609,2101130,0,21700519,0,31910519,0,3201050,1121061,1170061,30500509,0,0,0,21411309,0,0,21210619,0,0,0,0,1041121
19,42,979.324172833003,0,0,726826.882192133,726827.929259566,0,50,2,0,0,35,0,4210152,13253372,0,5292081,0,3010021,0,0,0,0,0,1200131,0,3021190,0,3051100,0,0,3061001,0,0,4120081,0,0,0,0,0,0,0,0,0,0,2111050,0,0,0,0,0,-3181031,0
19,43,871.143566910177,1,1,726829.988108004,726831.035200845,0,50,2,1,0,9,20,74193309,123978386,199369834,137896436,4200010,20800619,0,0,4010111,0,1181040,40000519,-4001010,11511619,0,40111009,11410909,21902009,11201619,21600009,2050011,4191201,11401709,1141041,0,10400009,41011309,40200709,21801419,31412019,42001619,2081071,0,40500809,32011909,0,0,11400819,41001819,10900009
19,44,1402.14651729912,0,0,726833.094051594,726834.141126341,0,50,2,0,0,30,5,44021750,57183860,39233360,3010000,0,0,0,0,0,2021141,42000609,0,0,2050050,0,21301919,0,0,0,2110161,30711709,1010021,3160081,2161100,1100141,0,0,0,21800519,0,11011519,0,0,-3010000,0,0,0,0,0,0
19,45,851.225610123947,0,0,726836.588225187,726837.635282996,0,50,2,0,0,36,20,108306045,123288086,109535578,141486517,0,21411409,10510009,0,41200719,3071190,11801709,20311009,0,11510009,3121181,11201909,0,21011519,41301109,3030031,11910819,20201509,1110131,30010719,3051190,2060091,21201119,11701019,0,0,40401309,30111019,20810309,21201319,4091111,0,30401319,0,30811419,-4060021
19,46,972.610812750645,1,0,726839.623558965,726840.670636792,0,50,2,1,1,5,10,44071641,78306199,43823277,86136059,0,0,0,0,-2030131,0,40911409,0,1130101,1141020,2021121,30801419,11710909,0,0,0,1030021,31601709,0,0,0,21110119,10701609,1001130,0,0,11010419,0,0,20211919,0,1120071,20901219,2201041,41701809,0
19,47,1426.10696470365,0,0,726842.753028379,726843.800096582,0,50,2,1,0,11,5,25631299,24172290,34592288,22221519,0,21510219,0,0,0,4121080,0,0,0,0,-2201021,20801109,0,0,1170160,0,0,0,20000219,0,0,0,0,11410909,0,3181160,0,2090030,11810319,0,2110000,0,4111060,0,0,2100110
19,48,1871.82033085264,1,0,726846.294254392,726847.341378799,0,50,2,1,1,1,20,123284638,159447065,110184726,106564616,-3120120,2100001,0,0,20511319,41901209,20511009,31000819,4140161,30511019,3201181,11301819,31011309,30911709,31000019,0,21510009,0,0,4051151,21301419,0,0,11710419,21510609,41210519,10400609,20411209,31700809,3011050,10610619,4120171,21310309,11400419,4000030,0
19,49,2946.51151401922,0,0,726883.353649862,726884.400720375,0,50,3,0,0,35,0,6120182,3101090,1090051,7492563,0,0,0,0,2120131,4000051,0,0,0,3101090,0,0,0,0,0,0,0,0,0,0,0,0,0,0,0,0,1090051,0,1151160,0,2191121,2030131,0,0,-2120151,0
19,50,591.228905366734,1,0,726888.459610005,726889.506678208,0,50,3,0,1,21,20,135296699,149358256,81164336,177227773,30500309,4011071,4151191,3121101,41801909,41300309,0,10410809,0,31511519,0,40711619,0,0,3001081,12010809,31411409,30711819,3040170,0,-1040120,10201209,3080040,10410109,1191070,30900309,21301309,20401109,21001819,31900009,31200709,30911509,20611309,0,21201309,0
19,51,1061.88629800454,1,0,726891.294945399,726892.342019377,0,50,3,0,1,30,10,58631500,47832221,133886377,75412899,0,20410209,0,4061021,30110219,0,0,4050051,0,0,40311019,0,3151040,2190121,2180041,0,0,0,41410309,0,3161101,0,31800419,12000909,11811319,30501119,3201201,40800909,0,-3111081,0,0,0,0,31500909,0
19,52,1266.25323505141,1,0,726894.553826868,726895.600878133,0,50,3,0,1,19,5,0,29953380,56685679,71973888,0,0,0,0,0,0,0,0,0,0,1021001,0,3051190,21701119,4180070,0,0,0,-1040170,4111011,0,0,21811409,4071120,0,4141050,21510919,1171070,0,30801509,0,40001309,0,0,0,0
19,53,1221.50173597038,1,0,726897.883284271,726898.930359403,0,50,3,0,1,13,5,30764462,69893280,0,65902679,4150081,2201191,0,0,21311119,0,0,1051020,2051051,40810509,0,21011609,-4060101,0,0,0,4011061,0,0,0,0,0,0,0,0,0,0,40201309,1081160,0,20500009,0,0,0,4120201,0
19,54,1541.11179988831,0,0,726901.165691949,726902.212759382,0,50,3,0,0,33,10,55595497,50525102,95611687,77733549,20901919,0,21801219,10701219,0,0,0,2191140,0,4181171,2121171,3121041,0,0,0,0,0,41101719,0,1030170,0,20000419,41400719,11010109,1170151,21000119,0,0,31401819,2070191,0,0,-4060030,40201509,0,0
19,55,2052.61755734682,0,0,726904.836329632,726905.883397065,0,50,3,1,0,1,20,123284638,159447065,110184726,106564616,-3120120,2100001,0,0,20511319,41901209,20511009,31000819,4140161,30511019,3201181,11301819,31011309,30911709,31000019,0,21510009,0,0,4051151,21301419,0,0,11710419,21510609,41210519,10400609,20411209,31700809,3011050,10610619,4120171,21310309,11400419,4000030,0
19,56,982.702603330836,0,0,726908.954044603,726910.001112806,0,50,3,1,0,17,0,6261370,13203541,0,3241191,3061200,0,0,0,0,0,0,3200170,0,4041180,0,4160100,1001141,0,0,0,-4001120,0,0,0,0,0,0,0,0,0,0,0,0,0,2090041,1151150,0,0,0,0
19,57,516.743677202612,0,0,726912.060001665,726913.107103745,0,50,3,1,0,16,5,3172171,89026797,9542261,15511359,1011051,0,0,0,0,0,0,2161120,0,2011021,12010419,0,41611909,0,21411319,-1071110,10911019,0,0,0,0,0,0,1200091,4161040,0,4181130,0,11401209,4110150,0,0,0,0,0,0
19,58,1086.88845392317,1,0,726914.660002974,726915.707107364,0,50,3,1,1,8,10,84004110,37765377,52002338,45542428,0,4191140,10401019,3161181,0,1160151,30900209,-3190091,31000319,2201090,11701119,0,0,0,10200209,1201180,2051170,10410609,0,0,40201819,0,0,0,11800519,0,0,0,0,3120010,0,11210609,0,0,0,31211809
19,59,898.615641752258,0,0,726917.907122685,726918.954197433,0,50,3,1,0,5,10,44071641,78306199,43823277,86136059,0,0,0,0,-2030131,0,40911409,0,1130101,1141020,2021121,30801419,11710909,0,0,0,1030021,31601709,0,0,0,21110119,10701609,1001130,0,0,11010419,0,0,20211919,0,1120071,20901219,2201041,41701809,0
19,60,777.055281098001,1,0,726920.883635357,726921.930721268,0,50,3,1,1,9,20,74193309,123978386,199369834,137896436,4200010,20800619,0,0,4010111,0,1181040,40000519,-4001010,11511619,0,40111009,11410909,21902009,11201619,21600009,2050011,4191201,11401709,1141041,0,10400009,41011309,40200709,21801419,31412019,42001619,2081071,0,40500809,32011909,0,0,11400819,41001819,10900009
19,61,1316.02387444582,1,0,726923.824947447,726924.871924414,0,50,3,0,1,7,0,8380251,2121180,2021071,8270122,0,0,0,2170050,0,0,-3020130,0,3190071,0,0,2121180,0,0,0,0,0,0,0,0,0,0,0,2021071,0,0,0,0,4000001,3190100,0,0,0,0,1080021,0
19,62,757.92033795733,1,0,726927.27197546,726928.319027495,0,50,3,1,1,24,0,1081111,6392062,6261211,3111121,0,0,0,0,0,0,0,1081111,0,0,0,4110051,0,0,0,1181010,0,1101001,3080080,0,0,0,1181080,-2000051,0,0,0,0,0,0,0,3111121,0,0,0,0
19,63,820.080608595163,0,0,726930.130837065,726931.177902188,0,50,3,1,0,31,0,6322361,0,10470441,5310170,0,0,3141180,0,0,3181181,0,0,0,0,0,0,0,0,0,0,0,0,0,4110110,0,3130201,0,0,2100030,0,1130100,0,0,0,-3190100,0,0,0,2120070,0
19,64,1463.17076380365,1,1,726933.154409855,726934.201479213,0,50,3,0,0,6,10,44494064,82912137,85105378,86925609,32011419,0,0,2011131,3151141,-4110131,2010041,1200201,0,0,0,0,0,21600319,20410109,40901709,0,0,30910619,0,10301709,40701909,0,0,0,3191141,0,11411409,2140191,0,40101909,3160181,0,0,30111919,0
19,65,638.04033852648,1,0,726936.78975957,726937.836833933,0,50,3,0,1,10,0,3170121,8001411,2131110,9091191,0,0,0,3170121,0,0,0,0,0,-2000020,0,0,3000200,0,3001191,0,0,0,0,2131110,0,0,0,0,0,0,0,0,1040080,0,0,4041080,4010031,0,0,0
19,66,1166.24153219163,0,0,726939.507455062,726940.554513256,0,50,3,1,0,3,10,49672511,119853816,78714237,42411418,0,0,-1090151,0,40410109,4101060,0,0,4071191,21601819,12000219,2060150,40110909,0,0,40910609,0,3170110,20711509,20110519,4010130,0,0,0,2080160,0,31801919,30610019,0,0,0,0,10710209,0,1091190,0
19,67,2088.76476087607,1,0,726942.836940952,726943.883989907,0,50,3,1,1,26,5,37450691,10572362,65123197,21931350,31410409,0,3000101,0,0,0,0,0,3040181,0,4171131,0,2070190,1140001,0,0,0,3191040,11510219,10312009,41300909,0,0,0,0,-2000060,0,0,0,20910309,1021041,0,0,0,0,0
19,68,1786.6200581193,0,0,726946.989914248,726948.036988611,0,50,3,0,0,36,5,16063010,58372918,16420540,48111389,0,11901919,0,1101080,0,3060011,0,0,0,4130090,0,0,0,10311409,41901419,0,0,2030000,0,0,10100419,3170060,0,0,0,0,3150061,0,41901219,0,3200020,0,0,0,0,-3010150
19,69,1775.44883289374,0,0,726950.978222169,726952.025288447,0,50,3,1,0,18,20,99895367,184169267,158874485,76554277,10311509,0,10200019,42000009,2111181,4061030,31211619,0,0,31310819,41111109,10711719,21500019,1011161,3121001,31801809,41400519,-2201111,31710409,10011009,0,0,30200009,4040111,11300219,30411009,41201719,2070020,10910209,11101019,0,0,0,40911109,1061011,10500909
19,70,1157.66148921102,1,0,726954.942984632,726955.99005091,0,50,3,0,1,4,20,170837136,96635536,149526406,127488586,4001020,2001101,31000419,-2111130,40000519,30600219,30910909,0,30211819,0,0,20500109,10900009,11612019,0,2110171,11111709,40401519,2121020,0,10010809,1070150,30002009,40510909,3190071,31310519,31310919,40201009,0,4151141,0,0,10812009,40701109,20112009,11511309
19,71,950.604434823617,1,0,726958.154802132,726959.20186995,0,50,3,0,1,20,20,105525427,57573996,107166537,177347713,1190080,4030140,21911219,30400009,4171201,0,11710419,30911319,1201040,1030150,0,10900609,10000709,0,0,11600109,3131000,20911419,10001419,-1121141,20700019,0,10702009,0,21900519,1030121,41711309,0,0,21800719,40210819,40300919,20711219,11210709,21512019,21601309
19,72,1568.33634374198,0,0,726961.284260382,726962.331328585,0,50,3,1,0,11,5,25631299,24172290,34592288,22221519,0,21510219,0,0,0,4121080,0,0,0,0,-2201021,20801109,0,0,1170160,0,0,0,20000219,0,0,0,0,11410909,0,3181160,0,2090030,11810319,0,2110000,0,4111060,0,0,2100110
19,73,4397.46190933511,1,0,726997.97893127,726999.025994083,0,50,4,1,1,26,5,37450691,10572362,65123197,21931350,31410409,0,3000101,0,0,0,0,0,3040181,0,4171131,0,2070190,1140001,0,0,0,3191040,11510219,10312009,41300909,0,0,0,0,-2000060,0,0,0,20910309,1021041,0,0,0,0,0
19,74,1498.87025589123,0,0,727004.555561124,727005.602573122,0,50,4,0,0,30,20,130338025,127904568,164278205,140506548,1201071,11601119,0,11311209,11110719,21500919,40011419,31401409,2200160,0,0,1001081,0,32010619,40410509,41401709,3070141,10010509,21710109,11800809,40501209,4171081,31801319,2071050,22010609,30212019,0,40801709,0,-2161041,40611509,10801209,0,0,4130071,42001009
19,75,3176.18588195182,0,0,727008.132023519,727009.179094032,0,50,4,0,0,36,5,88424279,43554299,6171232,5413470,0,0,12001719,1040131,0,3171091,31901119,0,40310219,0,0,32011419,0,0,0,0,10511709,1031171,0,0,3021181,0,0,0,0,3150051,0,0,1161180,1101170,0,0,0,0,0,-3151120
19,76,1674.40581566188,0,0,727013.555645431,727014.602738656,0,50,4,0,0,19,5,45800299,67122270,8422430,57722908,0,0,41800219,0,4000080,0,0,0,0,41100309,0,0,21811719,1190091,0,3020151,0,0,-3190200,0,0,4071150,0,0,0,1161080,0,4071180,0,0,30810119,21700419,1141190,0,0,0
19,77,607.919337111525,0,0,727017.473354704,727018.520472567,0,50,4,0,0,21,0,4251111,4201100,9252120,8050081,0,3191081,0,0,0,0,0,0,1060030,0,0,0,0,0,0,4201100,0,0,0,0,-3150030,0,2081000,0,0,4021090,0,4010011,0,0,0,0,0,0,0,4040070
19,78,529.964057495818,1,0,727020.285159654,727021.332226317,0,50,4,1,1,17,0,6261370,13203541,0,3241191,3061200,0,0,0,0,0,0,3200170,0,4041180,0,4160100,1001141,0,0,0,-4001120,0,0,0,0,0,0,0,0,0,0,0,0,0,2090041,1151150,0,0,0,0
19,79,1591.9364662841,1,0,727023.038145808,727024.085209391,0,50,4,1,1,3,10,49672511,119853816,78714237,42411418,0,0,-1090151,0,40410109,4101060,0,0,4071191,21601819,12000219,2060150,40110909,0,0,40910609,0,3170110,20711509,20110519,4010130,0,0,0,2080160,0,31801919,30610019,0,0,0,0,10710209,0,1091190,0
19,80,892.885475885123,1,0,727026.779382908,727027.826449571,0,50,4,1,1,8,10,84004110,37765377,52002338,45542428,0,4191140,10401019,3161181,0,1160151,30900209,-3190091,31000319,2201090,11701119,0,0,0,10200209,1201180,2051170,10410609,0,0,40201819,0,0,0,11800519,0,0,0,0,3120010,0,11210609,0,0,0,31211809
19,81,560.940060415305,0,0,727029.744120733,727030.79119471,0,50,4,1,0,16,5,3172171,89026797,9542261,15511359,1011051,0,0,0,0,0,0,2161120,0,2011021,12010419,0,41611909,0,21411319,-1071110,10911019,0,0,0,0,0,0,1200091,4161040,0,4181130,0,11401209,4110150,0,0,0,0,0,0
19,82,1355.3793549072,1,0,727032.461816994,727033.508885197,0,50,4,0,1,4,20,122819757,108975957,61625456,179020443,2181201,10011809,41311609,-2100040,0,4090151,10311519,30811719,22001709,0,2080161,31010609,3151130,0,20411719,21410419,30911919,0,11600009,0,0,11711209,2091150,21611709,0,3000070,11611309,40910509,11411919,31112009,20311709,30710219,10111819,3041140,0,31411119
19,83,1298.78564120736,0,0,727035.932455139,727036.979521417,0,50,4,0,0,13,0,3160121,5231242,8381462,4291191,0,0,0,3160121,0,0,0,0,0,0,0,2101191,-3130051,0,0,0,0,0,0,0,3190161,1031160,0,4160141,0,0,0,0,0,0,0,0,1181161,0,0,3110030
19,84,870.494135306217,1,0,727039.33251042,727040.379573233,0,50,4,1,1,5,10,44071641,78306199,43823277,86136059,0,0,0,0,-2030131,0,40911409,0,1130101,1141020,2021121,30801419,11710909,0,0,0,1030021,31601709,0,0,0,21110119,10701609,1001130,0,0,11010419,0,0,20211919,0,1120071,20901219,2201041,41701809,0
19,85,667.21587209031,1,1,727042.414903161,727043.461974829,0,50,4,1,0,24,0,1081111,6392062,6261211,3111121,0,0,0,0,0,0,0,1081111,0,0,0,4110051,0,0,0,1181010,0,1101001,3080080,0,0,0,1181080,-2000051,0,0,0,0,0,0,0,3111121,0,0,0,0
19,86,1646.93143113982,1,0,727045.262013017,727046.309080835,0,50,4,1,1,1,20,123284638,159447065,110184726,106564616,-3120120,2100001,0,0,20511319,41901209,20511009,31000819,4140161,30511019,3201181,11301819,31011309,30911709,31000019,0,21510009,0,0,4051151,21301419,0,0,11710419,21510609,41210519,10400609,20411209,31700809,3011050,10610619,4120171,21310309,11400419,4000030,0
19,87,810.321425786242,1,0,727048.979710049,727050.026787106,0,50,4,0,1,20,10,87433560,70867049,63632589,46183408,41211419,0,0,41001119,0,0,2021011,0,3200011,1091131,0,10600319,10512009,30600719,4010041,0,3151021,10901809,0,-3111051,0,0,40511419,0,20010119,0,0,0,0,31011119,0,1000050,3161020,0,11011219,0
19,88,852.661135140806,1,0,727052.003275525,727053.050362206,0,50,4,1,1,11,5,25631299,24172290,34592288,22221519,0,21510219,0,0,0,4121080,0,0,0,0,-2201021,20801109,0,0,1170160,0,0,0,20000219,0,0,0,0,11410909,0,3181160,0,2090030,11810319,0,2110000,0,4111060,0,0,2100110
19,89,1846.29347128794,0,0,727054.97980244,727056.026872568,0,50,4,1,0,31,0,6322361,0,10470441,5310170,0,0,3141180,0,0,3181181,0,0,0,0,0,0,0,0,0,0,0,0,0,4110110,0,3130201,0,0,2100030,0,1130100,0,0,0,-3190100,0,0,0,2120070,0
19,90,1512.94255803805,1,0,727059.073986966,727060.121050935,0,50,4,0,1,35,0,1051120,7241352,3101071,9222221,1051120,0,0,0,0,0,0,0,0,0,0,0,1101180,4010111,0,2130061,0,0,3101071,0,0,0,0,0,0,0,0,0,0,0,0,3070101,0,0,-3051060,3101060
19,91,889.47547855787,0,0,727062.803449605,727063.850525122,0,50,4,0,0,10,10,56373059,98306796,5371250,94063908,1000020,0,0,10501219,0,3091180,40610509,0,1170131,-2000071,0,30611009,11911619,10410919,10510319,0,30711719,2151140,0,0,1180190,0,4191060,0,0,0,0,0,31811319,0,0,0,41211919,1030061,0,20010609
19,92,1203.58596881852,0,0,727065.909384725,727066.956454468,0,50,4,1,0,18,20,99895367,184169267,158874485,76554277,10311509,0,10200019,42000009,2111181,4061030,31211619,0,0,31310819,41111109,10711719,21500019,1011161,3121001,31801809,41400519,-2201111,31710409,10011009,0,0,30200009,4040111,11300219,30411009,41201719,2070020,10910209,11101019,0,0,0,40911109,1061011,10500909
19,93,1320.76391705778,0,0,727069.168249255,727070.215322847,0,50,4,0,0,6,20,84686169,107036215,187248964,188807076,0,0,40701909,11500619,0,-3000110,21101309,4201051,4181171,40111819,3011040,10000819,11001019,0,31000409,0,11911109,0,40200809,20811609,21611409,1151070,41301519,20001019,2161020,40010509,0,41301309,1200081,21911209,30110619,30711609,30810019,1061111,31701119,0
19,94,1393.24426080566,1,0,727072.650656856,727073.697731219,0,50,4,0,1,7,5,49104091,38201640,13001529,24331361,1161041,20400819,0,21200119,0,4181051,-2161061,0,0,0,32000419,3121051,0,3080170,0,0,0,0,0,0,0,0,1191020,0,11810509,0,0,0,0,0,2080191,0,0,2140151,0,20111019
19,95,930.714580230415,1,0,727076.22718893,727077.274262907,0,50,4,0,1,33,10,114842656,5402551,80155296,67684931,31710209,0,21010019,0,0,20711509,41410919,0,0,0,1031180,0,0,0,1190170,0,0,3181201,30010809,0,0,4180030,11011619,3141000,10901219,0,20910619,2071171,0,0,0,2170061,-1121161,0,41511519,20811019
19,96,827.40220928099,0,0,727079.368410862,727080.415483685,0,50,4,1,0,9,20,74193309,123978386,199369834,137896436,4200010,20800619,0,0,4010111,0,1181040,40000519,-4001010,11511619,0,40111009,11410909,21902009,11201619,21600009,2050011,4191201,11401709,1141041,0,10400009,41011309,40200709,21801419,31412019,42001619,2081071,0,40500809,32011909,0,0,11400819,41001819,10900009
19,97,1019.32870002929,1,0,727115.29837272,727116.345445158,0,50,5,0,1,30,10,42992258,135585216,22373040,114483280,1080130,21100219,0,0,20811909,0,0,0,0,3060060,0,40412009,40500519,0,21010709,0,0,30601919,0,0,20100909,0,0,0,1131001,0,1141130,1200051,0,-4060000,41200519,30611619,2180081,0,31101009,4130001
19,98,1292.68052172847,0,0,727118.427845214,727119.474899943,0,50,5,1,0,3,10,49672511,119853816,78714237,42411418,0,0,-1090151,0,40410109,4101060,0,0,4071191,21601819,12000219,2060150,40110909,0,0,40910609,0,3170110,20711509,20110519,4010130,0,0,0,2080160,0,31801919,30610019,0,0,0,0,10710209,0,1091190,0
19,99,2589.375696145,1,0,727121.969058523,727123.016137505,0,50,5,1,1,9,20,74193309,123978386,199369834,137896436,4200010,20800619,0,0,4010111,0,1181040,40000519,-4001010,11511619,0,40111009,11410909,21902009,11201619,21600009,2050011,4191201,11401709,1141041,0,10400009,41011309,40200709,21801419,31412019,42001619,2081071,0,40500809,32011909,0,0,11400819,41001819,10900009
19,100,686.279982212,0,0,727126.769141752,727127.816213805,0,50,5,1,0,17,0,6261370,13203541,0,3241191,3061200,0,0,0,0,0,0,3200170,0,4041180,0,4160100,1001141,0,0,0,-4001120,0,0,0,0,0,0,0,0,0,0,0,0,0,2090041,1151150,0,0,0,0
19,101,1965.16332938336,1,0,727129.616273166,727130.663310957,0,50,5,0,1,20,10,87854807,42443999,16881701,104012137,40101219,11901809,20711219,0,0,10910509,0,2120001,2110050,1170190,3151041,0,0,4031070,0,2090160,21100919,10900619,1160071,-4120011,0,0,11601619,0,0,0,0,0,0,0,0,0,0,40610409,32000209,31401519
19,102,2153.56279420666,0,0,727133.686892601,727134.733958494,0,50,5,1,0,11,5,25631299,24172290,34592288,22221519,0,21510219,0,0,0,4121080,0,0,0,0,-2201021,20801109,0,0,1170160,0,0,0,20000219,0,0,0,0,11410909,0,3181160,0,2090030,11810319,0,2110000,0,4111060,0,0,2100110
19,103,744.945948710665,1,0,727138.098733122,727139.145799015,0,50,5,0,1,35,5,35592130,0,13194341,76411418,0,20300109,0,1080141,0,3201171,0,0,11010709,0,0,0,0,0,0,0,0,0,2141050,0,4011000,0,3021040,3001181,0,1020070,0,41710309,0,0,0,0,0,21910519,-1090181,11700409
19,104,1643.30854953732,1,0,727140.92229444,727141.969359179,0,50,5,0,1,7,20,122264027,108294838,182059503,69334738,0,40312009,31310919,4180060,30600709,0,-4150121,0,11710209,30010609,0,3121111,21610619,40010519,0,0,2040171,11501809,11401009,10901219,11611419,31510909,40010109,10811709,41201619,20501509,4110001,2141091,10700619,0,10410909,1110071,21800209,21000709,2171130,0
19,105,5000,-1,-1,727144.769419695,727145.816473654,0,50,5,0,0,6,0,5411281,8211192,3191040,4071141,0,2130100,0,1030150,0,-1141010,1110021,0,0,0,0,0,0,4090051,0,0,0,4121141,0,0,0,0,0,0,0,3191040,0,0,0,4071141,0,0,0,0,0,0
19,106,1487.37527732737,1,0,727151.840127671,727152.887174317,0,50,5,0,1,4,20,120573558,139074066,152486165,158017576,0,30010909,40200809,-3121020,2160130,41900519,0,0,3180171,40800009,30401019,11010419,0,30610219,11500819,11600419,1111131,2040031,10800509,31910809,2151171,30001219,11010219,31410809,31200319,0,4001110,41001619,0,4181001,10312019,20111509,40701219,41710209,0,0
19,107,1609.82105159201,1,0,727155.522520567,727156.56959108,0,50,5,0,1,10,0,2120020,6222362,10411580,0,0,2120020,0,0,0,0,0,0,0,-2080121,0,0,0,1051151,0,0,3091090,0,2090120,0,0,4190190,0,1040190,0,3091080,0,0,0,0,0,0,0,0,0,0
19,108,909.525862312876,0,0,727159.204921547,727160.251997834,0,50,5,1,0,24,0,1081111,6392062,6261211,3111121,0,0,0,0,0,0,0,1081111,0,0,0,4110051,0,0,0,1181010,0,1101001,3080080,0,0,0,1181080,-2000051,0,0,0,0,0,0,0,3111121,0,0,0,0
19,109,1956.62909699604,1,0,727162.322621504,727163.369686243,0,50,5,1,1,31,0,6322361,0,10470441,5310170,0,0,3141180,0,0,3181181,0,0,0,0,0,0,0,0,0,0,0,0,0,4110110,0,3130201,0,0,2100030,0,1130100,0,0,0,-3190100,0,0,0,2120070,0
19,110,1621.69791280758,0,0,727166.334463334,727167.381521143,0,50,5,0,0,33,5,53582719,27004260,24652421,26802090,0,0,10100009,0,3071201,0,0,0,40411509,0,0,0,21812019,0,3071181,0,2121060,0,0,21610119,0,1021171,0,2021131,0,0,0,0,3070200,0,0,0,-2030201,0,1000070,20701619
19,111,2375.23687258363,1,0,727170.205089391,727171.252159134,0,50,5,1,1,18,20,99895367,184169267,158874485,76554277,10311509,0,10200019,42000009,2111181,4061030,31211619,0,0,31310819,41111109,10711719,21500019,1011161,3121001,31801809,41400519,-2201111,31710409,10011009,0,0,30200009,4040111,11300219,30411009,41201719,2070020,10910209,11101019,0,0,0,40911109,1061011,10500909
19,112,1974.65958283283,0,0,727174.734572509,727175.781639943,0,50,5,1,0,5,10,44071641,78306199,43823277,86136059,0,0,0,0,-2030131,0,40911409,0,1130101,1141020,2021121,30801419,11710909,0,0,0,1030021,31601709,0,0,0,21110119,10701609,1001130,0,0,11010419,0,0,20211919,0,1120071,20901219,2201041,41701809,0
19,113,4781.008845428,1,0,727178.958169475,727180.005239988,0,50,5,1,1,1,20,123284638,159447065,110184726,106564616,-3120120,2100001,0,0,20511319,41901209,20511009,31000819,4140161,30511019,3201181,11301819,31011309,30911709,31000019,0,21510009,0,0,4051151,21301419,0,0,11710419,21510609,41210519,10400609,20411209,31700809,3011050,10610619,4120171,21310309,11400419,4000030,0
19,114,872.784661827609,1,0,727185.899242856,727186.946512043,0,50,5,0,1,19,20,145587516,85534375,100795847,161789833,0,40011409,10410309,30601019,1121081,21101619,1031170,41310909,0,20611009,11702019,0,20910109,1090120,21110109,0,10111009,0,-1130100,0,3141180,31110219,1151020,0,21210409,40001809,3051110,11601509,10912009,10301209,40411819,4130040,0,41910309,11311219,31211719
19,115,991.033575497568,0,0,727188.970084063,727190.01716189,0,50,5,1,0,16,5,3172171,89026797,9542261,15511359,1011051,0,0,0,0,0,0,2161120,0,2011021,12010419,0,41611909,0,21411319,-1071110,10911019,0,0,0,0,0,0,1200091,4161040,0,4181130,0,11401209,4110150,0,0,0,0,0,0
19,116,840.629518963397,1,0,727192.158425783,727193.205439322,0,50,5,1,1,8,10,84004110,37765377,52002338,45542428,0,4191140,10401019,3161181,0,1160151,30900209,-3190091,31000319,2201090,11701119,0,0,0,10200209,1201180,2051170,10410609,0,0,40201819,0,0,0,11800519,0,0,0,0,3120010,0,11210609,0,0,0,31211809
19,117,1470.51661706064,0,0,727195.099669351,727196.146664411,0,50,5,0,0,36,10,46572882,88381548,96903227,98846248,0,1191161,0,42010509,0,2191111,0,0,1180101,0,4050111,0,0,0,21111309,21310009,0,41910119,31810509,20201419,0,3190080,0,0,0,41701219,0,0,0,0,20910519,2121050,30911719,40711909,3160000,-1031051
19,118,1336.76180115435,0,0,727198.711412014,727199.758480987,0,50,5,1,0,26,5,37450691,10572362,65123197,21931350,31410409,0,3000101,0,0,0,0,0,3040181,0,4171131,0,2070190,1140001,0,0,0,3191040,11510219,10312009,41300909,0,0,0,0,-2000060,0,0,0,20910309,1021041,0,0,0,0,0
19,119,1394.70942784101,0,0,727202.217403569,727203.264412103,0,50,5,0,0,13,0,8342433,3001130,3171342,3182182,0,0,2130181,0,0,4091161,0,0,2121091,0,0,0,-3001130,0,0,0,0,0,0,0,0,1090141,2081201,0,0,0,0,0,0,0,0,0,0,1031001,0,2151181
19,120,499.013846972957,1,0,727205.840937248,727206.888005066,0,50,5,0,1,21,5,63822118,72981969,19501290,11393461,20110709,3110090,40601319,0,0,0,0,0,0,0,0,2060131,40211019,0,30710819,0,0,0,0,0,-4000070,0,11311109,0,0,4190111,0,2101120,4091160,1141140,0,0,0,0,0,4060041
19,121,759.732741164044,0,0,727239.559143584,727240.606165592,0,50,6,1,0,17,0,6261370,13203541,0,3241191,3061200,0,0,0,0,0,0,3200170,0,4041180,0,4160100,1001141,0,0,0,-4001120,0,0,0,0,0,0,0,0,0,0,0,0,0,2090041,1151150,0,0,0,0
19,122,602.497525978833,1,0,727242.547372588,727243.594469278,0,50,6,0,1,35,0,5181400,0,6252222,12493363,0,0,0,0,4001200,0,1180200,0,0,0,0,0,0,0,0,0,0,0,0,0,3151101,0,0,0,0,3101121,0,0,3000041,3191070,0,0,0,3171161,-3131091,0
19,123,2761.38615480158,0,0,727245.347408081,727246.394481289,0,50,6,0,0,36,10,110212638,79942469,2040050,97573087,10800319,32000519,0,2140081,0,2051091,0,21810409,41410219,2061041,0,41600319,30211019,2030020,0,4040070,0,0,0,0,0,2040050,0,0,0,0,0,4060191,0,30010609,41600609,10710419,0,10000219,0,-1191040
19,124,812.393678585067,0,0,727250.35925915,727251.406325043,0,50,6,1,0,24,0,1081111,6392062,6261211,3111121,0,0,0,0,0,0,0,1081111,0,0,0,4110051,0,0,0,1181010,0,1101001,3080080,0,0,0,1181080,-2000051,0,0,0,0,0,0,0,3111121,0,0,0,0
19,125,1716.22467087582,1,0,727253.347540508,727254.394607171,0,50,6,0,1,7,5,78914120,5241272,57013368,13062149,0,41710219,0,2001080,0,1131071,-2061131,32010619,0,2151091,0,0,0,0,0,0,3090181,0,0,0,11001019,0,0,4090080,40811209,1111060,0,2151130,0,0,0,0,0,0,0,10911019
19,126,1336.28175302874,1,0,727257.14759833,727258.194668073,0,50,6,0,1,20,20,104424568,200446596,99114157,79975754,4131170,0,31611709,40900419,21610109,0,2171160,4000001,0,31201719,20400009,30011319,2140001,4071011,41511419,0,40200709,30910409,11801109,-1150191,20400519,12000519,0,10610109,0,1151191,42000519,1141060,10310509,0,11710919,12011019,11701519,0,21200019,11900709
19,127,954.668098245747,0,0,727260.630000156,727261.677071439,0,50,6,1,0,5,10,44071641,78306199,43823277,86136059,0,0,0,0,-2030131,0,40911409,0,1130101,1141020,2021121,30801419,11710909,0,0,0,1030021,31601709,0,0,0,21110119,10701609,1001130,0,0,11010419,0,0,20211919,0,1120071,20901219,2201041,41701809,0
19,128,821.69899076689,0,0,727263.72416659,727264.771244032,0,50,6,0,0,19,0,7030250,8200111,6172200,4282102,0,4010130,0,0,3020120,0,0,0,0,0,0,4200060,4000051,0,0,0,0,0,-4161080,0,0,0,2011120,0,0,0,0,0,0,0,0,0,0,2191071,0,2091031
19,129,1288.1106325658,1,0,727266.712446023,727267.759524235,0,50,6,1,1,1,20,123284638,159447065,110184726,106564616,-3120120,2100001,0,0,20511319,41901209,20511009,31000819,4140161,30511019,3201181,11301819,31011309,30911709,31000019,0,21510009,0,0,4051151,21301419,0,0,11710419,21510609,41210519,10400609,20411209,31700809,3011050,10610619,4120171,21310309,11400419,4000030,0
19,130,960.031395079568,0,0,727270.100743396,727271.147839701,0,50,6,1,0,26,5,37450691,10572362,65123197,21931350,31410409,0,3000101,0,0,0,0,0,3040181,0,4171131,0,2070190,1140001,0,0,0,3191040,11510219,10312009,41300909,0,0,0,0,-2000060,0,0,0,20910309,1021041,0,0,0,0,0
19,131,946.281306562014,0,0,727273.124304637,727274.171385159,0,50,6,0,0,4,5,53521681,36973109,12561999,76732358,4141081,0,0,-4200180,0,41000309,4180111,0,0,0,0,0,0,0,4071070,31811019,1091020,0,0,0,0,0,0,0,0,2160080,10401919,40500509,0,1200010,0,0,31001819,4030020,0,0
19,132,709.204880637117,1,0,727276.124355837,727277.171417881,0,50,6,0,1,13,10,67814007,58612930,70274660,114681357,3010130,0,21900909,21000119,1191030,0,0,20711819,0,0,2020061,0,-2091120,3090121,30710319,20701309,0,0,0,4021101,0,0,0,4051121,30800819,31401619,0,40500319,41110509,2070120,0,0,31000409,0,0,0
19,133,1412.81536640599,0,0,727278.912631113,727279.959763605,0,50,6,1,0,11,5,25631299,24172290,34592288,22221519,0,21510219,0,0,0,4121080,0,0,0,0,-2201021,20801109,0,0,1170160,0,0,0,20000219,0,0,0,0,11410909,0,3181160,0,2090030,11810319,0,2110000,0,4111060,0,0,2100110
19,134,665.537050925195,1,0,727282.500926099,727283.547994302,0,50,6,1,1,3,10,49672511,119853816,78714237,42411418,0,0,-1090151,0,40410109,4101060,0,0,4071191,21601819,12000219,2060150,40110909,0,0,40910609,0,3170110,20711509,20110519,4010130,0,0,0,2080160,0,31801919,30610019,0,0,0,0,10710209,0,1091190,0
19,135,887.670004623942,0,0,727285.359795788,727286.406860141,0,50,6,0,0,21,20,108415958,162269296,136635436,101366225,0,0,20001819,40810709,30000309,11400919,0,4001121,2201081,10101909,40511909,0,41302019,4151031,20300919,31611309,10200119,4090081,0,40810219,-3061180,1161071,10000809,0,20400919,41101219,20100019,4000040,11400909,2041020,20000019,31811909,0,0,11710519,20401809
19,136,941.037733107805,1,0,727288.324542082,727289.37161144,0,50,6,0,1,33,20,119067216,119336238,131597167,149817254,2001020,0,2131021,20310419,10211119,0,40801009,11611919,32000709,20411509,20011409,0,30911509,0,2160111,41800609,4041091,0,0,4091171,2060031,0,11210709,20401819,41611909,21711119,30510409,0,30201319,31700419,22010109,10601619,-1091160,2191090,21910819,30110719
19,137,1456.63872105069,0,0,727291.454001872,727292.501070845,0,50,6,1,0,16,5,3172171,89026797,9542261,15511359,1011051,0,0,0,0,0,0,2161120,0,2011021,12010419,0,41611909,0,21411319,-1071110,10911019,0,0,0,0,0,0,1200091,4161040,0,4181130,0,11401209,4110150,0,0,0,0,0,0
19,138,1511.93280157167,1,0,727295.05405746,727296.101122969,0,50,6,0,1,6,10,95653918,125245387,85393488,12653600,0,41310619,0,0,0,-2040071,21702009,30601219,0,30900719,3031121,40202009,0,0,0,20711319,30400219,0,0,11710309,0,1080151,31501509,0,41101519,0,0,3060030,2161120,2151200,0,1201170,0,4080080,0,0
19,139,978.616611915641,1,0,727298.771757957,727299.81882462,0,50,6,1,1,8,10,84004110,37765377,52002338,45542428,0,4191140,10401019,3161181,0,1160151,30900209,-3190091,31000319,2201090,11701119,0,0,0,10200209,1201180,2051170,10410609,0,0,40201819,0,0,0,11800519,0,0,0,0,3120010,0,11210609,0,0,0,31211809
19,140,1588.08799681719,0,0,727301.842392021,727302.889463688,0,50,6,0,0,30,0,5373382,1051080,5121241,6170242,3141170,0,1091081,0,0,1141131,0,0,0,0,0,0,0,0,0,1051080,0,0,0,0,2050110,0,0,0,3071131,0,0,0,0,-4090091,0,0,0,0,2080151,0
19,141,1617.71932605188,0,0,727305.630742364,727306.677760137,0,50,6,1,0,18,20,99895367,184169267,158874485,76554277,10311509,0,10200019,42000009,2111181,4061030,31211619,0,0,31310819,41111109,10711719,21500019,1011161,3121001,31801809,41400519,-2201111,31710409,10011009,0,0,30200009,4040111,11300219,30411009,41201719,2070020,10910209,11101019,0,0,0,40911109,1061011,10500909
19,142,903.115852735937,1,0,727309.454277505,727310.501344553,0,50,6,1,1,31,0,6322361,0,10470441,5310170,0,0,3141180,0,0,3181181,0,0,0,0,0,0,0,0,0,0,0,0,0,4110110,0,3130201,0,0,2100030,0,1130100,0,0,0,-3190100,0,0,0,2120070,0
19,143,638.216651394032,1,0,727312.560203001,727313.607270819,0,50,6,1,1,9,20,74193309,123978386,199369834,137896436,4200010,20800619,0,0,4010111,0,1181040,40000519,-4001010,11511619,0,40111009,11410909,21902009,11201619,21600009,2050011,4191201,11401709,1141041,0,10400009,41011309,40200709,21801419,31412019,42001619,2081071,0,40500809,32011909,0,0,11400819,41001819,10900009
19,144,529.890529578552,0,0,727315.348506379,727316.395553794,0,50,6,0,0,10,5,63571128,15471414,91623647,2190081,0,20310519,0,0,0,0,2160000,0,41100609,-4080011,2150050,3061091,2010151,0,0,0,3040110,1130001,40211709,0,0,0,30510519,0,20901419,0,0,0,2190081,0,0,0,0,0,0,0
19,145,1025.47809004318,1,0,727321.077979797,727322.125056469,0,50,7,1,1,11,5,25631299,24172290,34592288,22221519,0,21510219,0,0,0,4121080,0,0,0,0,-2201021,20801109,0,0,1170160,0,0,0,20000219,0,0,0,0,11410909,0,3181160,0,2090030,11810319,0,2110000,0,4111060,0,0,2100110
19,146,1238.61947609112,1,0,727324.289794602,727325.33686396,0,50,7,0,1,13,20,142797486,166566427,141767376,75604926,1041061,11510819,21411419,3021011,40401919,21700519,32010219,11700519,0,40200209,22001719,0,-3190101,21610709,4030120,40701019,4031041,30801509,0,11610809,3151161,31101619,2081140,40810209,11910719,0,41101719,20310219,11901619,0,0,11611709,0,0,30600209,1181170
19,147,1728.26514113694,1,0,727327.584032176,727328.631039555,0,50,7,1,1,26,5,37450691,10572362,65123197,21931350,31410409,0,3000101,0,0,0,0,0,3040181,0,4171131,0,2070190,1140001,0,0,0,3191040,11510219,10312009,41300909,0,0,0,0,-2000060,0,0,0,20910309,1021041,0,0,0,0,0
19,148,618.092354619876,1,0,727331.419319451,727332.466385344,0,50,7,1,1,17,0,6261370,13203541,0,3241191,3061200,0,0,0,0,0,0,3200170,0,4041180,0,4160100,1001141,0,0,0,-4001120,0,0,0,0,0,0,0,0,0,0,0,0,0,2090041,1151150,0,0,0,0
19,149,845.414602081291,1,0,727334.242880769,727335.289962446,0,50,7,1,1,3,10,49672511,119853816,78714237,42411418,0,0,-1090151,0,40410109,4101060,0,0,4071191,21601819,12000219,2060150,40110909,0,0,40910609,0,3170110,20711509,20110519,4010130,0,0,0,2080160,0,31801919,30610019,0,0,0,0,10710209,0,1091190,0
19,150,1119.0751636168,0,0,727337.231019317,727338.278239954,0,50,7,1,0,24,0,1081111,6392062,6261211,3111121,0,0,0,0,0,0,0,1081111,0,0,0,4110051,0,0,0,1181010,0,1101001,3080080,0,0,0,1181080,-2000051,0,0,0,0,0,0,0,3111121,0,0,0,0
19,151,1102.25615452509,1,0,727340.595923666,727341.643001878,0,50,7,0,1,19,0,6421411,6222100,3041100,4311101,1111130,0,0,0,0,1110130,0,0,4200151,0,0,0,0,4081070,0,0,2141030,0,-3041100,0,0,0,0,0,0,0,0,2180001,0,0,0,0,2131100,0,0,0
19,152,743.720998289064,0,0,727343.819501384,727344.866568817,0,50,7,0,0,10,0,0,11693633,0,8512481,0,0,0,0,0,0,0,0,0,-3150191,2151181,0,3201110,0,0,0,0,3191151,0,0,0,0,0,0,0,0,0,1201171,0,1000130,2121130,0,0,0,0,4190050
19,153,563.474653172307,1,0,727346.666604695,727347.713679828,0,50,7,1,1,9,20,74193309,123978386,199369834,137896436,4200010,20800619,0,0,4010111,0,1181040,40000519,-4001010,11511619,0,40111009,11410909,21902009,11201619,21600009,2050011,4191201,11401709,1141041,0,10400009,41011309,40200709,21801419,31412019,42001619,2081071,0,40500809,32011909,0,0,11400819,41001819,10900009
19,154,758.68602830451,1,0,727349.325476386,727350.372541894,0,50,7,0,1,7,10,64096911,65714658,86283498,66444178,3041151,41001709,4001060,0,0,3000011,-2041161,11011819,0,0,10611219,0,0,32011509,0,2081121,21010809,0,0,31701709,30100219,0,0,4170161,0,0,20311409,2191060,30810609,2041190,0,0,0,0,31401319,0
19,155,1419.43672043271,0,0,727352.219631347,727353.266703785,0,50,7,0,0,35,0,7211131,2060081,5290261,5401172,4020091,0,3191040,0,0,0,0,0,0,2060081,0,0,0,0,0,0,0,0,0,0,0,2140121,0,0,0,3150140,0,0,0,0,0,1190081,0,3181030,-1030061,0
19,156,670.091541600414,0,0,727355.84322046,727356.89031561,0,50,7,1,0,16,5,3172171,89026797,9542261,15511359,1011051,0,0,0,0,0,0,2161120,0,2011021,12010419,0,41611909,0,21411319,-1071110,10911019,0,0,0,0,0,0,1200091,4161040,0,4181130,0,11401209,4110150,0,0,0,0,0,0
19,157,1305.61179516371,0,0,727358.572674244,727359.619742447,0,50,7,0,0,33,20,119607304,127252486,189156176,131016355,0,2091080,1090050,30400409,20811819,21900109,21301719,11601209,10410909,32011019,30210809,2030020,0,0,0,21600219,0,41400419,40401919,40901019,1050141,0,41400119,4090150,20701809,0,40611019,40110319,30601819,3021160,0,20000109,-3060080,2100150,10711309,21411409
19,158,1045.43454316445,0,0,727362.019782714,727363.066856307,0,50,7,1,0,31,0,6322361,0,10470441,5310170,0,0,3141180,0,0,3181181,0,0,0,0,0,0,0,0,0,0,0,0,0,4110110,0,3130201,0,0,2100030,0,1130100,0,0,0,-3190100,0,0,0,2120070,0
19,159,922.108744853176,0,0,727365.266895496,727366.313960234,0,50,7,1,0,8,10,84004110,37765377,52002338,45542428,0,4191140,10401019,3161181,0,1160151,30900209,-3190091,31000319,2201090,11701119,0,0,0,10200209,1201180,2051170,10410609,0,0,40201819,0,0,0,11800519,0,0,0,0,3120010,0,11210609,0,0,0,31211809
19,160,1646.79361449089,1,0,727368.443414635,727369.490485533,0,50,7,0,1,30,5,51001038,56342838,45742761,6343342,0,0,0,30501019,20500019,0,0,0,0,10510609,3130100,0,0,2191110,0,40511019,0,0,3151031,40410719,0,0,0,2181011,0,0,0,1000020,0,-1131201,0,2201050,0,0,0,2011071
19,161,1517.17906980775,0,0,727372.314058015,727373.361118904,0,50,7,1,0,18,20,99895367,184169267,158874485,76554277,10311509,0,10200019,42000009,2111181,4061030,31211619,0,0,31310819,41111109,10711719,21500019,1011161,3121001,31801809,41400519,-2201111,31710409,10011009,0,0,30200009,4040111,11300219,30411009,41201719,2070020,10910209,11101019,0,0,0,40911109,1061011,10500909
19,162,792.998115881346,0,0,727375.92587998,727376.972958192,0,50,7,0,0,21,5,13281569,44721768,9311392,27232970,0,0,11101519,0,0,0,0,0,2180050,20700209,0,0,0,0,21010409,0,0,3011150,0,0,-2020041,4081110,0,2140090,1070151,0,0,11500919,1011151,0,0,4010181,0,10710719,0,0
19,163,772.147010080516,1,0,727378.972982445,727380.020052188,0,50,7,1,1,5,10,44071641,78306199,43823277,86136059,0,0,0,0,-2030131,0,40911409,0,1130101,1141020,2021121,30801419,11710909,0,0,0,1030021,31601709,0,0,0,21110119,10701609,1001130,0,0,11010419,0,0,20211919,0,1120071,20901219,2201041,41701809,0
19,164,942.82703846693,0,0,727381.820088836,727382.867158964,0,50,7,0,0,6,20,79967938,149739154,158806405,115156475,10011719,0,0,4151171,30201119,-3071091,10400619,21001219,1131000,21211409,20300809,2161190,12012019,40801609,0,12010909,40101209,1140000,21612009,42010619,0,11511619,0,3160040,0,40211109,40301009,1071110,30410509,10100809,0,21611019,1161010,30800009,0,20002009
19,165,1191.00462622009,0,0,727384.973130656,727386.020148814,0,50,7,1,0,1,20,123284638,159447065,110184726,106564616,-3120120,2100001,0,0,20511319,41901209,20511009,31000819,4140161,30511019,3201181,11301819,31011309,30911709,31000019,0,21510009,0,0,4051151,21301419,0,0,11710419,21510609,41210519,10400609,20411209,31700809,3011050,10610619,4120171,21310309,11400419,4000030,0
19,166,1587.52441185061,1,0,727388.36135758,727389.408429248,0,50,7,0,1,36,5,44450609,30112802,47632768,34132690,0,0,0,0,40400519,0,0,4050090,0,3000081,1150041,4081201,0,20800319,0,0,1081160,0,3080200,0,10711109,0,0,2140040,0,31701419,0,0,0,0,0,0,0,31011509,0,-3121181
19,167,669.097953592427,1,0,727392.043770109,727393.090840237,0,50,7,0,1,20,10,41411218,81072879,60673798,65364299,0,10700709,0,0,0,0,0,0,30710509,11610609,31500019,3001171,0,3050171,0,31910909,0,0,10611619,-2050050,0,1160150,4131170,0,0,40700709,2020100,40111619,0,2091121,11310509,0,1050031,0,0,10801019
19,168,1284.39112543128,0,0,727394.80851802,727395.855586608,0,50,7,0,0,4,10,43922810,64862018,91083208,91714397,0,10110919,2140171,-1160201,0,0,30511519,0,0,21200209,40501609,0,0,0,0,0,3160200,0,4081071,41210919,0,0,3180100,30810309,0,0,11800809,30112019,3130120,0,11701619,41610619,3100000,0,0,2060020
19,169,1551.03998119012,0,0,727401.843911082,727402.890985445,0,50,8,0,0,13,20,157675545,145715555,141716065,124287378,0,30000509,41111819,0,40010709,30210809,10200619,3030050,3111030,0,0,20000419,-3191100,10100409,40711909,31601409,0,40110309,21511509,41811309,0,11610419,0,41110609,11701809,11900409,2070001,30201319,30811209,2120101,31000819,3170070,4151121,0,20711719,2121020
19,170,1057.17281787656,1,0,727405.502805486,727406.549853286,0,50,8,0,1,30,10,74914046,43991409,81035241,71773537,0,0,0,40801009,11201809,11510419,11400809,0,0,0,0,0,0,2091000,0,0,41900409,0,0,3091101,2130181,31300909,0,0,41411919,0,3101131,3160080,4020110,-1011160,30400319,0,11010119,1060140,21111609,0
19,171,631.094846059568,0,0,727408.702844675,727409.749913648,0,50,8,0,0,21,0,5321511,5090062,8102260,1191190,0,0,0,1060160,0,3181171,0,0,1080180,0,0,0,0,4000051,0,1090011,0,0,4071180,0,-4031080,0,0,0,0,0,0,0,0,0,0,0,0,1191190,0,0
19,172,1275.31525096856,0,0,727411.573480356,727412.620547789,0,50,8,0,0,6,5,19822119,66463198,28273220,43973110,0,10310809,0,0,4141120,-3180090,0,2190100,0,0,41711219,20610819,0,4141160,0,0,0,0,0,22012019,4150201,0,0,2111000,0,0,0,0,1011200,0,0,0,0,0,2160091,40801819
19,173,1089.35760287568,1,0,727415.079407622,727416.12648237,0,50,8,1,1,9,20,74193309,123978386,199369834,137896436,4200010,20800619,0,0,4010111,0,1181040,40000519,-4001010,11511619,0,40111009,11410909,21902009,11201619,21600009,2050011,4191201,11401709,1141041,0,10400009,41011309,40200709,21801419,31412019,42001619,2081071,0,40500809,32011909,0,0,11400819,41001819,10900009
19,174,584.284952841699,1,0,727418.220638794,727419.267706227,0,50,8,0,1,10,10,51513638,30714231,142225146,45723598,30201819,0,0,0,21311819,0,0,0,0,-1061011,0,3191030,1160180,0,0,21111909,4190101,0,0,20100819,0,4090190,31711319,2110081,31911409,30901209,21400119,0,0,1061200,2150170,0,21700419,0,20811809,0
19,175,857.741099433042,0,0,727421.008947561,727422.056052336,0,50,8,0,0,4,10,67095218,117882418,55791059,17764481,20611809,0,30500009,-4111051,0,10701219,0,0,1171130,30600519,2040121,40710009,0,20901119,0,3030131,0,20600519,0,40400019,0,0,0,11310019,0,0,4081021,0,11501309,0,2181061,0,2001061,0,0,2081050
19,176,877.413065289147,1,0,727424.091314126,727425.138394263,0,50,8,1,1,1,20,123284638,159447065,110184726,106564616,-3120120,2100001,0,0,20511319,41901209,20511009,31000819,4140161,30511019,3201181,11301819,31011309,30911709,31000019,0,21510009,0,0,4051151,21301419,0,0,11710419,21510609,41210519,10400609,20411209,31700809,3011050,10610619,4120171,21310309,11400419,4000030,0
19,177,655.375967267901,1,0,727427.197253095,727428.244313214,0,50,8,1,1,5,10,44071641,78306199,43823277,86136059,0,0,0,0,-2030131,0,40911409,0,1130101,1141020,2021121,30801419,11710909,0,0,0,1030021,31601709,0,0,0,21110119,10701609,1001130,0,0,11010419,0,0,20211919,0,1120071,20901219,2201041,41701809,0
19,178,1124.23481536098,0,0,727430.032581946,727431.079650919,0,50,8,1,0,31,0,6322361,0,10470441,5310170,0,0,3141180,0,0,3181181,0,0,0,0,0,0,0,0,0,0,0,0,0,4110110,0,3130201,0,0,2100030,0,1130100,0,0,0,-3190100,0,0,0,2120070,0
19,179,1217.99857774749,1,0,727433.385573258,727434.432643386,0,50,8,1,1,26,5,37450691,10572362,65123197,21931350,31410409,0,3000101,0,0,0,0,0,3040181,0,4171131,0,2070190,1140001,0,0,0,3191040,11510219,10312009,41300909,0,0,0,0,-2000060,0,0,0,20910309,1021041,0,0,0,0,0
19,180,855.632275226526,0,0,727436.656215329,727437.703290076,0,50,8,0,0,7,0,10403342,7222261,5350360,2080031,2111121,0,0,0,0,0,-4141020,4151201,0,0,0,0,0,0,0,4121111,3101150,0,0,0,4150160,0,0,0,1200200,0,0,0,0,0,0,0,2080031,0,0,0
19,181,1394.97774664778,1,0,727439.632824626,727440.679808137,0,50,8,1,1,8,10,84004110,37765377,52002338,45542428,0,4191140,10401019,3161181,0,1160151,30900209,-3190091,31000319,2201090,11701119,0,0,0,10200209,1201180,2051170,10410609,0,0,40201819,0,0,0,11800519,0,0,0,0,3120010,0,11210609,0,0,0,31211809
19,182,740.253641619347,1,0,727443.209256609,727444.256330972,0,50,8,1,1,24,0,1081111,6392062,6261211,3111121,0,0,0,0,0,0,0,1081111,0,0,0,4110051,0,0,0,1181010,0,1101001,3080080,0,0,0,1181080,-2000051,0,0,0,0,0,0,0,3111121,0,0,0,0
19,183,899.218492908403,0,0,727446.056358766,727447.103426199,0,50,8,0,0,36,20,100883919,198368793,146946094,124007499,40010619,1030160,0,2020001,10211719,0,40611319,4000090,3000011,20711919,41600809,21710709,0,0,20711909,21410309,40611119,31612019,0,0,31401519,21310609,10610319,0,42010719,20401719,21211209,31100919,1100131,21901309,20900519,41811319,4081200,2051051,0,-1061051
19,184,576.906762667932,1,0,727449.197580698,727450.244646592,0,50,8,1,1,11,5,25631299,24172290,34592288,22221519,0,21510219,0,0,0,4121080,0,0,0,0,-2201021,20801109,0,0,1170160,0,0,0,20000219,0,0,0,0,11410909,0,3181160,0,2090030,11810319,0,2110000,0,4111060,0,0,2100110
19,185,552.843145327643,0,0,727451.832910011,727452.879980523,0,50,8,1,0,17,0,6261370,13203541,0,3241191,3061200,0,0,0,0,0,0,3200170,0,4041180,0,4160100,1001141,0,0,0,-4001120,0,0,0,0,0,0,0,0,0,0,0,0,0,2090041,1151150,0,0,0,0
19,186,1593.28075533267,0,0,727454.515307141,727455.562385738,0,50,8,0,0,35,20,97396276,143198007,159018694,104365397,0,31110819,11111009,10011119,0,0,30600909,11411309,3151111,11901319,30501219,0,21502019,0,41212019,31900309,4161011,2020111,11811519,20510509,10211519,42011719,30211019,31010109,3051181,10201119,0,31400109,4000130,4141050,20601019,1141040,40001019,0,-3081030,0
19,187,865.056925802492,0,0,727458.209486432,727459.256553095,0,50,8,0,0,20,0,3271271,5391321,6250271,3290201,2130180,0,0,0,0,0,0,0,1141091,1200161,0,0,0,4191160,0,0,0,0,0,-2190111,0,4060160,0,0,0,0,0,0,0,1150001,2140200,0,0,0,0,0
19,188,1109.63165003341,1,0,727461.185995254,727462.233071926,0,50,8,0,1,33,5,7181101,2071121,83663348,73155640,0,4010030,0,0,0,3171071,0,0,0,0,0,0,0,2071121,0,0,0,0,2050201,0,30700919,0,20500619,0,0,30411609,0,41801219,4131031,0,0,1051051,-1080100,0,22011119,3081120
19,189,1401.25609911047,1,0,727464.468409091,727465.515477679,0,50,8,1,1,3,10,49672511,119853816,78714237,42411418,0,0,-1090151,0,40410109,4101060,0,0,4071191,21601819,12000219,2060150,40110909,0,0,40910609,0,3170110,20711509,20110519,4010130,0,0,0,2080160,0,31801919,30610019,0,0,0,0,10710209,0,1091190,0
19,190,510.678593884222,0,0,727467.997867572,727469.04493693,0,50,8,1,0,16,5,3172171,89026797,9542261,15511359,1011051,0,0,0,0,0,0,2161120,0,2011021,12010419,0,41611909,0,21411319,-1071110,10911019,0,0,0,0,0,0,1200091,4161040,0,4181130,0,11401209,4110150,0,0,0,0,0,0
19,191,1298.66437800229,0,0,727470.597911997,727471.644980585,0,50,8,1,0,18,20,99895367,184169267,158874485,76554277,10311509,0,10200019,42000009,2111181,4061030,31211619,0,0,31310819,41111109,10711719,21500019,1011161,3121001,31801809,41400519,-2201111,31710409,10011009,0,0,30200009,4040111,11300219,30411009,41201719,2070020,10910209,11101019,0,0,0,40911109,1061011,10500909
19,192,1249.66481840238,0,0,727474.103845808,727475.150917091,0,50,8,0,0,19,5,22350109,38362700,66075770,40400319,0,21210109,0,0,0,0,1140000,0,0,0,0,1180050,0,1131181,0,31900319,4151150,0,-4071100,0,0,4061180,40710509,0,10001709,3190081,4041191,0,0,0,40400319,0,0,0,0,0
19,193,781.22788912151,1,0,727480.586292291,727481.633364343,0,50,9,0,1,30,0,4231251,5112171,4200111,5091111,1171100,0,0,0,0,0,0,3060151,0,0,3081160,0,0,2031011,0,0,0,0,0,4200111,0,0,0,0,0,0,0,0,1070090,-3020021,0,0,0,0,1001000,0
19,194,494.757317239419,1,0,727483.527557801,727484.574592897,0,50,9,1,1,16,5,3172171,89026797,9542261,15511359,1011051,0,0,0,0,0,0,2161120,0,2011021,12010419,0,41611909,0,21411319,-1071110,10911019,0,0,0,0,0,0,1200091,4161040,0,4181130,0,11401209,4110150,0,0,0,0,0,0
19,195,943.484169314615,0,1,727486.151086089,727487.198163531,0,50,9,0,1,13,20,129878356,59143919,151609363,167804965,30710919,20911009,21701309,2181081,2061120,0,0,11601009,40711909,0,40601609,0,-2020070,0,2151101,3071120,11300019,0,11101919,30411419,40910219,4051040,11311819,11411109,0,11300119,31111719,2020150,10801119,0,41110019,40011119,3140021,30111019,30410209,10201309
19,196,1482.85697319079,0,0,727489.339376225,727490.386500247,0,50,9,1,0,18,20,99895367,184169267,158874485,76554277,10311509,0,10200019,42000009,2111181,4061030,31211619,0,0,31310819,41111109,10711719,21500019,1011161,3121001,31801809,41400519,-2201111,31710409,10011009,0,0,30200009,4040111,11300219,30411009,41201719,2070020,10910209,11101019,0,0,0,40911109,1061011,10500909
19,197,520.967100164853,0,0,727492.998256384,727494.045315733,0,50,9,1,0,17,0,6261370,13203541,0,3241191,3061200,0,0,0,0,0,0,3200170,0,4041180,0,4160100,1001141,0,0,0,-4001120,0,0,0,0,0,0,0,0,0,0,0,0,0,2090041,1151150,0,0,0,0
19,198,1944.5647590328,0,0,727495.668906386,727496.715957265,0,50,9,1,0,1,20,123284638,159447065,110184726,106564616,-3120120,2100001,0,0,20511319,41901209,20511009,31000819,4140161,30511019,3201181,11301819,31011309,30911709,31000019,0,21510009,0,0,4051151,21301419,0,0,11710419,21510609,41210519,10400609,20411209,31700809,3011050,10610619,4120171,21310309,11400419,4000030,0
19,199,738.394272979349,1,0,727499.727763679,727500.774849205,0,50,9,0,1,7,10,98686728,35011629,84203748,100955238,4121020,0,21011719,0,0,0,-2141061,30900919,40512009,0,0,4110120,0,0,0,0,30901509,0,40400119,0,30201519,0,11602009,0,0,2000101,0,30511909,0,1171161,20810719,41100109,4120010,0,1171170,2070160
19,200,698.25192913413,1,0,727502.563101768,727503.61017844,0,50,9,1,1,3,10,49672511,119853816,78714237,42411418,0,0,-1090151,0,40410109,4101060,0,0,4071191,21601819,12000219,2060150,40110909,0,0,40910609,0,3170110,20711509,20110519,4010130,0,0,0,2080160,0,31801919,30610019,0,0,0,0,10710209,0,1091190,0
19,201,884.019405813888,0,0,727505.504320698,727506.551403529,0,50,9,1,0,9,20,74193309,123978386,199369834,137896436,4200010,20800619,0,0,4010111,0,1181040,40000519,-4001010,11511619,0,40111009,11410909,21902009,11201619,21600009,2050011,4191201,11401709,1141041,0,10400009,41011309,40200709,21801419,31412019,42001619,2081071,0,40500809,32011909,0,0,11400819,41001819,10900009
19,202,1162.10934531409,0,0,727508.457307929,727509.504390376,0,50,9,0,0,21,5,17161951,19031991,64273059,42180259,10010819,0,0,0,2041001,2010071,3100060,0,0,0,3110201,0,0,10801519,1120191,0,4000080,0,0,0,-2071031,0,0,31901119,30300909,0,0,0,0,0,0,0,0,0,1170140,41010119
19,203,1351.24370339327,0,0,727511.82209988,727512.869143831,0,50,9,1,0,8,10,84004110,37765377,52002338,45542428,0,4191140,10401019,3161181,0,1160151,30900209,-3190091,31000319,2201090,11701119,0,0,0,10200209,1201180,2051170,10410609,0,0,40201819,0,0,0,11800519,0,0,0,0,3120010,0,11210609,0,0,0,31211809
19,204,1130.77956181951,0,0,727515.316234977,727516.363353611,0,50,9,0,0,33,10,99204357,74913011,64956269,75222509,31500219,2041051,10410519,0,0,20911609,30310809,0,4030150,0,1020181,40200409,0,0,30411019,1141201,0,2140201,21212019,1021100,0,40602009,2121141,0,0,0,0,0,0,0,30510719,0,-3201181,0,0,41510609
19,205,657.589116250165,1,0,727518.598638806,727519.645713169,0,50,9,0,1,19,5,40473692,6292071,73974688,56373669,0,30911109,1150181,0,3120131,0,0,1121181,4171090,0,2151041,0,0,0,0,4141030,0,0,-1061070,0,31702009,0,0,41211609,0,0,0,0,3061151,0,0,21400709,0,0,31911809,0
19,206,948.342780349776,1,0,727521.386921781,727522.433988059,0,50,9,1,1,11,5,25631299,24172290,34592288,22221519,0,21510219,0,0,0,4121080,0,0,0,0,-2201021,20801109,0,0,1170160,0,0,0,20000219,0,0,0,0,11410909,0,3181160,0,2090030,11810319,0,2110000,0,4111060,0,0,2100110
19,207,803.525683819316,0,0,727524.45755469,727525.504625973,0,50,9,1,0,5,10,44071641,78306199,43823277,86136059,0,0,0,0,-2030131,0,40911409,0,1130101,1141020,2021121,30801419,11710909,0,0,0,1030021,31601709,0,0,0,21110119,10701609,1001130,0,0,11010419,0,0,20211919,0,1120071,20901219,2201041,41701809,0
19,208,867.258141050115,1,0,727527.375290526,727528.422325237,0,50,9,1,1,24,0,1081111,6392062,6261211,3111121,0,0,0,0,0,0,0,1081111,0,0,0,4110051,0,0,0,1181010,0,1101001,3080080,0,0,0,1181080,-2000051,0,0,0,0,0,0,0,3111121,0,0,0,0
19,209,1444.47852740996,1,0,727530.304707277,727531.35177702,0,50,9,0,1,6,5,81113351,5352292,62301918,33062400,0,40000619,0,3021131,31700109,-2170140,0,3081151,1140201,0,2081100,0,2141111,0,0,1130081,0,0,0,0,0,0,0,20900109,41401809,0,0,31011219,0,0,0,2051181,0,0,0,0
19,210,788.284635636956,0,0,727533.84593483,727534.893003033,0,50,9,0,0,4,20,167255574,127566045,95754357,142266696,1050050,41011219,20712019,-2170020,20301919,31100019,20010009,30900319,0,10601119,20200219,20401519,0,22000219,1061151,0,11301509,42000309,1080010,0,0,3050200,30512019,0,0,40311109,20801019,0,2050050,20211709,30101319,11411009,4061071,30311319,41110219,3010000
19,211,809.665834764019,1,0,727536.881355224,727537.928351439,0,50,9,1,1,31,0,6322361,0,10470441,5310170,0,0,3141180,0,0,3181181,0,0,0,0,0,0,0,0,0,0,0,0,0,4110110,0,3130201,0,0,2100030,0,1130100,0,0,0,-3190100,0,0,0,2120070,0
19,212,1160.60876171105,0,0,727539.775436658,727540.82251333,0,50,9,0,0,36,10,27920710,97254006,125755896,46505042,0,1200181,4020180,0,20610219,0,2090130,0,0,0,0,20910219,30500119,0,10311709,31401909,0,4130050,0,3130040,10511909,30200609,41801919,0,0,40111419,0,0,0,0,1091191,40201509,0,0,4141161,-1071181
19,213,611.38746375218,1,0,727543.022545975,727544.069620337,0,50,9,0,1,10,0,10260262,1060181,1171200,6432432,0,3170081,0,3060041,0,0,0,0,4030140,-1060181,0,0,0,0,0,0,0,0,0,0,0,0,1171200,0,0,0,0,0,0,0,3201181,0,1060051,0,2171200,0
19,214,991.40660406556,0,0,727545.775534053,727546.822592632,0,50,9,0,0,20,20,179704994,152236304,163586375,98574808,30000309,30511509,40201609,0,20210119,2050160,3020070,21801209,31910009,31210919,10011209,10311319,22010719,0,41700609,31900209,2091130,3000190,31811019,-1170140,31500719,4080160,21711419,41401509,31911409,0,0,0,0,1031051,0,40910219,4020120,10901509,0,41711909
19,215,897.318703238852,0,0,727548.916786013,727549.963836892,0,50,9,0,0,35,0,0,10223403,4011091,6172133,0,0,0,0,0,0,0,0,0,4010021,1191141,0,0,3011151,0,0,0,2011090,0,0,0,0,0,0,0,4011091,0,0,0,1101001,0,0,0,0,-1031061,4040071
19,216,663.674217648804,0,0,727551.999153347,727553.046259661,0,50,9,1,0,26,5,37450691,10572362,65123197,21931350,31410409,0,3000101,0,0,0,0,0,3040181,0,4171131,0,2070190,1140001,0,0,0,3191040,11510219,10312009,41300909,0,0,0,0,-2000060,0,0,0,20910309,1021041,0,0,0,0,0
19,217,1359.92229671683,1,0,727559.85808309,727560.905169386,0,50,10,0,1,36,20,97834654,130056575,156556295,84575779,1121180,10700609,0,11800609,31801519,12000409,0,20100109,10310219,3021150,0,30300609,0,30110619,21911109,21100009,3111060,20502019,21010909,3020001,40110819,0,0,10001319,41700809,20611719,20100719,0,4091191,30710619,3131100,20901509,1060010,21601209,0,-3080141
19,218,1294.33547530789,0,0,727563.293448665,727564.340503395,0,50,10,0,0,4,20,90486395,78943878,120846325,119806556,3160120,10411309,20600019,-3091000,11811619,30401319,0,0,11011009,21210019,11012009,2110011,3200111,0,0,21301419,20110309,0,0,11300619,3100180,21610709,11010919,21001119,40111109,2110051,10601619,41401119,10211109,20301709,0,30100209,3191180,0,10401219,4200011
19,219,938.018857617863,1,0,727566.822906377,727567.869979969,0,50,10,1,1,24,0,1081111,6392062,6261211,3111121,0,0,0,0,0,0,0,1081111,0,0,0,4110051,0,0,0,1181010,0,1101001,3080080,0,0,0,1181080,-2000051,0,0,0,0,0,0,0,3111121,0,0,0,0
19,220,510.472254012711,1,0,727569.893532741,727570.940618268,0,50,10,1,1,11,5,25631299,24172290,34592288,22221519,0,21510219,0,0,0,4121080,0,0,0,0,-2201021,20801109,0,0,1170160,0,0,0,20000219,0,0,0,0,11410909,0,3181160,0,2090030,11810319,0,2110000,0,4111060,0,0,2100110
19,221,552.494369330816,0,0,727572.658294511,727573.705364254,0,50,10,1,0,16,5,3172171,89026797,9542261,15511359,1011051,0,0,0,0,0,0,2161120,0,2011021,12010419,0,41611909,0,21411319,-1071110,10911019,0,0,0,0,0,0,1200091,4161040,0,4181130,0,11401209,4110150,0,0,0,0,0,0
19,222,975.313249160536,0,0,727575.29366232,727576.340695106,0,50,10,1,0,18,20,99895367,184169267,158874485,76554277,10311509,0,10200019,42000009,2111181,4061030,31211619,0,0,31310819,41111109,10711719,21500019,1011161,3121001,31801809,41400519,-2201111,31710409,10011009,0,0,30200009,4040111,11300219,30411009,41201719,2070020,10910209,11101019,0,0,0,40911109,1061011,10500909
19,223,751.359038054943,0,0,727578.446624452,727579.493684955,0,50,10,0,0,21,20,116047218,124335437,78676226,229466212,2110121,4131120,2151070,31601119,3041161,30200809,31801109,0,11010709,0,0,31810409,4040131,12001709,32012009,4160070,0,40311109,10800019,10901219,-3171110,42011609,0,0,1181060,0,10611209,11811909,41810009,30710319,31900319,11211309,0,20710209,40702019,40610119
19,224,778.193615144119,0,0,727581.399603214,727582.446667952,0,50,10,1,0,9,20,74193309,123978386,199369834,137896436,4200010,20800619,0,0,4010111,0,1181040,40000519,-4001010,11511619,0,40111009,11410909,21902009,11201619,21600009,2050011,4191201,11401709,1141041,0,10400009,41011309,40200709,21801419,31412019,42001619,2081071,0,40500809,32011909,0,0,11400819,41001819,10900009
19,225,707.575719570741,1,0,727584.376124355,727585.423194097,0,50,10,1,1,8,10,84004110,37765377,52002338,45542428,0,4191140,10401019,3161181,0,1160151,30900209,-3190091,31000319,2201090,11701119,0,0,0,10200209,1201180,2051170,10410609,0,0,40201819,0,0,0,11800519,0,0,0,0,3120010,0,11210609,0,0,0,31211809
19,226,1108.22807694785,1,0,727587.152635948,727588.199702611,0,50,10,0,1,13,5,94915777,20103260,45261591,4211192,0,2191150,20311709,0,0,0,40800909,0,31612009,2201121,0,0,-3181020,0,0,10611019,0,4110100,0,0,1190071,0,0,0,3070201,41001319,0,0,0,0,0,0,1071161,0,0,3140031
19,227,1389.29493108299,0,0,727590.470375864,727591.517398642,0,50,10,0,0,20,10,96982558,64732799,81863620,77613900,40110609,0,31410819,0,21401109,0,0,0,4060021,0,0,2111061,0,41411019,21210719,0,0,0,42000919,-4021031,0,2190100,3141151,0,30510419,0,0,10700309,0,0,0,2040101,20311909,1050111,40411419,3100051
19,228,897.257109289058,1,0,727593.964504802,727595.01157416,0,50,10,1,1,26,5,37450691,10572362,65123197,21931350,31410409,0,3000101,0,0,0,0,0,3040181,0,4171131,0,2070190,1140001,0,0,0,3191040,11510219,10312009,41300909,0,0,0,0,-2000060,0,0,0,20910309,1021041,0,0,0,0,0
19,229,821.84681633953,1,0,727597.105760996,727598.152794938,0,50,10,0,1,35,5,18793830,44913948,45343179,8290203,0,0,0,11401609,2050091,1201020,0,4141110,0,0,21411519,0,20301319,0,0,0,3201110,0,0,11801919,0,0,0,31400109,0,0,2141151,4110171,0,0,0,0,1140001,0,-3040031,0
19,230,652.758222655393,1,0,727600.10577909,727601.152849987,0,50,10,0,1,7,0,9401461,0,4181131,7390382,0,0,2080191,0,1160090,4040080,-2121100,0,0,0,0,0,0,0,0,0,0,0,0,0,0,4181131,0,0,0,0,0,0,0,0,0,3180141,0,0,2150170,2060071
19,231,571.837962139398,0,0,727602.905828442,727603.95294361,0,50,10,0,0,10,0,1101101,5160171,4132140,5283472,0,0,0,0,0,0,1101101,0,0,-3140120,0,0,2020051,0,0,0,0,0,0,0,0,3001130,0,0,0,1131010,0,0,0,0,1011151,2141180,0,2131141,0,0
19,232,911.430271575227,0,0,727605.541150055,727606.588218643,0,50,10,1,0,1,20,123284638,159447065,110184726,106564616,-3120120,2100001,0,0,20511319,41901209,20511009,31000819,4140161,30511019,3201181,11301819,31011309,30911709,31000019,0,21510009,0,0,4051151,21301419,0,0,11710419,21510609,41210519,10400609,20411209,31700809,3011050,10610619,4120171,21310309,11400419,4000030,0
19,233,994.777335203253,1,0,727608.552964552,727609.600035065,0,50,10,1,1,31,0,6322361,0,10470441,5310170,0,0,3141180,0,0,3181181,0,0,0,0,0,0,0,0,0,0,0,0,0,4110110,0,3130201,0,0,2100030,0,1130100,0,0,0,-3190100,0,0,0,2120070,0
19,234,848.33723702468,1,0,727611.647134835,727612.694197648,0,50,10,0,1,30,10,33184573,93442656,58584649,90283518,0,3191141,3090111,0,20701209,2151111,0,4051001,0,0,0,0,30511509,0,0,10410419,21510409,31010319,4031051,0,0,30311719,0,0,4040060,0,20201819,21210209,41310109,-3061070,0,0,0,20701109,4001021,0
19,235,552.452793461271,0,0,727614.694236915,727615.741290104,0,50,10,1,0,17,0,6261370,13203541,0,3241191,3061200,0,0,0,0,0,0,3200170,0,4041180,0,4160100,1001141,0,0,0,-4001120,0,0,0,0,0,0,0,0,0,0,0,0,0,2090041,1151150,0,0,0,0
19,236,1361.84364429209,1,0,727617.423686079,727618.470751203,0,50,10,1,1,3,10,49672511,119853816,78714237,42411418,0,0,-1090151,0,40410109,4101060,0,0,4071191,21601819,12000219,2060150,40110909,0,0,40910609,0,3170110,20711509,20110519,4010130,0,0,0,2080160,0,31801919,30610019,0,0,0,0,10710209,0,1091190,0
19,237,776.853175833821,0,0,727620.870802634,727621.91789124,0,50,10,1,0,5,10,44071641,78306199,43823277,86136059,0,0,0,0,-2030131,0,40911409,0,1130101,1141020,2021121,30801419,11710909,0,0,0,1030021,31601709,0,0,0,21110119,10701609,1001130,0,0,11010419,0,0,20211919,0,1120071,20901219,2201041,41701809,0
19,238,1088.41136540286,0,0,727623.81201117,727624.859094386,0,50,10,0,0,33,0,5201220,6372432,4141090,5071290,0,0,0,2110130,0,0,0,3091090,0,4130161,0,0,0,0,1101200,0,1141071,0,4141090,0,0,0,0,0,0,0,0,0,1000090,0,0,0,-4071200,0,0,0
19,239,890.711592859589,1,0,727626.976773555,727628.023843683,0,50,10,0,1,19,10,30600519,77342910,129433457,92136139,0,0,30600519,0,0,0,0,0,0,0,0,0,0,0,40301309,31910319,4101181,1030101,-2080151,0,21700819,0,31210719,31510209,0,2121050,40810509,4181130,1081120,4170101,40211319,0,30711509,1070051,10710909,0
19,240,1265.34626353532,1,0,727630.00035058,727631.047415703,0,50,10,0,1,6,5,89375290,4190060,18482810,26040960,1000081,1091140,30411109,0,0,-3070121,10111819,3190001,40501019,0,0,0,0,4190060,0,0,0,0,4201170,10100609,4181031,0,0,0,0,0,0,4030151,0,0,0,0,0,0,22010809,0
19,241,775.173584814183,1,0,727636.565154388,727637.612236449,0,50,11,0,1,19,10,68884748,90774127,86145198,82943918,0,30400619,0,0,0,31411919,0,4071070,3001140,2040150,21500709,4100120,2031020,0,30300609,30801519,0,0,-3091140,40301909,0,0,0,0,2051040,0,40701109,0,30100909,0,31200819,20502019,0,1140171,0,0
19,242,698.111032950692,1,0,727639.459315124,727640.506386406,0,50,11,0,1,20,5,82512218,36611270,51713819,7242321,0,0,0,0,40611209,0,0,41901009,0,1090060,1191070,0,0,0,3130131,0,0,31200009,0,-2170170,4070161,0,20300619,0,21101819,0,4071050,0,0,0,3151141,0,0,0,4091180,0
19,243,746.321419603191,1,0,727642.22406342,727643.271139322,0,50,11,1,1,26,5,37450691,10572362,65123197,21931350,31410409,0,3000101,0,0,0,0,0,3040181,0,4171131,0,2070190,1140001,0,0,0,3191040,11510219,10312009,41300909,0,0,0,0,-2000060,0,0,0,20910309,1021041,0,0,0,0,0
19,244,1806.12687498797,0,0,727645.165338554,727646.212350937,0,50,11,0,0,6,10,68563840,35002339,131285298,85782408,0,11500509,4040031,0,41810919,-4000050,4161200,3051131,0,0,0,0,0,30901309,0,0,4101030,0,0,4181021,20910019,0,0,40900019,30601719,3181201,31511319,0,31300019,2071161,0,11300509,41110719,0,0,0
19,245,1650.73601494078,0,0,727649.047703655,727650.094768394,0,50,11,0,0,7,20,137154287,140185576,159784456,181007205,32011419,30400809,0,0,0,41500619,-1060051,30001309,2180080,40701509,0,1100111,10810309,31600409,0,20111319,4160110,31701809,1140120,41401809,20910609,32010919,20300809,0,2110071,41910119,0,30910919,41300309,0,30700619,2181091,11900809,41601809,20401619,2010030
19,246,680.431247921661,1,0,727652.836022817,727653.883064842,0,50,11,0,1,10,0,12082441,4031130,8430243,0,0,0,4010080,0,0,0,4030190,3021061,1021110,-4031130,0,0,0,0,0,0,0,0,3160001,0,1140091,0,0,0,4130151,0,0,0,0,0,0,0,0,0,0,0
19,247,482.736479956657,1,0,727655.659561423,727656.706638865,0,50,11,0,1,21,5,23222840,6131150,27112131,82396618,20201819,0,0,3021021,0,0,0,0,0,0,0,0,4020110,0,0,2111040,0,0,22001009,0,-4031041,0,1080081,0,0,0,0,41801809,1191151,0,10901509,21400919,0,4070050,3031180,0
19,248,755.235609947704,0,0,727658.37725191,727659.424317033,0,50,11,1,0,24,0,1081111,6392062,6261211,3111121,0,0,0,0,0,0,0,1081111,0,0,0,4110051,0,0,0,1181010,0,1101001,3080080,0,0,0,1181080,-2000051,0,0,0,0,0,0,0,3111121,0,0,0,0
19,249,1046.29031463992,0,0,727661.389065252,727662.436137305,0,50,11,1,0,5,10,44071641,78306199,43823277,86136059,0,0,0,0,-2030131,0,40911409,0,1130101,1141020,2021121,30801419,11710909,0,0,0,1030021,31601709,0,0,0,21110119,10701609,1001130,0,0,11010419,0,0,20211919,0,1120071,20901219,2201041,41701809,0
19,250,546.937821432948,0,0,727664.624413197,727665.671480245,0,50,11,1,0,11,5,25631299,24172290,34592288,22221519,0,21510219,0,0,0,4121080,0,0,0,0,-2201021,20801109,0,0,1170160,0,0,0,20000219,0,0,0,0,11410909,0,3181160,0,2090030,11810319,0,2110000,0,4111060,0,0,2100110
19,251,1102.69578162115,0,0,727667.365625274,727668.412698866,0,50,11,1,0,1,20,123284638,159447065,110184726,106564616,-3120120,2100001,0,0,20511319,41901209,20511009,31000819,4140161,30511019,3201181,11301819,31011309,30911709,31000019,0,21510009,0,0,4051151,21301419,0,0,11710419,21510609,41210519,10400609,20411209,31700809,3011050,10610619,4120171,21310309,11400419,4000030,0
19,252,506.250755861402,0,0,727670.60095705,727671.64805605,0,50,11,0,0,13,0,3120090,5263320,6291261,6120061,0,3120090,0,0,0,0,0,0,0,0,1151200,1091120,-3021000,0,0,0,0,0,0,0,0,3141061,3150200,0,0,0,0,3090011,0,3030050,0,0,0,0,0,0
19,253,786.249724216759,0,0,727673.353958217,727674.40102334,0,50,11,1,0,8,10,84004110,37765377,52002338,45542428,0,4191140,10401019,3161181,0,1160151,30900209,-3190091,31000319,2201090,11701119,0,0,0,10200209,1201180,2051170,10410609,0,0,40201819,0,0,0,11800519,0,0,0,0,3120010,0,11210609,0,0,0,31211809
19,254,838.404051028192,1,0,727676.353999023,727677.40107608,0,50,11,1,1,9,20,74193309,123978386,199369834,137896436,4200010,20800619,0,0,4010111,0,1181040,40000519,-4001010,11511619,0,40111009,11410909,21902009,11201619,21600009,2050011,4191201,11401709,1141041,0,10400009,41011309,40200709,21801419,31412019,42001619,2081071,0,40500809,32011909,0,0,11400819,41001819,10900009
19,255,1210.74357558973,0,0,727679.389372837,727680.436417557,0,50,11,0,0,36,0,8240101,1131050,3082272,3191181,4070020,0,0,0,0,3030061,0,1140020,0,0,0,0,0,1131050,0,0,0,0,0,0,0,0,0,0,0,1041151,2041121,0,1000181,0,0,0,0,0,0,-2191000
19,256,948.068302124739,1,0,727682.707038456,727683.754105119,0,50,11,0,1,30,10,96224757,132144457,59524019,7202181,11701809,31500719,0,20110509,0,2001111,30910609,0,0,30701319,40511609,4070021,32000709,0,0,0,4160180,20700619,0,2131170,41301719,0,11911119,0,0,4180011,0,0,0,-2021071,0,0,0,4090060,0,1091050
19,257,863.932450418361,0,0,727685.801229526,727686.848272707,0,50,11,1,0,31,0,6322361,0,10470441,5310170,0,0,3141180,0,0,3181181,0,0,0,0,0,0,0,0,0,0,0,0,0,4110110,0,3130201,0,0,2100030,0,1130100,0,0,0,-3190100,0,0,0,2120070,0
19,258,1316.05852104258,1,0,727688.90713231,727689.954198973,0,50,11,0,1,35,20,122637076,108496569,171126445,205867333,0,10701609,0,1190101,10211619,30011619,0,40111219,30410909,0,10611209,3090181,4191171,42001719,3120050,2121190,2060140,41300909,41901219,11511819,4101070,41810309,0,0,30800419,41001609,0,30211909,32010209,10711109,40010409,31300609,0,40311819,-1011150,20300119
19,259,584.714955883101,1,0,727692.295426217,727693.342489801,0,50,11,1,1,16,5,3172171,89026797,9542261,15511359,1011051,0,0,0,0,0,0,2161120,0,2011021,12010419,0,41611909,0,21411319,-1071110,10911019,0,0,0,0,0,0,1200091,4161040,0,4181130,0,11401209,4110150,0,0,0,0,0,0
19,260,631.477883667685,0,0,727695.036639065,727696.083711887,0,50,11,0,0,4,5,70554520,7141140,53240138,24321860,4040050,0,30700819,-2141151,0,0,31501419,2171081,0,0,0,4070130,0,0,0,0,3071010,0,0,30610109,0,0,1030020,0,21600009,0,0,0,21110709,2110010,0,0,0,0,0,1101141
19,261,570.128343882971,1,0,727697.824911646,727698.871994093,0,50,11,1,1,17,0,6261370,13203541,0,3241191,3061200,0,0,0,0,0,0,3200170,0,4041180,0,4160100,1001141,0,0,0,-4001120,0,0,0,0,0,0,0,0,0,0,0,0,0,2090041,1151150,0,0,0,0
19,262,975.854121381417,1,0,727700.613249671,727701.660263209,0,50,11,1,1,3,10,49672511,119853816,78714237,42411418,0,0,-1090151,0,40410109,4101060,0,0,4071191,21601819,12000219,2060150,40110909,0,0,40910609,0,3170110,20711509,20110519,4010130,0,0,0,2080160,0,31801919,30610019,0,0,0,0,10710209,0,1091190,0
19,263,1095.28409969062,0,0,727703.683834074,727704.730898428,0,50,11,0,0,33,20,155167397,115575047,132588745,146078696,11210519,2011100,0,40010709,20501519,4190031,41801509,4130001,31312009,0,21210109,20401719,0,0,40301509,2061091,0,31600619,11911809,42001919,0,3031170,21111319,3011100,0,40811419,10710009,11911409,3061061,0,11511119,20610109,-4071151,41700719,41401119,11812009
19,264,2657.63415687252,1,0,727707.00152895,727708.048602928,0,50,11,1,1,18,20,99895367,184169267,158874485,76554277,10311509,0,10200019,42000009,2111181,4061030,31211619,0,0,31310819,41111109,10711719,21500019,1011161,3121001,31801809,41400519,-2201111,31710409,10011009,0,0,30200009,4040111,11300219,30411009,41201719,2070020,10910209,11101019,0,0,0,40911109,1061011,10500909
19,265,1100.38793191779,1,0,727725.907688965,727726.954774107,0,50,12,1,1,1,20,123284638,159447065,110184726,106564616,-3120120,2100001,0,0,20511319,41901209,20511009,31000819,4140161,30511019,3201181,11301819,31011309,30911709,31000019,0,21510009,0,0,4051151,21301419,0,0,11710419,21510609,41210519,10400609,20411209,31700809,3011050,10610619,4120171,21310309,11400419,4000030,0
19,266,765.512182260863,1,0,727729.178337196,727730.225407709,0,50,12,1,1,24,0,1081111,6392062,6261211,3111121,0,0,0,0,0,0,0,1081111,0,0,0,4110051,0,0,0,1181010,0,1101001,3080080,0,0,0,1181080,-2000051,0,0,0,0,0,0,0,3111121,0,0,0,0
19,267,892.418131348677,0,0,727732.11956267,727733.166629333,0,50,12,1,0,5,10,44071641,78306199,43823277,86136059,0,0,0,0,-2030131,0,40911409,0,1130101,1141020,2021121,30801419,11710909,0,0,0,1030021,31601709,0,0,0,21110119,10701609,1001130,0,0,11010419,0,0,20211919,0,1120071,20901219,2201041,41701809,0
19,268,711.188207147643,0,0,727735.21375836,727736.260790762,0,50,12,1,0,9,20,74193309,123978386,199369834,137896436,4200010,20800619,0,0,4010111,0,1181040,40000519,-4001010,11511619,0,40111009,11410909,21902009,11201619,21600009,2050011,4191201,11401709,1141041,0,10400009,41011309,40200709,21801419,31412019,42001619,2081071,0,40500809,32011909,0,0,11400819,41001819,10900009
19,269,910.793543793261,1,0,727738.14318358,727739.190250628,0,50,12,0,1,13,20,124705476,173806226,145857353,73035300,11911409,31611709,2070081,4201140,0,0,32000109,11500919,31410109,31311409,30611419,40001209,-1160051,0,30711919,0,40010219,0,30401119,1011050,40111609,10100319,30811509,11910109,0,10610419,10901219,20210509,1161121,0,4121151,3130000,11401819,0,31900609,1110091
19,270,504.922250518575,1,0,727741.213816104,727742.260885847,0,50,12,1,1,11,5,25631299,24172290,34592288,22221519,0,21510219,0,0,0,4121080,0,0,0,0,-2201021,20801109,0,0,1170160,0,0,0,20000219,0,0,0,0,11410909,0,3181160,0,2090030,11810319,0,2110000,0,4111060,0,0,2100110
19,271,885.003754752688,1,0,727743.872725906,727744.919767162,0,50,12,0,1,30,10,16033621,102733037,113212408,73403209,0,0,0,2110201,0,10611219,0,2191150,1121051,40811309,0,0,20011219,0,0,41910509,0,0,30300319,0,0,0,1200161,40100109,0,41611819,0,2021171,0,-3151040,3190040,20700019,3120011,20410409,0,20810519
19,272,504.493017331697,0,0,727746.896306781,727747.943327248,0,50,12,1,0,16,5,3172171,89026797,9542261,15511359,1011051,0,0,0,0,0,0,2161120,0,2011021,12010419,0,41611909,0,21411319,-1071110,10911019,0,0,0,0,0,0,1200091,4161040,0,4181130,0,11401209,4110150,0,0,0,0,0,0
19,273,857.070494908839,0,0,727749.531588358,727750.578664645,0,50,12,0,0,35,20,109787378,200409912,85794308,118864838,11401719,2021111,3061001,41201409,0,11600419,40501719,0,0,21700719,20801909,11711809,30501409,20611609,40901809,10700009,41410509,2070130,4100111,0,4180100,11110019,20910619,30401509,12001909,3090041,0,0,21610319,21801419,41500909,0,1000071,0,-1041101,31911019
19,274,678.003674722277,1,0,727752.578706991,727753.625765185,0,50,12,0,1,36,10,24471421,98313668,64381218,144045487,0,0,0,1000101,2060111,0,21411209,0,0,31210309,20510719,0,41311419,4180130,0,1101091,0,0,0,0,0,0,21200019,41100019,0,0,2081180,42010119,4060080,31110809,0,0,3051120,30202009,31510309,-2101041
19,275,562.244313186966,0,0,727755.331679671,727756.378745179,0,50,12,0,0,4,5,11692682,62223637,21801809,49162773,1180170,0,0,-3170111,3181200,0,0,4161201,0,21400509,0,0,10211209,0,0,30611919,0,0,0,0,0,0,0,0,0,21801809,0,0,1001191,0,3181011,0,1070011,3200051,0,40710509
19,276,502.692548092455,0,0,727757.967018222,727759.01408681,0,50,12,0,0,10,0,11373462,6151251,1201060,4231262,0,0,3191081,0,0,0,4161181,4021200,0,-3020140,0,0,0,0,0,0,3131111,0,0,1201060,0,0,0,0,0,0,0,0,0,3040101,0,0,0,0,0,1191161
19,277,460.137259680778,1,1,727760.684704475,727761.731773832,0,50,12,1,0,17,0,6261370,13203541,0,3241191,3061200,0,0,0,0,0,0,3200170,0,4041180,0,4160100,1001141,0,0,0,-4001120,0,0,0,0,0,0,0,0,0,0,0,0,0,2090041,1151150,0,0,0,0
19,278,943.600043072365,0,0,727763.214152562,727764.261224999,0,50,12,1,0,18,20,99895367,184169267,158874485,76554277,10311509,0,10200019,42000009,2111181,4061030,31211619,0,0,31310819,41111109,10711719,21500019,1011161,3121001,31801809,41400519,-2201111,31710409,10011009,0,0,30200009,4040111,11300219,30411009,41201719,2070020,10910209,11101019,0,0,0,40911109,1061011,10500909
19,279,745.849070604891,1,0,727766.237731896,727767.284848989,0,50,12,0,1,6,5,22773331,11011309,44192049,28301821,0,4191141,0,3170181,0,-4120040,10110809,0,1181160,0,0,0,0,0,0,0,11011309,0,42001019,0,0,0,0,0,2191030,0,0,10900609,4090041,0,11210009,0,0,0,1021141,1080021
19,280,624.347609351389,0,0,727769.155421536,727770.202497824,0,50,12,0,0,20,10,63753268,87420518,128433596,60774499,2021120,0,0,0,0,1021120,20010919,40700109,0,41310119,2080010,0,41910209,0,0,2120180,0,0,31500109,-3110150,41801209,40910709,11111419,0,0,0,0,0,0,4190170,31312019,0,0,3041150,21101019,1130141
19,281,732.877376140095,1,0,727771.896920026,727772.943709901,0,50,12,1,1,3,10,49672511,119853816,78714237,42411418,0,0,-1090151,0,40410109,4101060,0,0,4071191,21601819,12000219,2060150,40110909,0,0,40910609,0,3170110,20711509,20110519,4010130,0,0,0,2080160,0,31801919,30610019,0,0,0,0,10710209,0,1091190,0
19,282,1352.28194715455,1,0,727774.708465511,727775.755517161,0,50,12,1,1,31,0,6322361,0,10470441,5310170,0,0,3141180,0,0,3181181,0,0,0,0,0,0,0,0,0,0,0,0,0,4110110,0,3130201,0,0,2100030,0,1130100,0,0,0,-3190100,0,0,0,2120070,0
19,283,490.418790490367,1,0,727778.16732804,727779.214394318,0,50,12,1,1,26,5,37450691,10572362,65123197,21931350,31410409,0,3000101,0,0,0,0,0,3040181,0,4171131,0,2070190,1140001,0,0,0,3191040,11510219,10312009,41300909,0,0,0,0,-2000060,0,0,0,20910309,1021041,0,0,0,0,0
19,284,755.647904705256,1,0,727780.732095276,727781.779142306,0,50,12,1,1,8,10,84004110,37765377,52002338,45542428,0,4191140,10401019,3161181,0,1160151,30900209,-3190091,31000319,2201090,11701119,0,0,0,10200209,1201180,2051170,10410609,0,0,40201819,0,0,0,11800519,0,0,0,0,3120010,0,11210609,0,0,0,31211809
19,285,1041.08061792795,0,0,727783.708612952,727784.755661907,0,50,12,0,0,33,0,9180641,0,2010021,5071342,0,0,0,1010180,0,4020151,3040160,0,1110150,0,0,0,0,0,0,0,0,0,0,0,0,0,0,0,2010021,0,0,0,0,1051060,1010181,0,-3010101,0,0,0
19,286,1025.72138630785,0,0,727786.849805627,727787.896956597,0,50,12,0,0,21,5,41013528,6082281,27790912,57012258,10701809,0,0,0,0,0,0,30311719,0,3071100,0,0,0,0,0,2011041,0,1000140,0,0,-2010001,3100201,0,0,21500709,0,1180001,2181040,0,0,21000419,0,0,31810609,2020190,0
19,287,857.226019725204,1,0,727790.132215615,727791.179289208,0,50,12,0,1,19,20,65375456,98475395,161856204,115489837,21211209,0,10600419,10311209,1001020,0,1050180,0,21201419,0,11511819,31900109,0,10700619,20911609,0,3140120,20311119,-4150000,40001819,10810519,30811609,21410109,4070020,0,40300709,10301419,21902019,11501019,11301809,0,41300609,3201021,4131001,21001319,1151040
19,288,1060.79146487173,0,0,727793.20289395,727794.249930201,0,50,12,0,0,7,0,10382362,1180181,4060190,3201221,2100130,4100191,0,0,0,0,-2161011,0,2021030,0,0,0,0,0,1180181,0,0,0,0,0,0,0,0,4060190,0,0,0,0,2040060,0,0,0,0,0,1161161,0
19,289,2229.40963460132,0,0,727799.497051452,727800.544137363,0,50,13,1,0,8,10,84004110,37765377,52002338,45542428,0,4191140,10401019,3161181,0,1160151,30900209,-3190091,31000319,2201090,11701119,0,0,0,10200209,1201180,2051170,10410609,0,0,40201819,0,0,0,11800519,0,0,0,0,3120010,0,11210609,0,0,0,31211809
19,290,1352.43285237812,1,0,727803.908896207,727804.95597211,0,50,13,0,1,36,10,102143337,67353477,111027237,35261569,40001109,0,0,30010209,0,0,2031110,0,30100909,0,0,3150000,0,40111409,0,1071140,11810709,11210219,0,0,41201509,4011090,0,1101160,20511919,41001419,3200140,3010000,0,0,0,30200519,0,0,0,-2051050
19,291,921.365382266231,1,0,727807.403069031,727808.450136849,0,50,13,0,1,6,20,112515334,167328496,70446569,149123556,20611009,21110209,0,10001919,4040090,-3040070,11300109,31001709,11410219,31201719,40101309,40201019,41001919,0,0,11700319,1021180,2101031,11510919,0,0,2031131,1181091,10701109,10711909,4100201,30210209,20900609,4101181,0,0,0,41110519,30700219,31500309,20810719
19,292,1201.43364393152,0,0,727810.556048486,727811.603129393,0,50,13,1,0,18,20,99895367,184169267,158874485,76554277,10311509,0,10200019,42000009,2111181,4061030,31211619,0,0,31310819,41111109,10711719,21500019,1011161,3121001,31801809,41400519,-2201111,31710409,10011009,0,0,30200009,4040111,11300219,30411009,41201719,2070020,10910209,11101019,0,0,0,40911109,1061011,10500909
19,293,1255.0920189824,1,0,727813.991400203,727815.038474181,0,50,13,0,1,35,20,151746976,164115796,121696945,78602498,0,20601919,31211509,3101020,41701519,0,11110219,41910619,2110171,1090090,40111409,20201319,0,20610919,40800119,0,1000031,40301909,2081130,11800819,30800409,11112009,41311419,10801009,0,2180131,11610019,30200109,0,1160191,0,11900809,20810419,0,-4030151,10500819
19,294,505.248313769698,1,1,727817.309102393,727818.356159432,0,50,13,0,0,30,10,110475087,43963879,136276587,11271362,1121110,21111409,31211309,0,0,4110021,11411119,0,41510119,0,0,1161161,12000809,30801909,0,0,0,0,1150031,10511809,0,0,41811509,41501619,0,41301619,0,0,1070141,-2060040,0,4100181,0,0,4041000,0
19,295,684.643891872838,0,0,727819.885651405,727820.932684577,0,50,13,1,0,24,0,1081111,6392062,6261211,3111121,0,0,0,0,0,0,0,1081111,0,0,0,4110051,0,0,0,1181010,0,1101001,3080080,0,0,0,1181080,-2000051,0,0,0,0,0,0,0,3111121,0,0,0,0
19,296,1109.40336727072,1,0,727822.626830761,727823.673903198,0,50,13,0,1,7,0,10420411,0,6141250,6202271,0,0,0,0,0,2200120,-4140141,4080150,0,0,0,0,0,0,0,0,0,0,0,3030090,0,1110050,0,0,2001110,0,0,0,0,2191101,0,0,4011170,0,0,0
19,297,860.298020066693,0,0,727825.815106652,727826.862185249,0,50,13,1,0,31,0,6322361,0,10470441,5310170,0,0,3141180,0,0,3181181,0,0,0,0,0,0,0,0,0,0,0,0,0,4110110,0,3130201,0,0,2100030,0,1130100,0,0,0,-3190100,0,0,0,2120070,0
19,298,1166.91637132317,1,0,727828.756331357,727829.803408414,0,50,13,0,1,13,5,47694402,54571869,12901339,26071759,1161011,41401219,0,2031061,0,0,0,0,3101111,10500219,0,0,-2060030,0,41010519,1001101,0,0,0,0,0,1000130,11901209,0,0,0,0,0,0,0,0,21000509,3051200,2020050,0,0
19,299,749.316427391022,0,0,727832.168149935,727833.215218138,0,50,13,1,0,26,5,37450691,10572362,65123197,21931350,31410409,0,3000101,0,0,0,0,0,3040181,0,4171131,0,2070190,1140001,0,0,0,3191040,11510219,10312009,41300909,0,0,0,0,-2000060,0,0,0,20910309,1021041,0,0,0,0,0
19,300,804.328330443241,1,0,727835.038883781,727836.085858823,0,50,13,1,1,11,5,25631299,24172290,34592288,22221519,0,21510219,0,0,0,4121080,0,0,0,0,-2201021,20801109,0,0,1170160,0,0,0,20000219,0,0,0,0,11410909,0,3181160,0,2090030,11810319,0,2110000,0,4111060,0,0,2100110
19,301,577.308278530836,0,0,727838.027068898,727839.074131712,0,50,13,1,0,17,0,6261370,13203541,0,3241191,3061200,0,0,0,0,0,0,3200170,0,4041180,0,4160100,1001141,0,0,0,-4001120,0,0,0,0,0,0,0,0,0,0,0,0,0,2090041,1151150,0,0,0,0
19,302,963.489127694629,0,0,727840.79180988,727841.838890787,0,50,13,0,0,20,0,4261191,2071111,6352410,5321182,0,2091191,0,0,0,0,0,0,2170000,0,0,0,0,0,0,2071111,0,0,0,-1050190,4111110,0,1191110,0,0,0,0,2140091,0,0,0,0,0,3181091,0,0
19,303,481.797941494733,0,0,727843.968357121,727845.015396067,0,50,13,0,0,21,0,4010181,7381283,3101191,7281082,0,0,0,0,4010181,0,0,0,0,4140021,2190171,0,0,0,0,0,0,1051091,0,0,-2060170,0,0,0,1041021,0,0,0,3100041,0,0,0,0,0,4181041,0
19,304,1392.17791485135,1,0,727846.533082012,727847.580147905,0,50,13,0,1,19,5,66535298,41271620,7481281,36260580,20201609,0,21700619,0,0,20501919,0,4131151,0,1171111,0,0,0,0,0,40100509,0,0,-4190190,0,0,0,1180000,0,2111091,0,0,0,0,1090140,30010209,1090101,0,4070130,0,0
19,305,1761.94550527725,1,0,727850.074346521,727851.121382387,0,50,13,1,1,5,10,44071641,78306199,43823277,86136059,0,0,0,0,-2030131,0,40911409,0,1130101,1141020,2021121,30801419,11710909,0,0,0,1030021,31601709,0,0,0,21110119,10701609,1001130,0,0,11010419,0,0,20211919,0,1120071,20901219,2201041,41701809,0
19,306,932.047705166042,1,0,727853.980250921,727855.027320664,0,50,13,0,1,33,20,147124573,109303490,122064405,166586236,0,20600309,30100409,22011609,0,32000409,12000109,20111009,10300719,0,0,40000309,3060051,0,2181041,1050151,41901019,21110919,11311119,4141040,0,31100509,31401309,0,31010009,10910409,2190010,0,21802009,21601109,3131020,4150021,-4180040,40000109,31110109,40611819
19,307,737.310603726655,0,0,727857.109704937,727858.156786998,0,50,13,0,0,10,5,38204289,50832959,44090529,12941930,1010150,0,20301509,1160011,0,11711419,0,0,4021200,-4080100,40611609,0,0,0,0,2110050,4031200,0,0,0,0,0,0,0,0,40000419,4090110,0,0,10801919,2140011,0,0,0,0,0
19,308,1110.73880211916,1,0,727859.980349471,727861.027413055,0,50,13,1,1,3,10,49672511,119853816,78714237,42411418,0,0,-1090151,0,40410109,4101060,0,0,4071191,21601819,12000219,2060150,40110909,0,0,40910609,0,3170110,20711509,20110519,4010130,0,0,0,2080160,0,31801919,30610019,0,0,0,0,10710209,0,1091190,0
19,309,834.201416000724,1,0,727863.156860526,727864.203932194,0,50,13,0,1,4,10,56215070,87743659,135345967,49722999,31011509,0,0,-3151201,0,0,20001319,0,2051041,0,41001519,2030091,0,41511009,1011020,0,0,2190020,31212019,0,0,0,1021001,31810209,30101919,41200819,0,21310519,0,0,0,4181070,0,4131101,0,20100309
19,310,1625.70460187271,0,0,727866.086367743,727867.133395525,0,50,13,1,0,9,20,74193309,123978386,199369834,137896436,4200010,20800619,0,0,4010111,0,1181040,40000519,-4001010,11511619,0,40111009,11410909,21902009,11201619,21600009,2050011,4191201,11401709,1141041,0,10400009,41011309,40200709,21801419,31412019,42001619,2081071,0,40500809,32011909,0,0,11400819,41001819,10900009
19,311,932.245960808359,1,0,727869.862852774,727870.909918668,0,50,13,1,1,1,20,123284638,159447065,110184726,106564616,-3120120,2100001,0,0,20511319,41901209,20511009,31000819,4140161,30511019,3201181,11301819,31011309,30911709,31000019,0,21510009,0,0,4051151,21301419,0,0,11710419,21510609,41210519,10400609,20411209,31700809,3011050,10610619,4120171,21310309,11400419,4000030,0
19,312,547.863271203823,0,0,727873.004075862,727874.051189105,0,50,13,1,0,16,5,3172171,89026797,9542261,15511359,1011051,0,0,0,0,0,0,2161120,0,2011021,12010419,0,41611909,0,21411319,-1071110,10911019,0,0,0,0,0,0,1200091,4161040,0,4181130,0,11401209,4110150,0,0,0,0,0,0
19,313,1692.75543547701,1,0,727908.82814995,727909.875225852,0,50,14,1,1,26,5,37450691,10572362,65123197,21931350,31410409,0,3000101,0,0,0,0,0,3040181,0,4171131,0,2070190,1140001,0,0,0,3191040,11510219,10312009,41300909,0,0,0,0,-2000060,0,0,0,20910309,1021041,0,0,0,0,0
19,314,1245.56689325254,0,0,727912.722401537,727913.769396597,0,50,14,0,0,36,0,4131030,8261303,3311171,5111271,0,0,0,0,0,4131030,0,0,0,2020181,0,0,0,3040061,0,0,0,3201061,0,2121130,0,1190041,0,0,0,0,0,1021201,0,0,0,0,0,0,0,-4090070
19,315,737.814904423431,0,0,727916.192967693,727917.240065539,0,50,14,0,0,4,5,5251291,76573598,48863091,68214069,0,0,2100201,-3151090,0,0,0,0,0,31612009,0,3060170,0,0,41901419,0,0,0,3120071,41611809,0,0,0,1020131,0,0,3111080,4061061,3150070,0,20100919,0,0,0,0,40902019
19,316,1473.45850011334,0,0,727919.134188163,727920.181259831,0,50,14,0,0,35,10,78186577,51604748,27092620,72482347,32002009,2131190,0,0,31112019,0,10800209,0,2141150,0,10710319,0,3001200,4141131,0,10811019,20800909,2140170,0,0,0,0,4200131,0,2091180,20801309,0,0,0,10000019,20200119,0,41201109,0,-1081100,0
19,317,864.335506106727,0,0,727922.781305025,727923.828375923,0,50,14,0,0,20,20,187945623,156667285,122536268,111694539,0,41600119,42000919,12010219,0,40400819,20411919,11210909,20310719,0,1031111,21011909,20611219,31000109,0,10900519,41302009,30810409,3201171,-1151051,0,31300919,41112019,4170080,10300419,31300609,0,1120130,1130061,0,30701919,4190000,0,31700619,41800809,1051001
19,318,531.145507236943,1,0,727925.769588693,727926.816651892,0,50,14,0,1,7,20,160125576,159405625,116544247,158676695,41000019,0,21410709,0,40712009,40911409,-4191021,0,11900409,40210819,0,1051080,31810509,31101019,0,2020170,21600819,31611209,0,31910609,4190161,4180010,10401009,1020080,3121060,21210309,40511009,10711309,30910919,11800509,40100619,21210619,0,0,3041101,40901619
19,319,903.781837667339,0,0,727928.499036703,727929.54611453,0,50,14,1,0,24,0,1081111,6392062,6261211,3111121,0,0,0,0,0,0,0,1081111,0,0,0,4110051,0,0,0,1181010,0,1101001,3080080,0,0,0,1181080,-2000051,0,0,0,0,0,0,0,3111121,0,0,0,0
19,320,1337.27842092048,0,0,727931.487325376,727932.53438049,0,50,14,1,0,8,10,84004110,37765377,52002338,45542428,0,4191140,10401019,3161181,0,1160151,30900209,-3190091,31000319,2201090,11701119,0,0,0,10200209,1201180,2051170,10410609,0,0,40201819,0,0,0,11800519,0,0,0,0,3120010,0,11210609,0,0,0,31211809
19,321,1058.78850538284,0,0,727934.969724123,727936.016817734,0,50,14,1,0,1,20,123284638,159447065,110184726,106564616,-3120120,2100001,0,0,20511319,41901209,20511009,31000819,4140161,30511019,3201181,11301819,31011309,30911709,31000019,0,21510009,0,0,4051151,21301419,0,0,11710419,21510609,41210519,10400609,20411209,31700809,3011050,10610619,4120171,21310309,11400419,4000030,0
19,322,1193.68819938973,1,0,727938.263897024,727939.310972541,0,50,14,1,1,18,20,99895367,184169267,158874485,76554277,10311509,0,10200019,42000009,2111181,4061030,31211619,0,0,31310819,41111109,10711719,21500019,1011161,3121001,31801809,41400519,-2201111,31710409,10011009,0,0,30200009,4040111,11300219,30411009,41201719,2070020,10910209,11101019,0,0,0,40911109,1061011,10500909
19,323,639.943977817893,0,0,727941.569816668,727942.61689411,0,50,14,0,0,21,0,2181110,6240161,10200452,3221222,0,0,0,2181110,0,0,0,0,0,0,3120030,0,3120131,0,0,0,0,0,0,0,-3000171,0,0,0,3040170,4160111,0,0,0,0,0,0,1030061,2191161,0,0
19,324,550.288919592276,1,0,727944.299281616,727945.346365988,0,50,14,0,1,30,0,3040151,5141230,12463451,4130190,0,0,0,0,0,0,0,0,3040151,0,0,0,0,0,0,0,1051060,4090170,0,0,0,0,0,2140130,3031001,4111160,3181160,0,0,-4130190,0,0,0,0,0,0
19,325,761.750714271329,1,0,727946.969909675,727948.016980188,0,50,14,1,1,9,20,74193309,123978386,199369834,137896436,4200010,20800619,0,0,4010111,0,1181040,40000519,-4001010,11511619,0,40111009,11410909,21902009,11201619,21600009,2050011,4191201,11401709,1141041,0,10400009,41011309,40200709,21801419,31412019,42001619,2081071,0,40500809,32011909,0,0,11400819,41001819,10900009
19,326,692.255369271152,1,0,727949.793481387,727950.84055498,0,50,14,1,1,11,5,25631299,24172290,34592288,22221519,0,21510219,0,0,0,4121080,0,0,0,0,-2201021,20801109,0,0,1170160,0,0,0,20000219,0,0,0,0,11410909,0,3181160,0,2090030,11810319,0,2110000,0,4111060,0,0,2100110
19,327,1270.69685654715,1,0,727952.581750504,727953.628852198,0,50,14,0,1,13,10,108374395,47261650,20292849,87803688,10500019,20910009,0,2131020,30401219,0,31410419,2011200,11010509,0,3030010,0,-4021121,0,40210519,0,0,0,0,0,0,0,2001200,4130050,3050190,0,11111409,0,11401209,0,0,0,3000161,31501709,0,41900609
19,328,470.713332877494,1,0,727956.087693169,727957.134779465,0,50,14,1,1,17,0,6261370,13203541,0,3241191,3061200,0,0,0,0,0,0,3200170,0,4041180,0,4160100,1001141,0,0,0,-4001120,0,0,0,0,0,0,0,0,0,0,0,0,0,2090041,1151150,0,0,0,0
19,329,848.208659444936,0,0,727958.652446547,727959.699505895,0,50,14,1,0,31,0,6322361,0,10470441,5310170,0,0,3141180,0,0,3181181,0,0,0,0,0,0,0,0,0,0,0,0,0,4110110,0,3130201,0,0,2100030,0,1130100,0,0,0,-3190100,0,0,0,2120070,0
19,330,2116.28457100596,0,0,727961.758367038,727962.805439476,0,50,14,0,0,6,10,75403949,71023598,35163119,82621257,2140091,3040020,3090020,20801509,0,-4010181,10910609,31411519,0,0,0,0,0,3161081,4140170,11500709,30310719,21910919,0,3011200,0,30111819,2040100,0,0,0,0,0,30910119,0,30500919,0,21210219,0,0,0
19,331,941.094707581215,1,0,727965.95842509,727967.005507537,0,50,14,0,1,19,5,1031001,10362332,87354518,66231579,1031001,0,0,0,0,0,0,0,0,0,4061071,3151030,0,0,2020130,0,0,1130101,-4140181,32001809,20101519,0,0,0,0,0,31111009,0,0,4180031,1030110,40810419,20211019,0,0,0
19,332,426.07693769969,1,0,727968.958482835,727970.005556042,0,50,14,1,1,16,5,3172171,89026797,9542261,15511359,1011051,0,0,0,0,0,0,2161120,0,2011021,12010419,0,41611909,0,21411319,-1071110,10911019,0,0,0,0,0,0,1200091,4161040,0,4181130,0,11401209,4110150,0,0,0,0,0,0
19,333,704.016356845386,1,0,727971.605611631,727972.652661356,0,50,14,0,1,10,20,65833996,93937989,150838625,180978275,0,2010040,0,20411009,10700019,11812009,20900919,0,0,-1081190,3021141,3070190,31311619,0,11101009,0,40311719,4041121,30201809,0,0,41402009,11510509,11610309,20101119,31901819,4111051,20410019,31111119,21301919,40911709,11811619,30400419,3201011,1030151,20800309
19,334,868.295614724047,0,0,727974.523270089,727975.570339832,0,50,14,1,0,5,10,44071641,78306199,43823277,86136059,0,0,0,0,-2030131,0,40911409,0,1130101,1141020,2021121,30801419,11710909,0,0,0,1030021,31601709,0,0,0,21110119,10701609,1001130,0,0,11010419,0,0,20211919,0,1120071,20901219,2201041,41701809,0
19,335,565.965745016001,0,0,727977.523320904,727978.570384488,0,50,14,1,0,3,10,49672511,119853816,78714237,42411418,0,0,-1090151,0,40410109,4101060,0,0,4071191,21601819,12000219,2060150,40110909,0,0,40910609,0,3170110,20711509,20110519,4010130,0,0,0,2080160,0,31801919,30610019,0,0,0,0,10710209,0,1091190,0
19,336,1100.4037152743,1,0,727980.193932409,727981.241018706,0,50,14,0,1,33,5,34880850,31602860,42102128,17544029,0,0,0,30710709,0,0,0,4170141,0,0,20310509,3041110,0,0,4110041,2081150,2060050,0,0,0,0,0,20501619,0,21600509,0,0,0,0,2121140,0,0,-2201060,11100719,0,2121110
19,337,889.757270924747,1,0,727987.323516927,727988.370543939,0,50,15,1,1,9,20,74193309,123978386,199369834,137896436,4200010,20800619,0,0,4010111,0,1181040,40000519,-4001010,11511619,0,40111009,11410909,21902009,11201619,21600009,2050011,4191201,11401709,1141041,0,10400009,41011309,40200709,21801419,31412019,42001619,2081071,0,40500809,32011909,0,0,11400819,41001819,10900009
