sub_id,Trial,RT,Resp,Error,Fix_onset,Disp_onset,q1,q2,block,repeat,tid,tloc,d_setsize,quad1,quad2,quad3,quad4,loc1,loc2,loc3,loc4,loc5,loc6,loc7,loc8,loc9,loc10,loc11,loc12,loc13,loc14,loc15,loc16,loc17,loc18,loc19,loc20,loc21,loc22,loc23,loc24,loc25,loc26,loc27,loc28,loc29,loc30,loc31,loc32,loc33,loc34,loc35,loc36
16,1,1902.81218558084,1,0,719729.723783099,719730.770869395,0,15,1,0,1,35,5,42321250,90845530,14100889,7501143,0,0,0,0,41210209,0,0,1111041,0,4001081,1161181,11310709,0,0,0,30501509,41801019,2070031,0,0,12010819,0,2090070,0,0,0,0,0,0,0,0,0,3120071,0,-3181001,1200071
16,2,1301.19903897867,0,0,719733.770951777,719734.817996882,0,15,1,1,0,33,20,167497845,187847874,82381740,158576207,21100809,40200319,30112019,21411509,0,2130070,30000219,20501709,2041191,0,0,41311909,41700319,2021190,10800809,41001419,10010219,41002009,0,4190191,0,41800709,1120051,10910209,4060161,0,20300419,0,40700919,1051091,31001619,21511219,-2100021,41410019,0,20801319
16,3,1311.52373168152,0,0,719737.194506705,719738.241566824,0,15,1,1,0,31,5,4080141,86092958,39522708,38391781,0,0,0,0,4080141,0,0,0,0,40111619,0,41801309,0,0,0,4180030,0,0,0,10610719,0,4011130,21800819,0,3100040,0,0,2100100,0,0,-3041151,0,1070110,0,30110319,2070101
16,4,1038.79708901513,0,0,719740.759273941,719741.806343684,0,15,1,1,0,17,20,139993047,160926946,172254584,161297165,0,32000709,2050020,3120081,0,21401119,0,41111109,40310009,41010919,0,21200219,3191030,30301409,41901619,0,-2110141,21211609,31900519,0,11500919,4120130,4030160,30301709,20300319,30000519,40100309,4101030,31700109,1080170,30001509,21611319,0,31301219,0,41501809
16,5,844.378736335784,0,0,719743.982859358,719745.029920247,0,15,1,1,0,16,20,85506299,201058696,190506553,142675128,0,31701119,1181051,30101509,20401509,0,0,2121111,0,30901009,0,21501919,41700819,20411419,41001609,-4100011,40311909,1130001,21200909,10710409,0,21500619,41010119,4170160,20411309,41001809,30501219,20801809,32001219,0,40610409,2150001,4150151,41810519,1151020,0
16,6,816.329217981547,0,0,719746.994700803,719748.041740134,0,15,1,0,0,22,20,179577494,87684496,88675564,67415568,40101219,1131171,2201030,11310409,20510219,31510009,41001409,20911919,10900109,2060040,21200409,0,21801919,10410319,30100719,0,0,2111090,10411709,10900919,10710509,-2060170,11800709,10410719,0,31200809,1180020,0,21511819,0,0,11510709,0,2171131,1121190,31100719
16,7,1737.27217572741,1,0,719750.04177555,719751.088851068,0,15,1,0,1,6,20,83245397,150547854,122115447,118257068,0,0,3010081,10800819,11500919,-4100131,10210419,31611719,12011309,1020060,11211209,21000219,41501219,21811409,2200020,0,20001709,31802009,0,20010409,0,4141141,3040151,21100109,30310709,22001209,21511719,0,30302009,21010719,4011101,0,41812009,0,20111219,1010011
16,8,1169.09417218994,0,0,719753.935943985,719754.983009494,0,15,1,1,0,36,0,5141100,2181222,8260182,6062290,0,3101010,0,0,0,0,2040090,0,0,0,1011101,0,0,0,0,0,0,1170121,0,0,4100151,4160031,0,0,0,0,0,0,0,3031110,0,0,0,0,0,-3031180
16,9,989.469156367704,0,0,719757.265420637,719758.312499619,0,15,1,0,0,29,10,73054608,56453360,57112400,87106437,0,0,11511109,30410609,30011819,1121071,0,0,0,0,31500819,0,1081111,0,20600119,0,2100190,1171121,1201021,0,0,0,2070140,31310209,0,1120021,21411009,0,-4201200,0,0,30601809,0,41801909,10501519,0
16,10,2860.3981785709,0,0,719760.41841626,719761.465482154,0,15,1,0,0,10,0,5260040,9353353,4161071,2161131,0,0,0,0,0,0,1180030,4080010,0,-3041040,0,0,1130001,0,1151121,0,0,4031191,0,0,0,0,0,0,0,4161071,0,2161131,0,0,0,0,0,0,0,0
16,11,910.857900627889,1,0,719765.394973202,719766.442097995,0,15,1,1,1,32,0,3171081,4120110,8382172,7381332,0,0,0,0,0,0,0,0,3171081,0,4120110,0,0,0,0,0,0,0,0,0,0,4080131,0,3171000,0,1131041,0,0,2151021,0,3110200,-2120111,0,0,0,0
16,12,582.760954857804,1,0,719768.430302361,719769.477373258,0,15,1,1,1,26,10,34413548,81391459,84022869,137136126,20310409,0,0,0,2051130,10911909,1140100,0,0,4120030,0,2110191,40701119,31400119,0,3060000,0,0,40300519,0,0,1201121,0,0,0,-2020110,40501119,30811709,0,31201219,0,0,3121180,0,40301409,31700609
16,13,685.646787285805,1,0,719771.089168662,719772.136247259,0,15,1,1,1,27,5,34020970,41100709,12321362,66814157,0,3000140,0,0,30000709,0,0,1020121,0,0,0,0,0,0,0,41100709,0,0,0,0,1050111,1170090,2020000,4080160,0,0,-4001001,0,0,0,11502009,4200010,40101219,0,11010919,0
16,14,1248.01686254796,1,0,719773.912739989,719774.959821666,0,15,1,0,1,8,10,86914657,165166435,24971171,26474291,0,20911719,0,0,0,0,20800909,-4090110,41111919,10911419,3170140,4120100,3141120,20700409,0,41011219,42000009,40112019,0,0,0,2090011,2170151,0,0,0,20711009,3151201,0,0,0,21201919,0,0,2121171,0
16,15,525.551686179824,1,0,719777.383392377,719778.43046135,0,15,1,0,1,15,0,1160191,15472344,3010140,5130240,0,0,1160191,0,0,0,0,0,0,0,4151081,4070011,0,0,-4080191,0,3171061,0,3010140,0,0,0,0,0,0,0,0,0,0,0,0,4090100,1040140,0,0,0
16,16,760.50196448341,1,0,719779.995191245,719781.042277541,0,15,1,0,1,14,10,46981940,80564178,108983638,48624879,0,3180111,0,0,11310319,0,1181091,0,31310419,0,2011070,11900419,0,-4060191,31301319,0,30200119,1091060,41600619,0,32011819,4061191,31310009,0,0,0,0,2120171,0,11901809,0,0,3101080,31501819,0,0
16,17,920.603609876707,1,0,719782.948199265,719783.995262463,0,15,1,1,1,9,10,25803680,78553087,113232156,41254350,0,20411319,0,3160140,1041090,0,0,0,-1191131,0,11701309,31811019,0,0,0,30900609,4140150,0,0,40300109,0,0,21510209,31311719,0,0,20110119,1011191,3091160,0,1010170,3130091,0,21900319,0,11111419
16,18,1670.37301731762,0,0,719786.030587002,719787.077662519,0,15,1,1,0,25,10,11602019,67164048,48483461,191226467,11602019,0,0,0,0,0,0,0,0,0,0,21700519,10201909,0,1060000,4201001,30000619,0,3100090,0,1011101,0,0,40100919,-3131170,0,1140181,40310909,41100209,31410119,30111909,41902009,0,0,2201201,4190111
16,19,1739.13077439647,0,0,719789.877711102,719790.924780459,0,15,1,1,0,1,0,4150171,12213152,8430083,0,-4150171,0,0,0,0,0,0,0,0,0,0,4021020,0,0,3140071,4021030,0,1031031,4160041,3200001,1070041,0,0,0,0,0,0,0,0,0,0,0,0,0,0,0
16,20,1253.25235165656,1,0,719793.689528371,719794.736604658,0,15,1,0,1,5,5,42392341,24022201,6431272,84552538,1010041,0,0,40201119,-1181181,0,0,0,0,1150101,21801919,1070181,0,0,0,0,0,0,0,3140071,0,0,0,1130031,2161170,0,0,0,31710409,21310009,30501119,0,1031001,0,0,0
16,21,720.839283894748,0,0,719797.019046213,719798.066079384,0,15,1,1,0,12,5,11941890,5180181,19001271,60283448,0,1130071,0,0,0,10811819,0,0,0,0,2000040,-3180141,0,0,0,0,0,0,11700009,0,0,0,0,2031080,1070101,0,4200081,0,4201080,0,0,11400709,10700509,2070141,31911009,0
16,22,679.319159593433,1,0,719799.995522313,719801.042590516,0,15,1,0,1,18,20,132648838,159787517,139808209,127436693,12011609,31901409,0,0,3181151,41812009,3131151,40611509,0,40301319,40912009,41300909,0,3181051,21210709,10811409,0,-2070111,31310809,40710309,41301719,4081041,10101119,4131060,4041131,4131021,0,30810409,0,21100319,10701909,0,11911009,11901009,10701219,30310819
16,23,907.848264323547,1,0,719802.925019906,719803.972049228,0,15,1,0,1,19,5,38610700,43340459,6141100,81953978,11600409,0,21910019,0,3090151,0,0,0,2010121,3140040,0,40200419,0,0,0,0,0,0,-2091070,4050030,0,0,0,0,0,0,0,0,0,4091080,31701319,0,41901309,2110080,2150190,0
16,24,726.561750634573,0,0,719805.937066921,719806.983849867,0,15,1,0,0,23,0,10340331,4141021,6102231,5220121,0,4150131,0,0,0,0,3080110,3110090,0,0,0,0,0,0,0,0,4141021,0,0,0,0,0,-3061180,0,3041051,0,0,0,0,0,2120030,0,3100091,0,0,0
16,25,825.779275968671,0,0,719816.431070361,719817.478155502,0,15,2,0,0,19,10,58735140,65014567,64741688,108896099,2170151,22001719,30412009,0,3050080,1101181,0,0,0,0,0,10311209,2201120,30701219,0,0,21801019,0,-3130050,0,30401019,31210619,0,0,0,0,0,2041001,20711309,2131151,41501119,0,41401409,0,1110110,0
16,26,1023.34662131034,1,0,719819.431123486,719820.478195923,0,15,2,1,1,32,0,3171081,4120110,8382172,7381332,0,0,0,0,0,0,0,0,3171081,0,4120110,0,0,0,0,0,0,0,0,0,0,4080131,0,3171000,0,1131041,0,0,2151021,0,3110200,-2120111,0,0,0,0
16,27,714.335343334824,1,0,719822.572138281,719823.61942594,0,15,2,0,1,14,5,3140131,44792390,97405047,7332262,0,0,0,0,0,3140131,0,0,0,2201101,0,0,0,-1091070,0,0,0,41500219,1100030,41010309,21601219,0,20312009,0,11201309,0,2180171,0,4170131,0,2131001,0,0,1031130,0,0
16,28,511.704972130246,0,0,719825.501872268,719826.548886962,0,15,2,1,0,16,20,85506299,201058696,190506553,142675128,0,31701119,1181051,30101509,20401509,0,0,2121111,0,30901009,0,21501919,41700819,20411419,41001609,-4100011,40311909,1130001,21200909,10710409,0,21500619,41010119,4170160,20411309,41001809,30501219,20801809,32001219,0,40610409,2150001,4150151,41810519,1151020,0
16,29,1341.39527741354,1,0,719828.184207035,719829.231278703,0,15,2,0,1,18,0,2191302,6233082,5151181,2030050,0,1060131,0,0,0,0,0,0,1131171,0,1081001,0,1011071,0,0,0,0,-4141010,0,0,1110161,0,0,0,4041020,0,0,0,0,0,2030050,0,0,0,0,0
16,30,787.785407621413,1,0,719831.760735644,719832.807794223,0,15,2,1,1,17,20,139993047,160926946,172254584,161297165,0,32000709,2050020,3120081,0,21401119,0,41111109,40310009,41010919,0,21200219,3191030,30301409,41901619,0,-2110141,21211609,31900519,0,11500919,4120130,4030160,30301709,20300319,30000519,40100309,4101030,31700109,1080170,30001509,21611319,0,31301219,0,41501809
16,31,1038.00252650399,1,0,719834.631719715,719835.678436448,0,15,2,1,1,27,5,34020970,41100709,12321362,66814157,0,3000140,0,0,30000709,0,0,1020121,0,0,0,0,0,0,0,41100709,0,0,0,0,1050111,1170090,2020000,4080160,0,0,-4001001,0,0,0,11502009,4200010,40101219,0,11010919,0
16,32,675.585793796927,1,0,719837.913774383,719838.960851825,0,15,2,0,1,15,20,158125923,65697250,149836874,115414908,0,0,31400219,10510619,20200509,32000819,11402019,41001119,11610619,20901609,20700119,2141091,0,3071180,-4151161,11602019,3130071,0,0,0,30611119,10110609,4191090,40601309,11211419,21510509,31600819,0,0,4030030,31502019,11800619,30612019,4170051,3090151,30210019
16,33,1037.99675207119,0,0,719840.678530763,719841.725600506,0,15,2,0,0,8,10,110001968,37162528,105105587,49064551,0,0,21500119,2190181,0,41900509,0,-4201050,40210109,0,0,0,3180110,0,11100219,2181080,20701119,0,40811009,10211309,20800709,0,31101509,0,0,0,2181051,4121001,0,2161010,40701519,0,0,0,0,2081021
16,34,1448.11572087929,1,0,719843.84328622,719844.890343644,0,15,2,0,1,6,20,92016680,129695456,199477095,148428124,30701609,0,2051181,41701609,0,-3190080,10010019,3161131,1201051,20500709,1010131,42010119,0,11911719,41400319,0,1061050,11801409,0,31001109,40501509,30411319,4040201,0,41001519,41311319,11210119,11610409,30600809,10401319,20511319,41611309,31501819,0,0,2191140
16,35,1783.43417716678,1,0,719847.466878027,719848.513939686,0,15,2,0,1,23,5,73742039,35641480,7581534,56412028,0,30010819,0,0,0,0,0,41711119,2020101,1040051,0,0,4101120,0,0,30500309,0,0,0,3180191,1130081,0,-1181201,0,0,0,2090061,0,31601019,20710009,0,0,0,0,0,4101000
16,36,1039.05539878178,0,0,719851.396374081,719852.44342496,0,15,2,0,0,29,10,44631789,158456935,48002520,50054870,0,40501709,0,0,0,0,0,0,4130080,0,21900419,11212019,40000409,40301309,4131170,0,40911609,0,1050011,21200809,0,4140081,0,0,0,0,21611619,0,-1140191,3140110,30711709,0,0,1131181,3021170,10910509
16,37,1423.18016360514,1,0,719854.502284178,719855.549345067,0,15,2,1,1,25,10,11602019,67164048,48483461,191226467,11602019,0,0,0,0,0,0,0,0,0,0,21700519,10201909,0,1060000,4201001,30000619,0,3100090,0,1011101,0,0,40100919,-3131170,0,1140181,40310909,41100209,31410119,30111909,41902009,0,0,2201201,4190111
16,38,1024.3063326925,0,0,719858.008208365,719859.055290812,0,15,2,1,0,36,0,5141100,2181222,8260182,6062290,0,3101010,0,0,0,0,2040090,0,0,0,1011101,0,0,0,0,0,0,1170121,0,0,4100151,4160031,0,0,0,0,0,0,0,3031110,0,0,0,0,0,-3031180
16,39,600.287524983287,0,0,719861.114145795,719862.161219387,0,15,2,1,0,9,10,25803680,78553087,113232156,41254350,0,20411319,0,3160140,1041090,0,0,0,-1191131,0,11701309,31811019,0,0,0,30900609,4140150,0,0,40300109,0,0,21510209,31311719,0,0,20110119,1011191,3091160,0,1010170,3130091,0,21900319,0,11111419
16,40,1053.68397152051,0,0,719863.937729441,719864.984801109,0,15,2,1,0,1,0,4150171,12213152,8430083,0,-4150171,0,0,0,0,0,0,0,0,0,0,4021020,0,0,3140071,4021030,0,1031031,4160041,3200001,1070041,0,0,0,0,0,0,0,0,0,0,0,0,0,0,0
16,41,1616.95447389502,1,0,719867.243666409,719868.290735767,0,15,2,1,1,12,5,11941890,5180181,19001271,60283448,0,1130071,0,0,0,10811819,0,0,0,0,2000040,-3180141,0,0,0,0,0,0,11700009,0,0,0,0,2031080,1070101,0,4200081,0,4201080,0,0,11400709,10700509,2070141,31911009,0
16,42,1082.18466606922,0,0,719871.020185702,719872.067263529,0,15,2,0,0,22,0,8490463,0,7111220,9431402,3160121,0,1190191,0,0,0,0,4140151,0,0,0,0,0,0,0,0,0,0,0,0,0,-3071030,0,4040190,0,0,0,0,0,1120170,0,4170071,0,0,0,4141161
16,43,855.879874317907,0,0,719874.314370921,719875.361449903,0,15,2,1,0,31,5,4080141,86092958,39522708,38391781,0,0,0,0,4080141,0,0,0,0,40111619,0,41801309,0,0,0,4180030,0,0,0,10610719,0,4011130,21800819,0,3100040,0,0,2100100,0,0,-3041151,0,1070110,0,30110319,2070101
16,44,1270.70577896666,1,0,719877.255587926,719878.302656899,0,15,2,0,1,10,20,107856739,229436454,121705075,152657736,0,40811709,0,1050141,1021070,41801819,2160181,0,21011819,-4090061,20410819,40010509,0,40411309,30500709,21901219,41000309,31111519,31400919,0,0,3020040,21001819,20500109,21900419,20800709,3081060,20911709,40401909,0,3040000,0,31300419,4001061,31401119,21601519
16,45,1470.75728687923,0,0,719880.714470087,719881.761533286,0,15,2,0,0,35,0,5341111,6172071,7391211,1100061,0,0,0,0,3181030,0,0,0,2160081,0,2151000,0,0,0,0,0,0,4021071,0,0,0,0,0,3190130,3131040,0,1070041,0,0,0,0,0,0,0,-1100061,0
16,46,2003.640778712,0,0,719884.314544154,719885.361599653,0,15,2,1,0,33,20,167497845,187847874,82381740,158576207,21100809,40200319,30112019,21411509,0,2130070,30000219,20501709,2041191,0,0,41311909,41700319,2021190,10800809,41001419,10010219,41002009,0,4190191,0,41800709,1120051,10910209,4060161,0,20300419,0,40700919,1051091,31001619,21511219,-2100021,41410019,0,20801319
16,47,1452.90734840091,0,0,719888.526363194,719889.573484907,0,15,2,0,0,5,5,34610750,12312170,63622019,53702768,0,0,0,0,-2190040,0,1120201,31300509,0,0,1100030,0,4111050,0,0,3021080,4080010,0,1011081,0,0,0,0,30610319,0,32000619,0,0,0,0,0,0,2090130,0,21510919,30101719
16,48,1657.40748227108,1,0,719892.067579198,719893.11466049,0,15,2,1,1,26,10,34413548,81391459,84022869,137136126,20310409,0,0,0,2051130,10911909,1140100,0,0,4120030,0,2110191,40701119,31400119,0,3060000,0,0,40300519,0,0,1201121,0,0,0,-2020110,40501119,30811709,0,31201219,0,0,3121180,0,40301409,31700609
16,49,1556.62123498041,0,0,719899.38535915,719900.432426583,0,15,3,0,0,18,20,112065255,146497015,144697926,111013146,0,41501019,10010219,20501809,4170180,20801319,0,11910709,3170000,21611819,40001619,0,20101609,0,31401519,31300309,0,-2080140,20701419,10012009,4050120,3120181,22000809,40900909,2100051,30201209,11611219,0,0,31810209,10010409,31110609,0,3020130,3160080,31901709
16,50,1043.51557360496,0,0,719903.020702321,719904.067778994,0,15,3,1,0,32,0,3171081,4120110,8382172,7381332,0,0,0,0,0,0,0,0,3171081,0,4120110,0,0,0,0,0,0,0,0,0,0,4080131,0,3171000,0,1131041,0,0,2151021,0,3110200,-2120111,0,0,0,0
16,51,1067.21809622832,0,0,719906.267824342,719907.31489524,0,15,3,1,0,12,5,11941890,5180181,19001271,60283448,0,1130071,0,0,0,10811819,0,0,0,0,2000040,-3180141,0,0,0,0,0,0,11700009,0,0,0,0,2031080,1070101,0,4200081,0,4201080,0,0,11400709,10700509,2070141,31911009,0
16,52,674.451694590971,0,0,719909.432575949,719910.479646077,0,15,3,1,0,27,5,34020970,41100709,12321362,66814157,0,3000140,0,0,30000709,0,0,1020121,0,0,0,0,0,0,0,41100709,0,0,0,0,1050111,1170090,2020000,4080160,0,0,-4001001,0,0,0,11502009,4200010,40101219,0,11010919,0
16,53,835.869141621515,0,0,719912.30321317,719913.350328338,0,15,3,1,0,25,10,11602019,67164048,48483461,191226467,11602019,0,0,0,0,0,0,0,0,0,0,21700519,10201909,0,1060000,4201001,30000619,0,3100090,0,1011101,0,0,40100919,-3131170,0,1140181,40310909,41100209,31410119,30111909,41902009,0,0,2201201,4190111
16,54,1773.57605891302,1,0,719915.350334112,719916.397386147,0,15,3,1,1,9,10,25803680,78553087,113232156,41254350,0,20411319,0,3160140,1041090,0,0,0,-1191131,0,11701309,31811019,0,0,0,30900609,4140150,0,0,40300109,0,0,21510209,31311719,0,0,20110119,1011191,3091160,0,1010170,3130091,0,21900319,0,11111419
16,55,728.520439472049,0,0,719919.173916604,719920.220980957,0,15,3,0,0,23,5,75314898,45781560,9400281,13300120,0,0,0,31212009,2191151,11211019,0,30700719,0,0,3140130,0,2030021,0,0,0,40611409,0,0,0,3070000,0,-4180100,0,0,0,2150181,0,1010020,0,0,0,11210009,0,0,1080091
16,56,1199.95468645357,1,0,719922.126886127,719923.173970883,0,15,3,0,1,8,0,3281101,7021300,7393352,0,0,0,0,1180011,0,0,0,-2101090,0,3000150,0,0,0,4021150,0,0,0,0,0,0,1161160,0,0,0,2101041,2080081,2051070,0,0,0,0,0,0,0,0,0
16,57,530.431085149758,0,0,719925.491671919,719926.538733577,0,15,3,0,0,10,0,2181251,4311122,2160140,6141333,0,0,0,0,1071091,0,0,1110160,0,-3190001,0,0,0,0,0,0,0,1121121,0,0,0,2160140,0,0,0,0,0,0,0,0,0,4011141,1000111,0,1130081,0
16,58,1393.87412753422,0,0,719928.162289198,719929.209365485,0,15,3,0,0,19,20,107985176,219918004,132109528,89715128,11310119,0,30810019,4030091,20411919,31111409,0,10311619,0,10710209,41101519,4071201,40310319,21011619,42011209,20400509,0,40301419,-3181111,2061040,10400019,40001619,40201509,1050071,12011909,21001219,2201031,3121131,3071150,0,31410609,31100919,21011319,0,0,0
16,59,1542.44306823239,0,0,719931.703530994,719932.750591498,0,15,3,0,0,29,5,90892119,48691910,36163099,42221030,0,3110051,0,41900709,0,0,0,41711309,4170050,4180160,1200071,0,0,0,0,2100060,0,41211619,0,0,32011909,0,0,3020140,0,0,1131050,0,-2111021,40110009,0,0,0,0,0,0
16,60,500.45444467105,1,0,719935.36240692,719936.409483207,0,15,3,1,1,16,20,85506299,201058696,190506553,142675128,0,31701119,1181051,30101509,20401509,0,0,2121111,0,30901009,0,21501919,41700819,20411419,41001609,-4100011,40311909,1130001,21200909,10710409,0,21500619,41010119,4170160,20411309,41001809,30501219,20801809,32001219,0,40610409,2150001,4150151,41810519,1151020,0
16,61,1605.19194649532,1,0,719938.056572352,719939.103636705,0,15,3,1,1,33,20,167497845,187847874,82381740,158576207,21100809,40200319,30112019,21411509,0,2130070,30000219,20501709,2041191,0,0,41311909,41700319,2021190,10800809,41001419,10010219,41002009,0,4190191,0,41800709,1120051,10910209,4060161,0,20300419,0,40700919,1051091,31001619,21511219,-2100021,41410019,0,20801319
16,62,895.087144337595,1,0,719941.891931999,719942.938982494,0,15,3,1,1,36,0,5141100,2181222,8260182,6062290,0,3101010,0,0,0,0,2040090,0,0,0,1011101,0,0,0,0,0,0,1170121,0,0,4100151,4160031,0,0,0,0,0,0,0,3031110,0,0,0,0,0,-3031180
16,63,1454.62274109013,1,0,719944.974324356,719946.021403723,0,15,3,1,1,1,0,4150171,12213152,8430083,0,-4150171,0,0,0,0,0,0,0,0,0,0,4021020,0,0,3140071,4021030,0,1031031,4160041,3200001,1070041,0,0,0,0,0,0,0,0,0,0,0,0,0,0,0
16,64,1960.77059127856,1,0,719948.539098907,719949.586160565,0,15,3,1,1,17,20,139993047,160926946,172254584,161297165,0,32000709,2050020,3120081,0,21401119,0,41111109,40310009,41010919,0,21200219,3191030,30301409,41901619,0,-2110141,21211609,31900519,0,11500919,4120130,4030160,30301709,20300319,30000519,40100309,4101030,31700109,1080170,30001509,21611319,0,31301219,0,41501809
16,65,521.609285846353,1,0,719952.6920953,719953.739163888,0,15,3,0,1,15,5,3090080,47983031,29534440,58402519,0,0,0,0,0,0,3090080,0,0,0,0,0,0,40710819,-3071011,0,4201201,0,0,0,2000101,4090191,0,12001719,0,10311309,1131120,0,0,0,1100090,31610819,21601609,4090001,0,0
16,66,722.403386374936,1,0,719955.421553704,719956.468628837,0,15,3,0,1,14,10,79252359,38734799,70064489,65824337,30400009,3200101,0,21310519,0,20311709,0,4030021,0,0,4081021,0,2050110,-1081140,0,20511409,11011119,0,0,0,3061131,0,0,41510619,21411709,0,4081030,3121000,0,0,0,21401509,21100509,0,20201319,0
16,67,892.791228252463,0,0,719958.209834754,719959.256946073,0,15,3,1,0,31,5,4080141,86092958,39522708,38391781,0,0,0,0,4080141,0,0,0,0,40111619,0,41801309,0,0,0,4180030,0,0,0,10610719,0,4011130,21800819,0,3100040,0,0,2100100,0,0,-3041151,0,1070110,0,30110319,2070101
16,68,1394.72104504239,0,0,719961.304010042,719962.351071315,0,15,3,0,0,5,10,75394847,117064808,45962539,79745617,20401709,0,30811109,0,-3080110,21101919,0,0,0,2030200,30210409,0,40001219,0,2031160,0,40701619,2090201,1070120,0,0,0,0,0,3081100,0,41811319,0,31601309,4011030,0,10211119,3021040,30901119,0,0
16,69,1192.30124808382,1,0,719964.833463903,719965.880542885,0,15,3,0,1,6,20,111303259,141393116,175736243,142986497,0,20511419,0,0,2070150,-1010101,41810219,4001061,41900309,32000319,10401709,31300109,0,0,3020071,40510619,21010209,3150080,40012019,11100219,0,20010819,30500419,31301919,21510209,1090120,20210519,0,0,31010719,3121181,31811909,10411919,31600709,3120051,31910009
16,70,717.606754275039,1,0,719968.210009912,719969.257065412,0,15,3,1,1,26,10,34413548,81391459,84022869,137136126,20310409,0,0,0,2051130,10911909,1140100,0,0,4120030,0,2110191,40701119,31400119,0,3060000,0,0,40300519,0,0,1201121,0,0,0,-2020110,40501119,30811709,0,31201219,0,0,3121180,0,40301409,31700609
16,71,534.438159200363,0,0,719971.057097826,719972.104177577,0,15,3,0,0,22,0,2090061,10252220,4231131,3310212,0,0,0,0,0,2090061,0,0,0,0,3030060,3041040,0,0,0,4181120,0,0,0,0,0,-3031121,0,0,0,1200010,0,0,1120051,0,0,0,0,2190161,0,0
16,72,1004.13314567413,1,0,719973.680693098,719974.727744362,0,15,3,0,1,35,10,68554508,84033148,99055166,75163789,1121020,2201120,30601709,0,0,0,3030050,31600609,0,41201009,0,0,1030120,0,0,0,0,41802019,4131030,0,10200709,40110819,31211909,0,10300619,0,3100080,0,2001011,0,0,31501319,0,0,-1050140,40611319
16,73,643.774037482217,1,1,719979.821939668,719980.869015955,0,15,4,1,0,36,0,5141100,2181222,8260182,6062290,0,3101010,0,0,0,0,2040090,0,0,0,1011101,0,0,0,0,0,0,1170121,0,0,4100151,4160031,0,0,0,0,0,0,0,3031110,0,0,0,0,0,-3031180
16,74,1534.34499830473,0,0,719982.56315059,719983.610229957,0,15,4,1,0,33,20,167497845,187847874,82381740,158576207,21100809,40200319,30112019,21411509,0,2130070,30000219,20501709,2041191,0,0,41311909,41700319,2021190,10800809,41001419,10010219,41002009,0,4190191,0,41800709,1120051,10910209,4060161,0,20300419,0,40700919,1051091,31001619,21511219,-2100021,41410019,0,20801319
16,75,873.271707561798,1,0,719986.2102867,719987.257354904,0,15,4,0,1,22,0,2161201,1020161,12531302,6091162,0,0,0,0,0,0,2161201,0,0,0,0,0,0,0,0,0,1020161,0,0,0,3140000,-4120071,0,3111090,0,2160141,0,0,0,0,0,0,0,4021161,0,2070001
16,76,747.40708200261,0,0,719989.316217586,719990.363296183,0,15,4,1,0,17,20,139993047,160926946,172254584,161297165,0,32000709,2050020,3120081,0,21401119,0,41111109,40310009,41010919,0,21200219,3191030,30301409,41901619,0,-2110141,21211609,31900519,0,11500919,4120130,4030160,30301709,20300319,30000519,40100309,4101030,31700109,1080170,30001509,21611319,0,31301219,0,41501809
16,77,702.903883648105,1,0,719992.139800462,719993.186863661,0,15,4,0,1,15,5,61101718,2111120,46351150,72824861,0,0,0,20601109,0,0,40500609,0,0,0,0,0,0,0,-2111120,0,0,0,3201130,0,0,42000009,1150011,0,0,0,0,40510719,0,4061041,0,21911609,3101201,1060130,1100010,1080151
16,78,1085.50920174457,0,0,719995.033953883,719996.08103248,0,15,4,0,0,35,20,90806527,174538344,191116604,152609356,0,0,40010919,3000120,11101719,31501719,2141030,3051020,0,40711009,41601509,21310809,0,11811509,30501219,4101030,3101140,21400119,20401509,3001110,0,41200219,41801609,31610319,22000019,31101819,0,41410709,30911819,0,30511519,0,11801619,31801519,-3031011,3141160
16,79,1748.15852870233,1,0,719998.210481106,719999.25754469,0,15,4,1,1,25,10,11602019,67164048,48483461,191226467,11602019,0,0,0,0,0,0,0,0,0,0,21700519,10201909,0,1060000,4201001,30000619,0,3100090,0,1011101,0,0,40100919,-3131170,0,1140181,40310909,41100209,31410119,30111909,41902009,0,0,2201201,4190111
16,80,725.041918922216,1,0,720002.116431317,720003.1634949,0,15,4,1,1,32,0,3171081,4120110,8382172,7381332,0,0,0,0,0,0,0,0,3171081,0,4120110,0,0,0,0,0,0,0,0,0,0,4080131,0,3171000,0,1131041,0,0,2151021,0,3110200,-2120111,0,0,0,0
16,81,1548.61786589026,0,0,720004.904706593,720005.951793274,0,15,4,0,0,5,10,64765408,88213317,54451468,81541899,20800119,3161190,20601919,0,-4160171,0,4040190,12001819,0,0,0,0,31500519,31700919,21901709,0,0,3110170,0,10500419,0,0,2051040,0,0,41900009,0,2100031,0,0,4001030,41300619,0,4030100,30110119,0
16,82,634.876785450615,1,0,720008.563590217,720009.610653031,0,15,4,1,1,12,5,11941890,5180181,19001271,60283448,0,1130071,0,0,0,10811819,0,0,0,0,2000040,-3180141,0,0,0,0,0,0,11700009,0,0,0,0,2031080,1070101,0,4200081,0,4201080,0,0,11400709,10700509,2070141,31911009,0
16,83,1488.53408265859,0,0,720011.398931386,720012.446003054,0,15,4,1,0,1,0,4150171,12213152,8430083,0,-4150171,0,0,0,0,0,0,0,0,0,0,4021020,0,0,3140071,4021030,0,1031031,4160041,3200001,1070041,0,0,0,0,0,0,0,0,0,0,0,0,0,0,0
16,84,1031.35653480422,0,0,720014.987225217,720016.034288801,0,15,4,0,0,19,10,23121760,99063236,72097639,37963469,0,0,20101609,0,0,0,0,0,3020151,21910719,4130070,0,0,21310519,11300019,40411909,0,0,-2121080,2171181,41111219,0,1171051,4121180,0,10700819,10701109,20001719,4120111,0,3031130,10810509,0,0,0,0
16,85,1342.46662794612,0,0,720018.10491555,720019.151995302,0,15,4,0,0,29,20,90246906,137013845,154965327,111757025,4000020,0,0,10802009,2031121,30411319,10401309,11000309,21600819,11900319,40410519,31101219,0,2090060,41411109,10100619,0,0,0,20101909,41001219,40010309,40601619,3070090,4060100,4120061,2000020,0,-3000161,12011809,41610619,11610709,0,10612009,10900209,22011509
16,86,1137.34670449048,1,0,720021.599093763,720022.646166201,0,15,4,0,1,18,0,9353551,2131201,1051040,7462322,3201161,0,0,0,4081190,0,0,0,2071200,0,0,0,0,0,0,0,0,-2131201,0,0,0,0,1051040,0,0,0,0,0,3161051,2160200,2141071,0,0,0,0,0
16,87,1075.76195267029,0,0,720024.881538013,720025.928571954,0,15,4,0,0,23,5,7341080,112603736,8223180,27523220,2020040,0,0,2201000,3120040,0,0,0,0,0,0,0,31701509,0,30101509,20200309,30600409,0,0,0,0,2041130,-2041050,0,0,0,4141000,0,0,2161030,0,0,4151181,0,21211009,0
16,88,970.356925972737,1,0,720028.163906425,720029.210978863,0,15,4,0,1,8,10,85603798,77154457,74146156,8562463,0,0,41810409,0,10010519,0,0,-2181161,31601709,0,0,4031100,21000119,0,0,40911319,0,11211919,0,1120060,1100030,30710919,20401819,10811609,10001719,0,0,0,1131161,0,0,2071151,4160050,1200101,0,0
16,89,978.986244066618,1,0,720031.340433648,720032.387494537,0,15,4,1,1,27,5,34020970,41100709,12321362,66814157,0,3000140,0,0,30000709,0,0,1020121,0,0,0,0,0,0,0,41100709,0,0,0,0,1050111,1170090,2020000,4080160,0,0,-4001001,0,0,0,11502009,4200010,40101219,0,11010919,0
16,90,691.608700668439,0,0,720034.481649036,720035.528726863,0,15,4,0,0,10,0,0,8262281,6292331,10221092,0,0,0,0,0,0,0,0,0,-4071200,0,4191081,0,0,0,0,0,0,0,0,2071071,0,3100200,0,0,1121060,0,0,4091051,0,2000010,0,0,4130031,0,0
16,91,877.274932106957,1,0,720037.269964348,720038.317000984,0,15,4,0,1,14,20,158905685,62676629,171128796,157854475,20711009,30510009,21211119,32011619,0,0,2050201,21500809,30910919,3091121,11200819,20511419,20601119,-4151021,0,0,0,3121130,40401409,20802019,2020141,31300719,20100119,11301309,40011719,3060170,2131191,0,21610619,3010000,31310309,0,40412019,0,21301119,40210409
16,92,1628.66464653052,0,0,720040.281746509,720041.328815867,0,15,4,0,0,6,5,7062152,25581859,53133468,75212201,0,0,0,0,0,-4051141,0,3011011,0,4080150,21501709,0,0,0,0,0,0,0,0,0,1131050,0,20301709,31700709,0,0,0,4080010,0,1041021,2200061,41800619,0,0,4080171,22010319
16,93,927.47711436823,0,0,720043.987687942,720045.034776933,0,15,4,1,0,31,5,4080141,86092958,39522708,38391781,0,0,0,0,4080141,0,0,0,0,40111619,0,41801309,0,0,0,4180030,0,0,0,10610719,0,4011130,21800819,0,3100040,0,0,2100100,0,0,-3041151,0,1070110,0,30110319,2070101
16,94,1053.32287680358,1,0,720046.975965836,720048.023042508,0,15,4,1,1,26,10,34413548,81391459,84022869,137136126,20310409,0,0,0,2051130,10911909,1140100,0,0,4120030,0,2110191,40701119,31400119,0,3060000,0,0,40300519,0,0,1201121,0,0,0,-2020110,40501119,30811709,0,31201219,0,0,3121180,0,40301409,31700609
16,95,933.275418705307,0,0,720050.187789495,720051.234858468,0,15,4,1,0,9,10,25803680,78553087,113232156,41254350,0,20411319,0,3160140,1041090,0,0,0,-1191131,0,11701309,31811019,0,0,0,30900609,4140150,0,0,40300109,0,0,21510209,31311719,0,0,20110119,1011191,3091160,0,1010170,3130091,0,21900319,0,11111419
16,96,350.011891918257,1,0,720053.176073163,720054.223143676,0,15,4,1,1,16,20,85506299,201058696,190506553,142675128,0,31701119,1181051,30101509,20401509,0,0,2121111,0,30901009,0,21501919,41700819,20411419,41001609,-4100011,40311909,1130001,21200909,10710409,0,21500619,41010119,4170160,20411309,41001809,30501219,20801809,32001219,0,40610409,2150001,4150151,41810519,1151020,0
16,97,560.511665418744,0,0,720060.658540049,720061.705622111,0,15,5,0,0,14,20,92163887,149394827,170217955,188326684,0,3070010,0,32011109,11410119,40600509,2061050,0,3011090,41210009,20300019,30001319,11301819,-1140111,0,41411419,0,4030131,41000019,2101010,31901409,0,40601709,11301909,2200171,10310919,30800809,2071100,40510909,31300419,0,41710909,20810909,0,40310519,11611919
16,98,2297.24701459054,0,0,720063.388001533,720064.435067811,0,15,5,0,0,23,10,24262282,47232250,109145238,108003957,1030141,20000909,0,0,0,0,2041201,1190031,0,0,0,0,1140081,4091050,0,42001119,0,0,0,11311819,40101719,31811419,-2200051,0,21710209,2010021,0,21511419,0,0,30100119,4080101,21011309,0,0,31301009
16,99,2358.67508675437,0,0,720067.917488501,720068.964564403,0,15,5,0,0,5,10,126712048,33333549,76543757,39385620,40501119,0,41610019,0,-3090101,0,41510809,0,0,1111190,0,0,0,2111040,30111319,0,0,0,21810409,0,21411609,20310009,0,0,0,11011709,2000021,20010209,1171071,0,1130200,3121190,0,10811919,3141031,0
16,100,1318.09119100217,1,0,720072.352893728,720073.399936908,0,15,5,0,1,18,5,60474790,13923461,74992429,6131151,0,31111109,0,0,4131130,20011319,4191151,0,1030081,0,0,1111101,0,0,0,10611309,0,-2201051,0,0,0,0,0,40900509,3081011,31010909,0,0,0,0,0,4120121,0,2011030,0,0
16,101,1781.1913859332,0,0,720075.799994498,720076.847039219,0,15,5,0,0,8,0,9211222,7363503,3322292,0,0,0,0,0,0,2060051,0,-4110110,3041061,1101201,0,0,0,4101171,2161131,0,0,0,0,0,1131141,0,0,2191151,0,0,0,0,0,0,0,0,0,0,0,0
16,102,772.645219694823,1,0,720079.788325902,720080.835334436,0,15,5,0,1,15,10,47492929,60384368,74683088,73514800,0,0,0,2141120,4141000,0,41210809,0,0,11102019,3201161,0,30910509,0,-4070170,11100509,0,0,2070061,0,0,10300509,0,0,0,20701809,41610709,0,21511519,4111061,0,4191171,30410419,0,2090111,11200519
16,103,848.918983479962,0,0,720082.705961647,720083.753025616,0,15,5,1,0,36,0,5141100,2181222,8260182,6062290,0,3101010,0,0,0,0,2040090,0,0,0,1011101,0,0,0,0,0,0,1170121,0,0,4100151,4160031,0,0,0,0,0,0,0,3031110,0,0,0,0,0,-3031180
16,104,1411.96081810631,1,0,720085.753067962,720086.800177356,0,15,5,1,1,31,5,4080141,86092958,39522708,38391781,0,0,0,0,4080141,0,0,0,0,40111619,0,41801309,0,0,0,4180030,0,0,0,10610719,0,4011130,21800819,0,3100040,0,0,2100100,0,0,-3041151,0,1070110,0,30110319,2070101
16,105,654.348955722526,0,0,720089.329596186,720090.376671318,0,15,5,0,0,22,5,37393471,6181270,55344538,43393969,1181031,3200171,2101150,30911119,0,0,0,0,0,0,4121180,2060090,0,0,0,0,0,0,0,0,10101709,-2080070,0,0,0,41111609,2051150,0,0,31111909,0,0,0,0,10201019,2081041
16,106,1243.22792969178,1,0,720092.176692953,720093.223777709,0,15,5,1,1,32,0,3171081,4120110,8382172,7381332,0,0,0,0,0,0,0,0,3171081,0,4120110,0,0,0,0,0,0,0,0,0,0,4080131,0,3171000,0,1131041,0,0,2151021,0,3110200,-2120111,0,0,0,0
16,107,1425.9580525104,1,0,720095.517932902,720096.565003799,0,15,5,0,1,19,0,5092132,0,7421351,6442182,3001091,0,0,0,0,0,0,0,2091041,0,0,0,0,0,0,0,0,0,-2170070,4071141,0,0,0,0,0,1180140,0,0,0,0,0,0,0,1161081,1201101,4080000
16,108,1674.75927958731,1,0,720099.012112269,720100.059186632,0,15,5,0,1,6,5,82015220,43911370,2281201,75792249,40610009,0,1151190,0,3061200,-3061101,0,3130011,31001709,0,0,0,0,2000061,0,0,0,41911309,0,1150011,0,0,1131190,0,0,0,0,31600709,0,3181131,41010409,0,0,0,0,0
16,109,1498.77292872407,1,0,720102.859235214,720103.906298797,0,15,5,1,1,12,5,11941890,5180181,19001271,60283448,0,1130071,0,0,0,10811819,0,0,0,0,2000040,-3180141,0,0,0,0,0,0,11700009,0,0,0,0,2031080,1070101,0,4200081,0,4201080,0,0,11400709,10700509,2070141,31911009,0
16,110,862.794184708036,1,0,720106.565168178,720107.612244081,0,15,5,0,1,29,20,181560178,146514945,155674406,170997506,2081031,40112009,2051011,3091071,41901709,10811619,0,40801319,40710409,41001019,20900809,21710109,20011219,0,0,40810709,2081080,0,31601519,0,1071111,0,40200219,31000019,40800019,11001519,0,0,-2121111,40710919,20112009,41210209,1011120,21112009,4010120,40710009
16,111,532.154946937226,1,0,720109.541693938,720110.588756367,0,15,5,1,1,17,20,139993047,160926946,172254584,161297165,0,32000709,2050020,3120081,0,21401119,0,41111109,40310009,41010919,0,21200219,3191030,30301409,41901619,0,-2110141,21211609,31900519,0,11500919,4120130,4030160,30301709,20300319,30000519,40100309,4101030,31700109,1080170,30001509,21611319,0,31301219,0,41501809
16,112,1144.24330659676,0,0,720112.306431456,720113.353513132,0,15,5,1,0,25,10,11602019,67164048,48483461,191226467,11602019,0,0,0,0,0,0,0,0,0,0,21700519,10201909,0,1060000,4201001,30000619,0,3100090,0,1011101,0,0,40100919,-3131170,0,1140181,40310909,41100209,31410119,30111909,41902009,0,0,2201201,4190111
16,113,688.48203564994,0,0,720115.565314849,720116.612391136,0,15,5,0,0,10,20,74894728,109004084,104434996,211116004,20500119,3031170,20210209,21800809,0,3091191,3111070,0,3150160,-3170200,0,20800619,10500319,11700009,21811909,10810419,0,30210609,31210209,41510519,0,1191131,10200009,10211819,0,10111309,0,0,41910819,20700309,40611809,22000719,40400519,4110130,1070090,40311609
16,114,421.09212721698,1,0,720118.341821823,720119.388907734,0,15,5,1,1,16,20,85506299,201058696,190506553,142675128,0,31701119,1181051,30101509,20401509,0,0,2121111,0,30901009,0,21501919,41700819,20411419,41001609,-4100011,40311909,1130001,21200909,10710409,0,21500619,41010119,4170160,20411309,41001809,30501219,20801809,32001219,0,40610409,2150001,4150151,41810519,1151020,0
16,115,1218.29583705403,1,0,720120.859521626,720121.906594449,0,15,5,1,1,1,0,4150171,12213152,8430083,0,-4150171,0,0,0,0,0,0,0,0,0,0,4021020,0,0,3140071,4021030,0,1031031,4160041,3200001,1070041,0,0,0,0,0,0,0,0,0,0,0,0,0,0,0
16,116,705.910440417938,0,0,720124.24780514,720125.294932242,0,15,5,1,0,9,10,25803680,78553087,113232156,41254350,0,20411319,0,3160140,1041090,0,0,0,-1191131,0,11701309,31811019,0,0,0,30900609,4140150,0,0,40300109,0,0,21510209,31311719,0,0,20110119,1011191,3091160,0,1010170,3130091,0,21900319,0,11111419
16,117,1271.56617003493,0,0,720127.18902638,720128.236108826,0,15,5,1,0,33,20,167497845,187847874,82381740,158576207,21100809,40200319,30112019,21411509,0,2130070,30000219,20501709,2041191,0,0,41311909,41700319,2021190,10800809,41001419,10010219,41002009,0,4190191,0,41800709,1120051,10910209,4060161,0,20300419,0,40700919,1051091,31001619,21511219,-2100021,41410019,0,20801319
16,118,761.511720833369,1,0,720130.683203823,720131.730274335,0,15,5,1,1,26,10,34413548,81391459,84022869,137136126,20310409,0,0,0,2051130,10911909,1140100,0,0,4120030,0,2110191,40701119,31400119,0,3060000,0,0,40300519,0,0,1201121,0,0,0,-2020110,40501119,30811709,0,31201219,0,0,3121180,0,40301409,31700609
16,119,1420.55564792827,0,0,720133.589160578,720134.648343775,0,15,5,0,0,35,0,3120090,5132200,2191181,9250181,0,0,0,0,0,2030050,1090040,0,0,0,0,0,2031120,3101080,0,0,0,0,0,0,2191181,0,0,0,0,0,0,4040140,0,0,0,0,0,0,-1160020,4050021
16,120,696.381080080755,0,0,720137.083306839,720138.130381201,0,15,5,1,0,27,5,34020970,41100709,12321362,66814157,0,3000140,0,0,30000709,0,0,1020121,0,0,0,0,0,0,0,41100709,0,0,0,0,1050111,1170090,2020000,4080160,0,0,-4001001,0,0,0,11502009,4200010,40101219,0,11010919,0
16,121,783.017262932844,0,0,720145.177554114,720146.224622702,0,15,6,1,0,32,0,3171081,4120110,8382172,7381332,0,0,0,0,0,0,0,0,3171081,0,4120110,0,0,0,0,0,0,0,0,0,0,4080131,0,3171000,0,1131041,0,0,2151021,0,3110200,-2120111,0,0,0,0
16,122,1500.2896807855,1,0,720148.048195954,720149.095261077,0,15,6,1,1,12,5,11941890,5180181,19001271,60283448,0,1130071,0,0,0,10811819,0,0,0,0,2000040,-3180141,0,0,0,0,0,0,11700009,0,0,0,0,2031080,1070101,0,4200081,0,4201080,0,0,11400709,10700509,2070141,31911009,0
16,123,1046.69574834406,0,0,720151.76589953,720152.812966578,0,15,6,0,0,23,10,107596737,138505676,7121222,48222739,2081030,0,0,40101909,0,1080010,30201019,3131060,31001709,31701719,11700419,11202009,41401319,0,0,40400009,0,2100201,0,4120161,0,0,-3001061,0,0,0,0,0,0,0,31011609,4120151,0,0,3080170,10010809
16,124,1463.23435090017,1,0,720155.001249014,720156.048315677,0,15,6,0,1,10,10,11700090,65013837,26582301,84197617,0,0,1090071,10610019,0,0,0,0,0,-2070171,21010119,0,20611519,0,10610119,0,10711909,0,0,0,21410009,1081141,0,0,0,0,4091151,10010019,30510309,2171180,21012019,0,4120110,2061010,4201061,10111909
16,125,753.573795314878,0,0,720158.624840437,720159.67190941,0,15,6,0,0,22,20,151470235,57756148,184485467,107797116,10510719,3071041,30100619,31201909,2061101,31411209,11301709,21010319,10801609,4111151,0,20811209,20811519,0,0,10001209,2021060,0,0,11101509,4160111,-4190111,41511309,40311809,0,41600309,41610309,1150030,0,10111209,21011019,1100021,30801609,0,12011219,31612009
16,126,1670.37609708495,1,0,720161.554296069,720162.601362347,0,15,6,1,1,1,0,4150171,12213152,8430083,0,-4150171,0,0,0,0,0,0,0,0,0,0,4021020,0,0,3140071,4021030,0,1031031,4160041,3200001,1070041,0,0,0,0,0,0,0,0,0,0,0,0,0,0,0
16,127,735.548313823529,0,0,720165.424980255,720166.472014196,0,15,6,0,0,8,0,1161040,3202200,7330141,8131371,0,0,0,0,0,0,0,-1161040,0,0,1151030,2051170,0,0,0,0,0,0,3200131,0,0,0,0,0,0,0,4130010,2081100,0,2040201,0,0,0,0,4010070,0
16,128,2168.71883382555,1,0,720168.37793592,720169.425001428,0,15,6,1,1,26,10,34413548,81391459,84022869,137136126,20310409,0,0,0,2051130,10911909,1140100,0,0,4120030,0,2110191,40701119,31400119,0,3060000,0,0,40300519,0,0,1201121,0,0,0,-2020110,40501119,30811709,0,31201219,0,0,3121180,0,40301409,31700609
16,129,889.144094195217,0,0,720172.766235602,720173.813306885,0,15,6,1,0,33,20,167497845,187847874,82381740,158576207,21100809,40200319,30112019,21411509,0,2130070,30000219,20501709,2041191,0,0,41311909,41700319,2021190,10800809,41001419,10010219,41002009,0,4190191,0,41800709,1120051,10910209,4060161,0,20300419,0,40700919,1051091,31001619,21511219,-2100021,41410019,0,20801319
16,130,1202.56588666234,1,0,720175.730997295,720176.778062418,0,15,6,0,1,18,20,89274497,171287126,186327886,160117888,2151161,0,12011709,32000109,0,0,31201009,0,11910509,30801109,4100080,0,31712019,40511319,31100019,0,32011519,-1051061,1130151,10711509,20611819,40100809,30710909,40510619,40411919,2140151,0,30311009,20000309,3091201,1061071,40602009,22001409,40910809,2140071,0
16,131,2454.39984777477,0,0,720179.18988985,720180.23693996,0,15,6,0,0,6,5,27544132,5300221,27942060,74714618,0,0,0,2051021,1180181,-4101011,0,0,20211919,3100161,0,2200060,0,0,0,0,0,0,4090001,0,20802009,0,0,0,3050050,0,0,11101719,0,0,40811419,0,0,0,20710419,2091061
16,132,1216.84491354972,1,0,720183.813472419,720184.860591437,0,15,6,1,1,25,10,11602019,67164048,48483461,191226467,11602019,0,0,0,0,0,0,0,0,0,0,21700519,10201909,0,1060000,4201001,30000619,0,3100090,0,1011101,0,0,40100919,-3131170,0,1140181,40310909,41100209,31410119,30111909,41902009,0,0,2201201,4190111
16,133,692.293548840098,1,1,720187.142939446,720188.190014963,0,15,6,0,0,15,5,60612128,68523090,30202019,14493472,0,0,30411719,0,0,0,0,0,30200409,0,21610219,40711509,2101101,1030051,-2070010,1000200,0,0,0,30202019,0,0,0,0,0,0,0,3131081,0,4031160,3161060,0,0,4170171,0,0
16,134,801.565908244811,1,0,720189.907690052,720190.954767109,0,15,6,1,1,36,0,5141100,2181222,8260182,6062290,0,3101010,0,0,0,0,2040090,0,0,0,1011101,0,0,0,0,0,0,1170121,0,0,4100151,4160031,0,0,0,0,0,0,0,3031110,0,0,0,0,0,-3031180
16,135,646.41333988402,1,0,720192.954794441,720194.001883432,0,15,6,0,1,14,20,147748784,114714908,101337948,127445104,0,21711709,21201619,10011809,0,42010219,21611409,31202019,0,31900019,3050160,31111419,12000209,-1100191,1100181,3041020,0,31411709,30501919,0,2091010,3191001,11301809,3140081,40811819,0,10300309,0,31411909,10701119,21310319,41200019,2020010,0,10300619,10501109
16,136,900.02197783906,1,0,720195.731317969,720196.778384247,0,15,6,0,1,19,0,4090161,3141171,8392571,4090132,0,0,0,0,4090161,0,0,0,0,0,0,0,0,0,0,0,0,3141171,-2110121,1091150,0,3120110,0,2071190,0,0,0,0,0,0,0,0,1050061,3040071,0,0
16,137,1304.84232364688,1,0,720198.87255145,720199.919609644,0,15,6,0,1,29,5,123835319,5181081,44332159,25241120,4040050,40201209,31110419,3011171,0,4020030,40401309,1051131,0,0,0,0,0,0,3111081,0,2070000,0,0,0,0,4031140,40301019,0,0,0,0,21200919,-4040201,0,0,0,0,0,0,0
16,138,1029.6619302826,1,0,720202.378490265,720203.42559581,0,15,6,1,1,31,5,4080141,86092958,39522708,38391781,0,0,0,0,4080141,0,0,0,0,40111619,0,41801309,0,0,0,4180030,0,0,0,10610719,0,4011130,21800819,0,3100040,0,0,2100100,0,0,-3041151,0,1070110,0,30110319,2070101
16,139,1816.86547049321,0,0,720205.590299296,720206.63736673,0,15,6,1,0,9,10,25803680,78553087,113232156,41254350,0,20411319,0,3160140,1041090,0,0,0,-1191131,0,11701309,31811019,0,0,0,30900609,4140150,0,0,40300109,0,0,21510209,31311719,0,0,20110119,1011191,3091160,0,1010170,3130091,0,21900319,0,11111419
16,140,742.325192783028,0,0,720209.555065994,720210.602132272,0,15,6,1,0,27,5,34020970,41100709,12321362,66814157,0,3000140,0,0,30000709,0,0,1020121,0,0,0,0,0,0,0,41100709,0,0,0,0,1050111,1170090,2020000,4080160,0,0,-4001001,0,0,0,11502009,4200010,40101219,0,11010919,0
16,141,1087.24114776123,0,0,720212.402160836,720213.449249057,0,15,6,0,0,35,0,7091122,3121030,7341391,4131050,0,0,0,0,0,4050081,0,3041041,0,2071030,1050000,0,0,0,0,0,0,0,0,2070190,0,0,0,1130170,0,4141031,0,0,0,0,0,0,0,0,-4131050,0
16,142,522.972437785938,0,0,720215.707883078,720216.755180636,0,15,6,1,0,16,20,85506299,201058696,190506553,142675128,0,31701119,1181051,30101509,20401509,0,0,2121111,0,30901009,0,21501919,41700819,20411419,41001609,-4100011,40311909,1130001,21200909,10710409,0,21500619,41010119,4170160,20411309,41001809,30501219,20801809,32001219,0,40610409,2150001,4150151,41810519,1151020,0
16,143,1276.84708486777,1,0,720218.296387015,720219.343464843,0,15,6,0,1,5,10,89113768,65844469,11192212,158794115,0,21911609,0,4160080,-2031041,40700219,0,0,20310819,2001020,0,0,0,0,20511919,40301409,3030121,0,0,0,0,3031031,0,0,4051101,4110080,0,31910609,30901009,0,1060070,41710809,41410109,0,0,11801509
16,144,1554.40231144894,1,0,720221.825853966,720222.872919474,0,15,6,1,1,17,20,139993047,160926946,172254584,161297165,0,32000709,2050020,3120081,0,21401119,0,41111109,40310009,41010919,0,21200219,3191030,30301409,41901619,0,-2110141,21211609,31900519,0,11500919,4120130,4030160,30301709,20300319,30000519,40100309,4101030,31700109,1080170,30001509,21611319,0,31301219,0,41501809
16,145,1021.45183610264,0,0,720228.731841518,720229.778915495,0,15,7,0,0,35,5,13210390,80733869,5042331,80682969,0,2110071,0,11100319,0,0,0,0,0,0,31112019,0,0,4090000,0,41410819,4121031,0,0,4011151,0,0,0,1031180,0,0,0,0,41500709,0,30900009,0,2031080,2080161,-4171010,0
16,146,1220.60638165567,1,0,720231.84954032,720232.896616992,0,15,7,0,1,14,20,85924379,117736226,226957383,141014697,10900209,1201180,32001009,0,4191041,21210319,3140151,3170151,10110319,10212009,0,2041141,41111509,-1160020,11400509,10410019,0,41401019,41610219,21611509,40310009,30700909,40801719,31611309,20311709,0,0,41111309,0,41201609,3160121,20610419,0,0,30800209,4131030
16,147,860.440909396857,1,0,720235.190778344,720236.237844622,0,15,7,1,1,33,20,167497845,187847874,82381740,158576207,21100809,40200319,30112019,21411509,0,2130070,30000219,20501709,2041191,0,0,41311909,41700319,2021190,10800809,41001419,10010219,41002009,0,4190191,0,41800709,1120051,10910209,4060161,0,20300419,0,40700919,1051091,31001619,21511219,-2100021,41410019,0,20801319
16,148,1210.78098518774,0,0,720238.261412023,720239.30848754,0,15,7,1,0,36,0,5141100,2181222,8260182,6062290,0,3101010,0,0,0,0,2040090,0,0,0,1011101,0,0,0,0,0,0,1170121,0,0,4100151,4160031,0,0,0,0,0,0,0,3031110,0,0,0,0,0,-3031180
16,149,889.413952827454,0,0,720241.708523187,720242.75559447,0,15,7,1,0,31,5,4080141,86092958,39522708,38391781,0,0,0,0,4080141,0,0,0,0,40111619,0,41801309,0,0,0,4180030,0,0,0,10610719,0,4011130,21800819,0,3100040,0,0,2100100,0,0,-3041151,0,1070110,0,30110319,2070101
16,150,1175.94467569143,1,0,720244.673344549,720245.720137408,0,15,7,0,1,29,10,85304889,104747555,3192171,80714559,40101109,20301909,0,1160141,2110180,0,1120041,20511509,0,11311709,40400609,20812009,0,12011509,0,20211719,0,0,0,2101151,0,0,1091020,0,0,0,0,0,-4100120,30110809,41411319,4071130,0,0,0,1021181
16,151,1686.02597527206,0,0,720248.096866756,720249.143932264,0,15,7,0,0,18,0,1171181,5150281,1191171,6412391,0,0,1171181,0,0,0,0,0,0,0,0,0,1060180,0,0,1060100,0,-3030001,1191171,0,0,0,0,0,0,0,0,0,2181150,0,0,2201140,0,0,2030101,0
16,152,684.625866939314,1,0,720252.026340481,720253.073415998,0,15,7,1,1,9,10,25803680,78553087,113232156,41254350,0,20411319,0,3160140,1041090,0,0,0,-1191131,0,11701309,31811019,0,0,0,30900609,4140150,0,0,40300109,0,0,21510209,31311719,0,0,20110119,1011191,3091160,0,1010170,3130091,0,21900319,0,11111419
16,153,1291.82481858879,0,0,720254.838153901,720255.885275614,0,15,7,1,0,12,5,11941890,5180181,19001271,60283448,0,1130071,0,0,0,10811819,0,0,0,0,2000040,-3180141,0,0,0,0,0,0,11700009,0,0,0,0,2031080,1070101,0,4200081,0,4201080,0,0,11400709,10700509,2070141,31911009,0
16,154,523.740437929519,0,0,720258.297049921,720259.344150076,0,15,7,1,0,17,20,139993047,160926946,172254584,161297165,0,32000709,2050020,3120081,0,21401119,0,41111109,40310009,41010919,0,21200219,3191030,30301409,41901619,0,-2110141,21211609,31900519,0,11500919,4120130,4030160,30301709,20300319,30000519,40100309,4101030,31700109,1080170,30001509,21611319,0,31301219,0,41501809
16,155,907.596498844214,1,0,720260.979423953,720262.026500626,0,15,7,0,1,8,20,138406626,159127246,129775355,88435808,31910519,0,40211709,1040071,10711709,0,41800419,-2031180,10701019,0,1201131,10101719,41300409,20901209,20710519,40700419,3111131,21100709,2010101,20801409,11210709,0,40401009,21000409,10300619,4041080,20010019,0,30701219,0,3121191,0,41111619,10501709,3000070,0
16,156,1251.51578604709,0,0,720263.979475923,720265.026549131,0,15,7,0,0,6,20,125035717,77064107,152488246,146443716,4050050,4011090,41211009,11500619,0,-1140111,22011119,0,41111719,21610419,0,10911519,0,10100609,4030151,30411409,0,0,11212019,3010031,0,21310909,20911319,41401609,11710409,41811819,1120131,0,11810009,31810419,21901309,2131001,21310119,11500619,41900109,4080131
16,157,1166.13958543167,0,0,720267.461884295,720268.508948263,0,15,7,1,0,1,0,4150171,12213152,8430083,0,-4150171,0,0,0,0,0,0,0,0,0,0,4021020,0,0,3140071,4021030,0,1031031,4160041,3200001,1070041,0,0,0,0,0,0,0,0,0,0,0,0,0,0,0
16,158,1097.09657123312,1,0,720270.720757679,720271.767828962,0,15,7,1,1,25,10,11602019,67164048,48483461,191226467,11602019,0,0,0,0,0,0,0,0,0,0,21700519,10201909,0,1060000,4201001,30000619,0,3100090,0,1011101,0,0,40100919,-3131170,0,1140181,40310909,41100209,31410119,30111909,41902009,0,0,2201201,4190111
16,159,1436.47907616105,0,0,720273.885516215,720274.932592887,0,15,7,1,0,27,5,34020970,41100709,12321362,66814157,0,3000140,0,0,30000709,0,0,1020121,0,0,0,0,0,0,0,41100709,0,0,0,0,1050111,1170090,2020000,4080160,0,0,-4001001,0,0,0,11502009,4200010,40101219,0,11010919,0
16,160,961.915084626526,1,0,720277.415028206,720278.462055603,0,15,7,0,1,23,0,3132221,11461593,2111091,2080140,0,0,2121191,0,0,0,0,1011030,0,1200200,4191181,0,0,0,4000171,0,0,2070041,0,0,0,0,-2111091,0,0,0,0,0,0,0,0,0,0,2080140,0,0
16,161,597.57315472234,1,0,720280.497387071,720281.544464128,0,15,7,0,1,15,10,114134556,89803679,30074870,26134210,10512019,0,0,0,0,0,30900819,41310109,31411609,3131141,0,40811019,10910319,0,-3051081,0,0,31900119,0,0,11610509,11211909,1061191,0,2171200,0,4020061,0,1101010,1191080,0,20702019,3140101,0,0,0
16,162,1423.69870794937,1,0,720283.215121829,720284.26215423,0,15,7,0,1,5,10,59012869,54313529,54413146,81834029,0,0,1080000,3171141,-2040100,21211319,31510309,0,0,0,1101001,11201719,0,0,0,0,42010809,0,11510419,0,0,0,0,10601009,20800509,0,11501209,0,30410909,1160070,1161001,0,4090160,3200170,0,41811719
16,163,746.816934552044,0,0,720286.779831706,720287.826972667,0,15,7,0,0,22,0,4131231,0,8251272,6401372,0,0,0,0,0,0,1070080,0,3061151,0,0,0,0,0,0,0,0,0,0,0,0,-1181070,4040171,0,3030031,0,0,0,0,0,2190151,2050131,0,0,2161090,0
16,164,669.656987302005,1,0,720289.685768442,720290.733117283,0,15,7,1,1,32,0,3171081,4120110,8382172,7381332,0,0,0,0,0,0,0,0,3171081,0,4120110,0,0,0,0,0,0,0,0,0,0,4080131,0,3171000,0,1131041,0,0,2151021,0,3110200,-2120111,0,0,0,0
16,165,685.026997700334,1,0,720292.438751516,720293.485822799,0,15,7,1,1,26,10,34413548,81391459,84022869,137136126,20310409,0,0,0,2051130,10911909,1140100,0,0,4120030,0,2110191,40701119,31400119,0,3060000,0,0,40300519,0,0,1201121,0,0,0,-2020110,40501119,30811709,0,31201219,0,0,3121180,0,40301409,31700609
16,166,533.32446294371,0,0,720295.356450781,720296.403515134,0,15,7,0,0,10,5,11343411,70024349,2100190,114043247,4131200,0,3151180,0,0,0,0,4061031,0,-4110181,20510909,1070100,0,0,41202009,0,0,3131150,0,0,0,0,0,0,2100190,0,0,41501019,0,40200519,0,0,0,31301509,1040200,0
16,167,511.224154033698,1,0,720298.050606974,720299.09768865,0,15,7,1,1,16,20,85506299,201058696,190506553,142675128,0,31701119,1181051,30101509,20401509,0,0,2121111,0,30901009,0,21501919,41700819,20411419,41001609,-4100011,40311909,1130001,21200909,10710409,0,21500619,41010119,4170160,20411309,41001809,30501219,20801809,32001219,0,40610409,2150001,4150151,41810519,1151020,0
16,168,1329.24316800199,1,0,720300.803596207,720301.850670955,0,15,7,0,1,19,5,25764160,18432680,97605988,3190001,0,20602009,0,1151021,0,0,0,4011130,0,10210409,0,0,0,0,0,2020080,3111101,3091090,-1151060,0,0,0,42010319,11511809,0,2021081,40911719,0,0,0,0,3190001,0,0,0,0
16,169,809.936531586573,1,0,720309.850829174,720310.897865425,0,15,8,1,1,27,5,34020970,41100709,12321362,66814157,0,3000140,0,0,30000709,0,0,1020121,0,0,0,0,0,0,0,41100709,0,0,0,0,1050111,1170090,2020000,4080160,0,0,-4001001,0,0,0,11502009,4200010,40101219,0,11010919,0
16,170,1654.11220386159,0,0,720312.81556238,720313.862626733,0,15,8,1,0,12,5,11941890,5180181,19001271,60283448,0,1130071,0,0,0,10811819,0,0,0,0,2000040,-3180141,0,0,0,0,0,0,11700009,0,0,0,0,2031080,1070101,0,4200081,0,4201080,0,0,11400709,10700509,2070141,31911009,0
16,171,596.552234375849,0,0,720316.697970597,720317.745047269,0,15,8,1,0,17,20,139993047,160926946,172254584,161297165,0,32000709,2050020,3120081,0,21401119,0,41111109,40310009,41010919,0,21200219,3191030,30301409,41901619,0,-2110141,21211609,31900519,0,11500919,4120130,4030160,30301709,20300319,30000519,40100309,4101030,31700109,1080170,30001509,21611319,0,31301219,0,41501809
16,172,1562.82913940959,1,0,720319.462784337,720320.50979595,0,15,8,0,1,29,5,22412818,29932231,8323302,38514039,0,0,0,0,0,11302009,0,11110809,0,4181031,0,20500009,1061081,0,0,4190110,0,0,0,3071110,1061051,0,0,0,0,0,4191141,0,-2080150,0,10601509,21711209,0,4121171,0,0
16,173,936.517957248725,0,0,720323.203958303,720324.251027661,0,15,8,1,0,31,5,4080141,86092958,39522708,38391781,0,0,0,0,4080141,0,0,0,0,40111619,0,41801309,0,0,0,4180030,0,0,0,10610719,0,4011130,21800819,0,3100040,0,0,2100100,0,0,-3041151,0,1070110,0,30110319,2070101
16,174,1428.53499110788,1,0,720326.309898042,720327.356965091,0,15,8,0,1,18,5,37260960,14413453,124122376,4160100,0,0,0,0,0,32000819,1080020,4180121,0,0,3120010,4010041,0,2091151,2091111,0,0,-3101140,31400419,31200919,0,0,41411019,0,0,0,20110019,4160100,0,0,0,0,0,0,0,0
16,175,2545.22827151231,0,0,720329.839362683,720330.886423956,0,15,8,0,0,22,10,51164359,106355316,91043138,41044858,3201110,10501009,3110031,4141000,30211209,0,0,0,0,20911119,0,0,0,3131150,11712019,0,30000209,40600819,0,41701819,0,-3081130,0,0,2150040,3010140,41100009,0,0,30002009,0,1031140,0,0,10011709,0
16,176,491.126419743523,1,0,720334.498258241,720335.545331448,0,15,8,1,1,16,20,85506299,201058696,190506553,142675128,0,31701119,1181051,30101509,20401509,0,0,2121111,0,30901009,0,21501919,41700819,20411419,41001609,-4100011,40311909,1130001,21200909,10710409,0,21500619,41010119,4170160,20411309,41001809,30501219,20801809,32001219,0,40610409,2150001,4150151,41810519,1151020,0
16,177,852.282400242984,1,0,720337.20419082,720338.251269032,0,15,8,0,1,19,20,170935535,136967114,111765150,97575937,31701919,30000419,32010419,0,31801019,2000041,31710909,0,11710809,4111050,11210509,11500009,0,11601909,41600519,32001709,20911209,4030200,-2111081,31910219,0,40301519,0,4081091,2051131,31310109,0,11500709,40201909,21500709,10510009,10611509,0,2081071,0,1170021
16,178,773.206494981423,0,0,720340.310111312,720341.357185674,0,15,8,0,0,23,20,96417236,190895274,99007626,110068948,0,0,10101519,30512009,20110209,3081081,11011909,21600509,0,21910509,41710209,41211709,41410709,0,1201020,30300919,3140180,10010019,10811109,10600419,21201109,4011200,-2171061,0,20110919,30101809,0,2121190,0,31002019,0,1141011,40711609,21901809,11000209,2191101
16,179,1222.029587836,0,0,720343.204279362,720344.251349489,0,15,8,1,0,25,10,11602019,67164048,48483461,191226467,11602019,0,0,0,0,0,0,0,0,0,0,21700519,10201909,0,1060000,4201001,30000619,0,3100090,0,1011101,0,0,40100919,-3131170,0,1140181,40310909,41100209,31410119,30111909,41902009,0,0,2201201,4190111
16,180,894.195571308956,0,0,720346.616102944,720347.663170762,0,15,8,0,0,35,10,54603729,93933437,58814248,135076379,0,0,31011119,0,2091001,0,21501609,0,0,0,0,41811219,0,0,0,21411409,0,30710809,0,41500909,0,0,11011019,0,4071110,1111090,1120120,0,3091191,2151091,3131000,0,41410119,40211609,-4070050,41011319
16,181,1025.31031472608,1,0,720349.674971401,720350.722060777,0,15,8,0,1,14,0,5170140,5372241,6160241,2020060,0,0,0,1070130,0,0,0,4100010,0,0,0,0,0,-1101031,0,1130110,3141100,0,0,0,3130190,0,0,0,0,0,3030051,2020060,0,0,0,0,0,0,0,0
16,182,1350.69289035164,0,1,720352.886789671,720353.933866728,0,15,8,1,1,1,0,4150171,12213152,8430083,0,-4150171,0,0,0,0,0,0,0,0,0,0,4021020,0,0,3140071,4021030,0,1031031,4160041,3200001,1070041,0,0,0,0,0,0,0,0,0,0,0,0,0,0,0
16,183,1665.24685756303,1,0,720356.416261625,720357.463322514,0,15,8,0,1,6,0,7141201,4452071,6102232,2140081,0,4140041,0,0,0,-3001160,0,0,0,0,0,1201051,2070020,0,1181000,0,0,0,0,2011121,0,0,0,0,0,0,4091111,0,0,0,0,0,0,0,0,2140081
16,184,940.71751262527,0,0,720360.145736198,720361.192799396,0,15,8,0,0,15,10,72465720,59752819,50063210,127814456,4180070,40002019,0,0,0,4091061,0,3181161,21011409,0,0,0,4070090,41100009,-3181101,11401619,0,0,0,2150081,0,4190201,31911619,0,0,11811309,0,0,0,11410919,30700409,4190000,40701809,0,0,40811319
16,185,977.547254413366,0,0,720363.192835583,720364.239909945,0,15,8,1,0,36,0,5141100,2181222,8260182,6062290,0,3101010,0,0,0,0,2040090,0,0,0,1011101,0,0,0,0,0,0,1170121,0,0,4100151,4160031,0,0,0,0,0,0,0,3031110,0,0,0,0,0,-3031180
16,186,1025.5678545218,0,0,720366.298768778,720367.34584468,0,15,8,1,0,33,20,167497845,187847874,82381740,158576207,21100809,40200319,30112019,21411509,0,2130070,30000219,20501709,2041191,0,0,41311909,41700319,2021190,10800809,41001419,10010219,41002009,0,4190191,0,41800709,1120051,10910209,4060161,0,20300419,0,40700919,1051091,31001619,21511219,-2100021,41410019,0,20801319
16,187,566.318438970484,1,0,720369.498821826,720370.545898113,0,15,8,0,1,10,5,97195318,45284839,9413251,1070071,0,10600309,40801409,0,2061030,40701409,0,0,3031161,-2100010,0,2171201,10602019,0,0,30411609,0,0,4191120,0,3061031,0,0,0,0,2161100,0,0,0,0,0,0,1070071,0,0,0
16,188,938.91550344415,1,0,720372.275336114,720373.322448973,0,15,8,1,1,32,0,3171081,4120110,8382172,7381332,0,0,0,0,0,0,0,0,3171081,0,4120110,0,0,0,0,0,0,0,0,0,0,4080131,0,3171000,0,1131041,0,0,2151021,0,3110200,-2120111,0,0,0,0
16,189,585.257436265238,0,0,720375.310678746,720376.357753109,0,15,8,1,0,26,10,34413548,81391459,84022869,137136126,20310409,0,0,0,2051130,10911909,1140100,0,0,4120030,0,2110191,40701119,31400119,0,3060000,0,0,40300519,0,0,1201121,0,0,0,-2020110,40501119,30811709,0,31201219,0,0,3121180,0,40301409,31700609
16,190,1929.38421829604,1,0,720378.004842639,720379.051910457,0,15,8,0,1,5,20,173326025,168095586,128394736,98155966,3151200,41400709,21500309,10611209,-4120011,10401309,40800219,40310919,1030140,30201719,0,30911219,4071011,0,30801109,30900409,41210119,0,30800709,2020181,21011309,10110319,40011919,3040090,21400209,0,0,0,11801509,20511109,2180080,3041150,40011409,0,0,20610709
16,191,875.342805637047,1,0,720382.063728804,720383.110798546,0,15,8,1,1,9,10,25803680,78553087,113232156,41254350,0,20411319,0,3160140,1041090,0,0,0,-1191131,0,11701309,31811019,0,0,0,30900609,4140150,0,0,40300109,0,0,21510209,31311719,0,0,20110119,1011191,3091160,0,1010170,3130091,0,21900319,0,11111419
16,192,489.745944389142,0,0,720385.087311988,720386.134376726,0,15,8,0,0,8,0,2161231,6170181,6150122,6211371,0,0,0,0,0,1021181,0,-1140050,0,3140131,0,0,0,0,0,0,0,3030050,0,0,0,0,0,3060111,0,0,3090011,0,0,0,3071201,0,0,0,3140170,0
16,193,965.41824284941,0,0,720390.722692115,720391.769766863,0,15,9,0,0,18,20,177794875,170556745,67915300,141475254,2160100,30811019,41400509,0,0,41110819,20411909,0,41900519,40511719,11910519,0,40011919,21610719,40700209,10611509,2180021,-3020130,2180160,2191140,30201119,0,1021081,31200609,0,0,1121191,10300419,0,21300219,21301819,21811119,20110019,21600809,21010709,4040141
16,194,800.012584775686,0,0,720393.746265675,720394.793344272,0,15,9,0,0,14,20,136826898,121134687,188015844,120495377,40511819,4150171,0,31602009,10211819,3120011,4120031,31700919,11410119,0,0,21811709,31500019,-4060150,21000619,1061081,41701109,0,40201809,0,3090170,0,20301209,11610619,40811509,40500309,31500219,11300309,10202009,0,0,41301309,4070141,1010081,21111219,31500309
16,195,1463.47649220843,0,0,720396.675731702,720397.722819923,0,15,9,0,0,23,0,4171280,4312052,7302392,1151121,0,0,0,0,0,3071130,0,0,1100150,0,0,2201021,2111031,0,0,0,0,0,2101151,0,0,4161051,-1040190,0,0,0,0,0,0,0,0,0,0,0,0,1151121
16,196,870.656272745691,0,0,720400.34641481,720401.393447596,0,15,9,1,0,26,10,34413548,81391459,84022869,137136126,20310409,0,0,0,2051130,10911909,1140100,0,0,4120030,0,2110191,40701119,31400119,0,3060000,0,0,40300519,0,0,1201121,0,0,0,-2020110,40501119,30811709,0,31201219,0,0,3121180,0,40301409,31700609
16,197,486.573853879236,0,0,720403.334656902,720404.381732419,0,15,9,1,0,16,20,85506299,201058696,190506553,142675128,0,31701119,1181051,30101509,20401509,0,0,2121111,0,30901009,0,21501919,41700819,20411419,41001609,-4100011,40311909,1130001,21200909,10710409,0,21500619,41010119,4170160,20411309,41001809,30501219,20801809,32001219,0,40610409,2150001,4150151,41810519,1151020,0
16,198,497.477530036122,1,0,720405.887646982,720406.93471326,0,15,9,0,1,15,0,8261341,9531241,0,4212121,4151140,0,0,0,4110201,0,0,0,0,0,2190010,2190050,0,2150090,-3001091,0,0,0,0,0,0,0,0,0,0,0,0,2091020,0,0,0,2121101,0,0,0,0
16,199,919.194647343829,1,0,720408.475914636,720409.522984764,0,15,9,0,1,22,10,68803160,103543338,82375319,95442577,0,3081011,31011109,4200031,30511009,0,0,0,0,0,1120191,0,21510509,0,40900719,0,40011919,0,41310009,1041160,0,-2041200,31611709,3170151,3201090,0,0,0,0,30900009,0,40800519,0,2141140,0,21600909
16,200,1117.16735805385,1,0,720411.628909105,720412.675980772,0,15,9,0,1,35,10,88116759,63713138,112996258,21162131,31402009,1021151,0,21611819,3171171,0,30910609,0,0,0,0,31801619,0,31911519,0,0,0,0,0,0,10901319,41201409,30000109,4011061,4001151,1180200,21701009,0,0,0,4080141,4121000,0,10900809,-2060181,0
16,201,1057.47854639776,1,0,720415.005437791,720416.052509458,0,15,9,0,1,5,5,8230482,30901919,67073889,43853218,3090191,0,0,0,-3130090,2010201,0,0,0,0,0,0,0,0,0,0,30901919,0,0,0,21510909,1140000,0,1131150,0,41101719,2190111,0,11400709,0,30311309,0,1101080,1040120,0,0
16,202,864.92418195121,0,0,720418.123187408,720419.170209415,0,15,9,0,0,29,5,39331349,34712308,44953310,47551131,3141030,0,0,0,1200010,4080090,0,30910219,0,0,0,0,21900519,10810719,0,2001070,0,0,0,41901209,0,0,0,2051060,0,0,1001041,0,-4090031,0,0,2150191,0,41310909,0,0
16,203,659.575590747409,1,0,720421.170249836,720422.21731188,0,15,9,1,1,27,5,34020970,41100709,12321362,66814157,0,3000140,0,0,30000709,0,0,1020121,0,0,0,0,0,0,0,41100709,0,0,0,0,1050111,1170090,2020000,4080160,0,0,-4001001,0,0,0,11502009,4200010,40101219,0,11010919,0
16,204,1922.09418455604,0,0,720423.887927235,720424.934993128,0,15,9,1,0,1,0,4150171,12213152,8430083,0,-4150171,0,0,0,0,0,0,0,0,0,0,4021020,0,0,3140071,4021030,0,1031031,4160041,3200001,1070041,0,0,0,0,0,0,0,0,0,0,0,0,0,0,0
16,205,525.782663724385,0,0,720427.982115611,720429.029192668,0,15,9,1,0,9,10,25803680,78553087,113232156,41254350,0,20411319,0,3160140,1041090,0,0,0,-1191131,0,11701309,31811019,0,0,0,30900609,4140150,0,0,40300109,0,0,21510209,31311719,0,0,20110119,1011191,3091160,0,1010170,3130091,0,21900319,0,11111419
16,206,1676.14360444713,1,0,720430.558612268,720431.605699719,0,15,9,1,1,12,5,11941890,5180181,19001271,60283448,0,1130071,0,0,0,10811819,0,0,0,0,2000040,-3180141,0,0,0,0,0,0,11700009,0,0,0,0,2031080,1070101,0,4200081,0,4201080,0,0,11400709,10700509,2070141,31911009,0
16,207,1406.82580415159,1,0,720434.335191615,720435.382226711,0,15,9,1,1,31,5,4080141,86092958,39522708,38391781,0,0,0,0,4080141,0,0,0,0,40111619,0,41801309,0,0,0,4180030,0,0,0,10610719,0,4011130,21800819,0,3100040,0,0,2100100,0,0,-3041151,0,1070110,0,30110319,2070101
16,208,1818.14200605731,0,0,720437.958748775,720439.005817364,0,15,9,0,0,6,20,90176696,144186745,153798347,188955965,41800919,1061010,11300109,0,0,-3001170,10001309,22011009,1001170,40101909,0,30711219,21400419,0,40010709,0,10901409,1061080,21501209,21001609,4021191,41710319,41812019,0,1011031,2130050,20610919,20601909,0,4040201,30900509,40911209,40902009,40300109,11300019,0
16,209,592.024306184612,0,0,720441.864693596,720442.911761799,0,15,9,1,0,17,20,139993047,160926946,172254584,161297165,0,32000709,2050020,3120081,0,21401119,0,41111109,40310009,41010919,0,21200219,3191030,30301409,41901619,0,-2110141,21211609,31900519,0,11500919,4120130,4030160,30301709,20300319,30000519,40100309,4101030,31700109,1080170,30001509,21611319,0,31301219,0,41501809
16,210,1338.03917490877,1,0,720444.605910678,720445.653015838,0,15,9,1,1,25,10,11602019,67164048,48483461,191226467,11602019,0,0,0,0,0,0,0,0,0,0,21700519,10201909,0,1060000,4201001,30000619,0,3100090,0,1011101,0,0,40100919,-3131170,0,1140181,40310909,41100209,31410119,30111909,41902009,0,0,2201201,4190111
16,211,1788.56803639792,0,0,720447.994199582,720449.041259701,0,15,9,1,0,33,20,167497845,187847874,82381740,158576207,21100809,40200319,30112019,21411509,0,2130070,30000219,20501709,2041191,0,0,41311909,41700319,2021190,10800809,41001419,10010219,41002009,0,4190191,0,41800709,1120051,10910209,4060161,0,20300419,0,40700919,1051091,31001619,21511219,-2100021,41410019,0,20801319
16,212,850.801064865664,0,0,720451.853086209,720452.900154797,0,15,9,1,0,36,0,5141100,2181222,8260182,6062290,0,3101010,0,0,0,0,2040090,0,0,0,1011101,0,0,0,0,0,0,1170121,0,0,4100151,4160031,0,0,0,0,0,0,0,3031110,0,0,0,0,0,-3031180
16,213,920.115477521904,1,0,720454.935494349,720455.982565247,0,15,9,0,1,19,5,11032080,29913279,66804078,14022379,1020171,0,0,0,0,0,0,0,10011909,0,0,0,3121100,0,1150170,21611009,0,4031000,-2140000,1191140,0,2161200,0,31100619,0,0,30211119,0,0,0,0,0,10011209,4011170,0,0
16,214,958.738759509288,1,0,720458.0649449,720459.112030426,0,15,9,0,1,8,10,79466088,27171480,108705177,66092931,0,0,3011101,0,30912019,31211619,10300319,-4031030,0,0,0,4021160,0,3050011,20100309,0,0,0,0,41211009,0,11111419,40900119,0,0,4181021,11301609,1051021,0,2170171,30000519,2070011,30801209,0,0,0
16,215,1038.60075806733,1,0,720461.159119802,720462.20618839,0,15,9,1,1,32,0,3171081,4120110,8382172,7381332,0,0,0,0,0,0,0,0,3171081,0,4120110,0,0,0,0,0,0,0,0,0,0,4080131,0,3171000,0,1131041,0,0,2151021,0,3110200,-2120111,0,0,0,0
16,216,1260.1335553918,1,0,720464.288581902,720465.33564587,0,15,9,0,1,10,0,10270442,1001081,4283232,0,3070060,0,2110061,0,0,3020141,2070180,0,0,-1001081,0,0,0,0,0,0,0,0,2051161,1201051,0,0,1031020,0,0,0,0,0,0,0,0,0,0,0,0,0
16,217,789.072722080164,0,0,720470.747504484,720471.794574612,0,15,10,1,0,9,10,25803680,78553087,113232156,41254350,0,20411319,0,3160140,1041090,0,0,0,-1191131,0,11701309,31811019,0,0,0,30900609,4140150,0,0,40300109,0,0,21510209,31311719,0,0,20110119,1011191,3091160,0,1010170,3130091,0,21900319,0,11111419
16,218,808.439412619919,0,0,720473.759349779,720474.806393344,0,15,10,1,0,27,5,34020970,41100709,12321362,66814157,0,3000140,0,0,30000709,0,0,1020121,0,0,0,0,0,0,0,41100709,0,0,0,0,1050111,1170090,2020000,4080160,0,0,-4001001,0,0,0,11502009,4200010,40101219,0,11010919,0
16,219,810.697217355482,0,0,720476.677015936,720477.724089914,0,15,10,0,0,10,5,8010090,65334760,61611418,16491360,0,0,4000060,0,0,0,0,0,4010030,-3111120,4110101,21201009,0,0,31601219,0,4111161,1200150,21300009,0,0,0,0,0,0,0,40311409,0,0,0,0,2031151,0,4150090,0,10310119
16,220,1302.2573008202,1,0,720479.559414914,720480.606482348,0,15,10,0,1,23,20,216576134,115056028,111436697,128066895,31001209,40900009,41100519,0,1040031,10910319,20211119,40701809,30711119,30711109,10700409,3000100,4141101,31410709,0,0,4181191,30911409,31110519,2190001,0,41910219,-2141000,2071140,10112009,0,21901809,31001409,0,30711109,10801709,0,30910909,3131150,21510609,0
16,221,1022.52164680976,0,0,720482.971230413,720484.018302465,0,15,10,1,0,33,20,167497845,187847874,82381740,158576207,21100809,40200319,30112019,21411509,0,2130070,30000219,20501709,2041191,0,0,41311909,41700319,2021190,10800809,41001419,10010219,41002009,0,4190191,0,41800709,1120051,10910209,4060161,0,20300419,0,40700919,1051091,31001619,21511219,-2100021,41410019,0,20801319
16,222,1889.24187456723,0,0,720486.124230656,720487.171301939,0,15,10,0,0,6,0,10383502,0,1150130,8353260,3150131,0,2031060,3121121,0,-2081190,0,0,0,0,0,0,0,0,0,0,0,0,0,1150130,0,0,0,0,0,0,0,2081020,0,0,3091130,0,0,3181110,0,0
16,223,1027.78985782061,1,0,720490.206645341,720491.253732407,0,15,10,0,1,19,10,59945608,26510741,76723888,89295029,0,30902009,4101101,11710609,0,0,11111809,0,2120080,0,1170201,0,0,0,0,4140121,21200419,0,-1020191,0,30910019,1171050,0,11710819,31911809,0,0,4070151,31600909,0,0,0,0,2121151,20502009,31000809
16,224,882.591648376547,1,0,720493.336110905,720494.383181418,0,15,10,0,1,35,20,229468444,98413157,168206425,91034520,21010509,1021151,0,40401419,40411609,31510909,42000509,41401519,11710819,41011309,0,0,20800209,10910019,3090040,20510509,0,2091071,10911709,0,0,30011119,41810309,2160041,21611519,31201009,30500719,3090000,2080171,1191161,31811619,40211419,0,0,-2150041,10500109
16,225,844.568137894385,0,0,720496.300858739,720497.347933872,0,15,10,1,0,36,0,5141100,2181222,8260182,6062290,0,3101010,0,0,0,0,2040090,0,0,0,1011101,0,0,0,0,0,0,1170121,0,0,4100151,4160031,0,0,0,0,0,0,0,3031110,0,0,0,0,0,-3031180
16,226,1010.61244867742,0,0,720499.206818189,720500.253864834,0,15,10,0,0,8,10,107785308,113623556,66073440,44160991,40311719,20701019,0,0,1171161,41601309,0,-4000100,0,30711409,0,30501119,20910619,0,0,0,31500409,0,2110121,3191200,0,21510719,4180131,0,3081050,0,32000219,0,0,0,0,3110121,1040061,0,0,40010809
16,227,931.806017062627,1,0,720502.371549008,720503.418655707,0,15,10,1,1,25,10,11602019,67164048,48483461,191226467,11602019,0,0,0,0,0,0,0,0,0,0,21700519,10201909,0,1060000,4201001,30000619,0,3100090,0,1011101,0,0,40100919,-3131170,0,1140181,40310909,41100209,31410119,30111909,41902009,0,0,2201201,4190111
16,228,1223.69301051367,1,0,720505.406904728,720506.453961383,0,15,10,1,1,17,20,139993047,160926946,172254584,161297165,0,32000709,2050020,3120081,0,21401119,0,41111109,40310009,41010919,0,21200219,3191030,30301409,41901619,0,-2110141,21211609,31900519,0,11500919,4120130,4030160,30301709,20300319,30000519,40100309,4101030,31700109,1080170,30001509,21611319,0,31301219,0,41501809
16,229,521.112299291417,0,0,720508.689288539,720509.736350968,0,15,10,0,0,22,0,2100100,10400433,4181161,4141330,0,0,0,0,0,2100100,0,0,0,0,0,4110151,2150081,0,4140201,0,0,0,0,0,0,-3091141,0,0,1090020,0,0,0,0,2060150,0,0,0,0,0,2081180
16,230,723.375416477211,1,0,720511.301097031,720512.348173703,0,15,10,1,1,32,0,3171081,4120110,8382172,7381332,0,0,0,0,0,0,0,0,3171081,0,4120110,0,0,0,0,0,0,0,0,0,0,4080131,0,3171000,0,1131041,0,0,2151021,0,3110200,-2120111,0,0,0,0
16,231,1580.23175166454,1,0,720514.195263541,720515.242324045,0,15,10,1,1,12,5,11941890,5180181,19001271,60283448,0,1130071,0,0,0,10811819,0,0,0,0,2000040,-3180141,0,0,0,0,0,0,11700009,0,0,0,0,2031080,1070101,0,4200081,0,4201080,0,0,11400709,10700509,2070141,31911009,0
16,232,578.137170989066,1,0,720517.854151015,720518.901217293,0,15,10,0,1,14,0,3112181,10483402,5160091,1140041,0,0,0,2061141,1051040,0,0,0,0,0,0,4161101,0,-4181200,0,0,0,2141101,0,0,0,4120031,0,1040060,0,0,0,1140041,0,0,0,0,0,0,0,0
16,233,505.182168446481,0,0,720520.654225005,720521.70127396,0,15,10,1,0,16,20,85506299,201058696,190506553,142675128,0,31701119,1181051,30101509,20401509,0,0,2121111,0,30901009,0,21501919,41700819,20411419,41001609,-4100011,40311909,1130001,21200909,10710409,0,21500619,41010119,4170160,20411309,41001809,30501219,20801809,32001219,0,40610409,2150001,4150151,41810519,1151020,0
16,234,1503.89870360959,0,0,720523.39541129,720524.442527998,0,15,10,0,0,29,5,45651301,80644750,46251330,43411899,0,0,1010051,0,0,0,0,41500219,3141031,4101121,40112019,4070060,31311509,0,0,0,1050041,0,0,0,0,40911219,4170060,0,0,0,1170051,0,-3100180,40311719,0,0,0,0,0,0
16,235,461.342260357924,0,0,720527.066058211,720528.113135269,0,15,10,0,0,15,20,134497556,71606287,89825048,212158254,21311519,31512019,0,11601119,31801609,3001181,0,31100009,4170100,11901609,20611219,0,0,21100019,-4171151,3011170,10811119,0,31710109,10700809,2080071,0,1031011,0,30510419,3181110,10611519,21311009,21201509,41500119,0,41211309,4131061,30701019,21500419,30601809
16,236,1024.75173422135,0,0,720529.642623777,720530.689643089,0,15,10,1,0,31,5,4080141,86092958,39522708,38391781,0,0,0,0,4080141,0,0,0,0,40111619,0,41801309,0,0,0,4180030,0,0,0,10610719,0,4011130,21800819,0,3100040,0,0,2100100,0,0,-3041151,0,1070110,0,30110319,2070101
16,237,1826.41908351798,1,0,720532.877917056,720533.924989494,0,15,10,0,1,18,5,48241381,73312799,62312660,3080170,1060051,0,4071111,0,41000019,2110200,0,0,0,0,0,0,0,31711519,40500119,0,0,-1101161,4130050,0,3090141,0,4191031,0,20300019,30601419,0,0,0,0,0,0,0,3080170,0,0
16,238,915.723825921305,0,0,720536.901573768,720537.948579223,0,15,10,0,0,5,10,53133799,117426276,116935476,6101340,20810319,0,3111130,1141070,-4050140,0,3010031,21011109,0,0,0,31912019,0,0,10810419,3091000,40801119,30811719,4111020,0,0,40811209,20501109,10410219,41101919,0,0,0,0,0,0,0,0,3101200,3000140,0
16,239,1276.5910847811,1,0,720540.042737187,720541.089810394,0,15,10,1,1,1,0,4150171,12213152,8430083,0,-4150171,0,0,0,0,0,0,0,0,0,0,4021020,0,0,3140071,4021030,0,1031031,4160041,3200001,1070041,0,0,0,0,0,0,0,0,0,0,0,0,0,0,0
16,240,893.711288459599,1,0,720543.51343654,720544.560460857,0,15,10,1,1,26,10,34413548,81391459,84022869,137136126,20310409,0,0,0,2051130,10911909,1140100,0,0,4120030,0,2110191,40701119,31400119,0,3060000,0,0,40300519,0,0,1201121,0,0,0,-2020110,40501119,30811709,0,31201219,0,0,3121180,0,40301409,31700609
16,241,443.506565527059,1,0,720551.760573959,720552.807647552,0,15,11,1,1,16,20,85506299,201058696,190506553,142675128,0,31701119,1181051,30101509,20401509,0,0,2121111,0,30901009,0,21501919,41700819,20411419,41001609,-4100011,40311909,1130001,21200909,10710409,0,21500619,41010119,4170160,20411309,41001809,30501219,20801809,32001219,0,40610409,2150001,4150151,41810519,1151020,0
16,242,992.88800789509,0,0,720554.431206638,720555.478342209,0,15,11,1,0,26,10,34413548,81391459,84022869,137136126,20310409,0,0,0,2051130,10911909,1140100,0,0,4120030,0,2110191,40701119,31400119,0,3060000,0,0,40300519,0,0,1201121,0,0,0,-2020110,40501119,30811709,0,31201219,0,0,3121180,0,40301409,31700609
16,243,795.444235438481,0,0,720557.65478628,720558.701854483,0,15,11,1,0,36,0,5141100,2181222,8260182,6062290,0,3101010,0,0,0,0,2040090,0,0,0,1011101,0,0,0,0,0,0,1170121,0,0,4100151,4160031,0,0,0,0,0,0,0,3031110,0,0,0,0,0,-3031180
16,244,1532.74740418419,1,0,720560.584251536,720561.631310115,0,15,11,0,1,18,5,46784748,55273908,9312343,43141941,0,10611519,32002019,0,0,1111050,3060160,0,0,0,40202009,0,0,11010719,0,0,0,-4061180,0,3061061,0,0,0,2191081,0,4060201,0,0,0,0,0,1080001,0,40001919,0,2060021
16,245,541.244680178352,1,0,720564.348998293,720565.396081894,0,15,11,0,1,8,0,7242270,0,6140211,9440541,0,0,4091000,0,1001150,0,0,-2150120,0,0,0,0,0,0,0,0,0,0,0,0,4020051,0,0,0,0,2120160,0,0,4160160,0,2170201,0,3110180,0,0,0
16,246,726.922075496987,1,0,720566.984401518,720568.031416596,0,15,11,0,1,19,20,102488677,169859393,55105209,176259345,40901709,10911309,21601819,0,0,2120201,20701419,3051060,3201160,20001319,21311509,41601509,0,20611909,20510109,11610619,31101219,3111200,-1011071,0,10500909,30610209,10711919,0,0,1141091,1130010,20101719,30301919,0,31501409,0,2141051,20301319,41011609,30900319
16,247,1840.97297373228,0,0,720569.902029949,720570.949117015,0,15,11,0,0,29,10,7372292,94785646,158194517,28712471,0,0,2111130,0,0,0,1151001,0,4110161,0,0,40201419,21210619,20211419,3061180,0,10101009,0,0,0,41111209,30101119,41800819,0,4170051,41011319,0,0,-3050121,0,1020111,12000809,10601319,0,0,2040111
16,248,552.222654107027,0,0,720573.960925353,720575.008002795,0,15,11,0,0,23,10,107596846,45001970,78001628,83163909,3181100,0,10301409,31000319,21502009,0,0,41612009,0,0,0,3090061,0,0,0,0,41911909,0,2170190,0,0,0,-4020100,0,0,41810919,30000419,20900709,30300909,1100181,3101000,21611009,0,4150100,2000001,0
16,249,1124.71762648784,1,0,720576.749209098,720577.796331196,0,15,11,0,1,35,20,44923889,276945992,112086496,140467007,20501709,0,3160010,2060121,0,11910809,4201090,3090150,0,31702009,0,40701419,40100209,30210109,41510519,30411009,20410309,41900409,21610009,11900909,3010030,31511219,0,0,30011809,3131201,10911319,31600019,3000151,31600719,0,0,20311619,21411409,-2041081,30502009
16,250,1405.93962057028,0,0,720580.008086332,720581.055194956,0,15,11,1,0,9,10,25803680,78553087,113232156,41254350,0,20411319,0,3160140,1041090,0,0,0,-1191131,0,11701309,31811019,0,0,0,30900609,4140150,0,0,40300109,0,0,21510209,31311719,0,0,20110119,1011191,3091160,0,1010170,3130091,0,21900319,0,11111419
16,251,715.611878898926,0,0,720583.596374389,720584.643451061,0,15,11,0,0,22,0,4172021,2191180,6380202,8372271,0,0,0,0,0,3131010,1041011,0,0,2191180,0,0,0,0,0,0,0,0,0,0,0,-3180141,0,3200061,0,0,0,4080080,0,0,0,0,0,0,2101091,2191100
16,252,1563.54016496334,0,0,720586.490543979,720587.537619496,0,15,11,1,0,12,5,11941890,5180181,19001271,60283448,0,1130071,0,0,0,10811819,0,0,0,0,2000040,-3180141,0,0,0,0,0,0,11700009,0,0,0,0,2031080,1070101,0,4200081,0,4201080,0,0,11400709,10700509,2070141,31911009,0
16,253,546.754262642935,1,0,720590.220017781,720591.267126405,0,15,11,0,1,15,10,35202540,95914216,104732756,43873990,21700109,2200090,4020031,2061110,3190160,0,0,2031040,0,21310609,41202019,11800309,0,0,-1191170,0,20410109,0,31511309,10210319,0,0,0,0,0,42000419,21010709,0,0,0,0,1151020,41601809,0,0,1121161
16,254,940.062306588516,0,0,720592.878872533,720593.925942276,0,15,11,0,0,5,0,14515551,4030051,4140040,0,3091090,1051121,3051060,0,-2001040,2140070,3181170,0,0,0,0,0,0,0,0,0,0,4030051,0,0,0,0,0,4140040,0,0,0,0,0,0,0,0,0,0,0,0
16,255,1120.136188576,0,0,720595.89069396,720596.937766397,0,15,11,1,0,1,0,4150171,12213152,8430083,0,-4150171,0,0,0,0,0,0,0,0,0,0,4021020,0,0,3140071,4021030,0,1031031,4160041,3200001,1070041,0,0,0,0,0,0,0,0,0,0,0,0,0,0,0
16,256,1691.75113679376,1,0,720599.12608656,720600.173116267,0,15,11,1,1,17,20,139993047,160926946,172254584,161297165,0,32000709,2050020,3120081,0,21401119,0,41111109,40310009,41010919,0,21200219,3191030,30301409,41901619,0,-2110141,21211609,31900519,0,11500919,4120130,4030160,30301709,20300319,30000519,40100309,4101030,31700109,1080170,30001509,21611319,0,31301219,0,41501809
16,257,2172.76478908025,1,0,720603.03199096,720604.079055313,0,15,11,1,1,33,20,167497845,187847874,82381740,158576207,21100809,40200319,30112019,21411509,0,2130070,30000219,20501709,2041191,0,0,41311909,41700319,2021190,10800809,41001419,10010219,41002009,0,4190191,0,41800709,1120051,10910209,4060161,0,20300419,0,40700919,1051091,31001619,21511219,-2100021,41410019,0,20801319
16,258,455.597850843333,1,0,720607.279122605,720608.326190423,0,15,11,0,1,10,20,141309366,123256607,161778305,122057077,11202019,31001219,40501919,4201141,1181140,11211809,0,42010119,0,-3191101,12000419,0,11901419,31201019,20511509,40410109,4041031,0,10001419,40811919,31710109,21601709,4141121,0,0,41810819,11701209,21910819,40000019,30411809,21301019,4181100,3201170,1051141,0,0
16,259,2344.50269420631,0,0,720609.926208285,720610.973283418,0,15,11,0,0,6,5,47272310,43421138,20832702,11292422,0,0,0,0,0,-4011021,21311219,20910019,1040051,0,0,0,0,31610619,11810519,0,0,0,3201051,0,0,0,0,3000131,4030001,10601519,0,3060151,0,0,0,0,4201120,0,0,4031151
16,260,730.139591614716,1,0,720614.502752677,720615.5498255,0,15,11,0,1,14,5,46291360,67562890,5291482,45533159,1090180,0,0,0,4191171,0,0,0,41010009,0,0,0,3160191,-2191071,0,41211409,0,21000219,0,1031091,0,0,0,3110191,1150200,0,0,0,21010009,4011141,0,0,0,20512009,0,0
16,261,1583.25178199448,1,0,720617.408684795,720618.455753383,0,15,11,1,1,31,5,4080141,86092958,39522708,38391781,0,0,0,0,4080141,0,0,0,0,40111619,0,41801309,0,0,0,4180030,0,0,0,10610719,0,4011130,21800819,0,3100040,0,0,2100100,0,0,-3041151,0,1070110,0,30110319,2070101
16,262,1259.65119735338,0,0,720621.232272291,720622.279345883,0,15,11,1,0,27,5,34020970,41100709,12321362,66814157,0,3000140,0,0,30000709,0,0,1020121,0,0,0,0,0,0,0,41100709,0,0,0,0,1050111,1170090,2020000,4080160,0,0,-4001001,0,0,0,11502009,4200010,40101219,0,11010919,0
16,263,874.797313706949,0,0,720624.644098953,720625.69117293,0,15,11,1,0,32,0,3171081,4120110,8382172,7381332,0,0,0,0,0,0,0,0,3171081,0,4120110,0,0,0,0,0,0,0,0,0,0,4080131,0,3171000,0,1131041,0,0,2151021,0,3110200,-2120111,0,0,0,0
16,264,901.812823140062,0,0,720627.702972414,720628.750043697,0,15,11,1,0,25,10,11602019,67164048,48483461,191226467,11602019,0,0,0,0,0,0,0,0,0,0,21700519,10201909,0,1060000,4201001,30000619,0,3100090,0,1011101,0,0,40100919,-3131170,0,1140181,40310909,41100209,31410119,30111909,41902009,0,0,2201201,4190111
16,265,2054.38306333963,0,0,720653.668087117,720654.715168409,0,15,12,0,0,18,20,130076543,77657066,100594080,167488714,11600319,12001319,10410119,31411219,1041030,0,11202009,11200409,41210119,40311219,0,10701909,0,11010519,1010190,10501919,2080110,-2041200,4181201,0,0,1200161,41300619,2201171,0,11200409,40510519,20600809,41311519,1141010,30312019,31311219,0,30801419,0,12010719
16,266,1027.87262469064,0,0,720657.891736053,720658.938761525,0,15,12,0,0,10,20,161047858,88283147,153394676,188347224,10300909,1060081,41910819,41201919,1071171,40501809,20800109,0,4201041,-1200120,22010009,20601219,0,0,31611209,2060181,10800409,0,0,4050081,40400409,41711219,11911419,3000120,41110919,11210509,0,31311119,1200050,21301109,0,30810109,41411909,20611119,41701809,0
16,267,2135.65363967791,0,0,720661.091742906,720662.138853839,0,15,12,1,0,1,0,4150171,12213152,8430083,0,-4150171,0,0,0,0,0,0,0,0,0,0,4021020,0,0,3140071,4021030,0,1031031,4160041,3200001,1070041,0,0,0,0,0,0,0,0,0,0,0,0,0,0,0
16,268,1511.71960064676,0,0,720665.444805051,720666.491825903,0,15,12,1,0,33,20,167497845,187847874,82381740,158576207,21100809,40200319,30112019,21411509,0,2130070,30000219,20501709,2041191,0,0,41311909,41700319,2021190,10800809,41001419,10010219,41002009,0,4190191,0,41800709,1120051,10910209,4060161,0,20300419,0,40700919,1051091,31001619,21511219,-2100021,41410019,0,20801319
16,269,1741.24691286124,0,0,720669.080105876,720670.127172154,0,15,12,1,0,12,5,11941890,5180181,19001271,60283448,0,1130071,0,0,0,10811819,0,0,0,0,2000040,-3180141,0,0,0,0,0,0,11700009,0,0,0,0,2031080,1070101,0,4200081,0,4201080,0,0,11400709,10700509,2070141,31911009,0
16,270,1324.08698101062,1,0,720673.021343284,720674.068413027,0,15,12,0,1,23,5,14510479,54553101,36632970,64152008,0,0,0,11310419,0,0,0,3200060,0,0,0,4100090,0,0,40201609,3051200,4100021,3100181,0,0,0,0,-1130130,31311819,0,4191021,0,0,21300609,2040180,0,0,0,0,0,40811219
16,271,829.964972566813,1,0,720676.468457143,720677.515521497,0,15,12,0,1,19,0,6161270,7371230,3331210,3250232,0,0,0,0,3041140,0,0,0,3120130,0,0,0,0,0,4190120,0,0,3181110,-1180030,2151180,0,0,0,0,0,0,0,1110191,2140041,0,0,0,0,0,0,0
16,272,1685.52513921168,1,0,720679.397929714,720680.444987138,0,15,12,0,1,6,5,60544268,46332251,46552489,3111171,0,31011119,0,0,21211019,-4161090,4161040,0,0,0,0,2100031,40201219,0,0,4031001,0,0,30401109,0,0,11101209,1010121,0,2020000,0,2020050,0,0,0,0,0,0,3111171,0,0
16,273,516.122416127473,1,0,720683.280348325,720684.32739882,0,15,12,1,1,16,20,85506299,201058696,190506553,142675128,0,31701119,1181051,30101509,20401509,0,0,2121111,0,30901009,0,21501919,41700819,20411419,41001609,-4100011,40311909,1130001,21200909,10710409,0,21500619,41010119,4170160,20411309,41001809,30501219,20801809,32001219,0,40610409,2150001,4150151,41810519,1151020,0
16,274,663.44677307643,0,0,720686.009781322,720687.056856839,0,15,12,1,0,27,5,34020970,41100709,12321362,66814157,0,3000140,0,0,30000709,0,0,1020121,0,0,0,0,0,0,0,41100709,0,0,0,0,1050111,1170090,2020000,4080160,0,0,-4001001,0,0,0,11502009,4200010,40101219,0,11010919,0
16,275,860.212241648696,0,0,720688.751007258,720689.798089704,0,15,12,1,0,17,20,139993047,160926946,172254584,161297165,0,32000709,2050020,3120081,0,21401119,0,41111109,40310009,41010919,0,21200219,3191030,30301409,41901619,0,-2110141,21211609,31900519,0,11500919,4120130,4030160,30301709,20300319,30000519,40100309,4101030,31700109,1080170,30001509,21611319,0,31301219,0,41501809
16,276,1125.61497406568,1,0,720691.774586977,720692.821647481,0,15,12,1,1,31,5,4080141,86092958,39522708,38391781,0,0,0,0,4080141,0,0,0,0,40111619,0,41801309,0,0,0,4180030,0,0,0,10610719,0,4011130,21800819,0,3100040,0,0,2100100,0,0,-3041151,0,1070110,0,30110319,2070101
16,277,516.156292753294,0,0,720695.104046305,720696.151126057,0,15,12,0,0,15,10,77373268,56022359,72786609,71402418,0,4140011,0,21611119,41311819,0,10310319,0,0,0,20400609,0,1161080,31310519,-3150151,0,0,0,10901809,4061140,4131001,20212019,0,0,31410509,2070131,0,21211119,0,0,0,4061040,4120050,0,0,42010209
16,278,952.891949913464,1,0,720697.751149694,720698.798418077,0,15,12,0,1,29,0,0,7272271,11352332,5061131,0,0,0,0,0,0,0,0,0,4111201,0,0,0,0,0,0,3161070,0,0,0,1120040,0,4041121,0,3030031,3161140,0,0,-2030120,0,0,0,3031011,0,0,0
16,279,1248.89727158006,0,0,720700.845314587,720701.892377786,0,15,12,1,0,36,0,5141100,2181222,8260182,6062290,0,3101010,0,0,0,0,2040090,0,0,0,1011101,0,0,0,0,0,0,1170121,0,0,4100151,4160031,0,0,0,0,0,0,0,3031110,0,0,0,0,0,-3031180
16,280,643.901844974607,0,0,720704.339494725,720705.386571012,0,15,12,1,0,26,10,34413548,81391459,84022869,137136126,20310409,0,0,0,2051130,10911909,1140100,0,0,4120030,0,2110191,40701119,31400119,0,3060000,0,0,40300519,0,0,1201121,0,0,0,-2020110,40501119,30811709,0,31201219,0,0,3121180,0,40301409,31700609
16,281,847.332938225009,1,0,720707.163072597,720708.210137335,0,15,12,1,1,25,10,11602019,67164048,48483461,191226467,11602019,0,0,0,0,0,0,0,0,0,0,21700519,10201909,0,1060000,4201001,30000619,0,3100090,0,1011101,0,0,40100919,-3131170,0,1140181,40310909,41100209,31410119,30111909,41902009,0,0,2201201,4190111
16,282,636.258800630458,1,0,720710.269000402,720711.3160713,0,15,12,0,1,14,20,135249084,173715456,150360455,118064387,41712019,10012009,30901119,0,11111809,0,0,30310909,11201219,40810409,1170091,31100819,40511819,-3200070,41211509,11510609,0,4200130,3050140,2061180,3031170,30012009,40501819,10501309,40800919,0,20401909,0,0,20110909,0,30410019,41101319,21312019,4100010,1030111
16,283,607.747712056153,1,0,720713.05741388,720714.104400086,0,15,12,1,1,9,10,25803680,78553087,113232156,41254350,0,20411319,0,3160140,1041090,0,0,0,-1191131,0,11701309,31811019,0,0,0,30900609,4140150,0,0,40300109,0,0,21510209,31311719,0,0,20110119,1011191,3091160,0,1010170,3130091,0,21900319,0,11111419
16,284,909.640264464542,1,0,720715.904417871,720716.951462591,0,15,12,1,1,32,0,3171081,4120110,8382172,7381332,0,0,0,0,0,0,0,0,3171081,0,4120110,0,0,0,0,0,0,0,0,0,0,4080131,0,3171000,0,1131041,0,0,2151021,0,3110200,-2120111,0,0,0,0
16,285,1863.03093668539,1,0,720719.022082027,720720.069149075,0,15,12,0,1,5,10,39312539,67212768,14652401,138205115,0,0,21701409,4110020,-3100191,0,0,10400919,0,0,0,20510319,0,41401219,0,1181190,4120040,0,0,1140041,2161160,0,1051081,0,0,0,10300119,40700319,11112019,42000109,0,30301519,0,12011009,2080140,0
16,286,1262.39674957469,0,0,720723.092728794,720724.139799307,0,15,12,0,0,8,0,6152302,3051131,4161191,2231201,0,3041100,0,0,2111101,0,0,-1000101,0,0,0,0,0,0,0,0,3051131,0,3001171,0,0,0,1160020,0,0,0,0,0,0,0,1031030,1200171,0,0,0,0
16,287,1170.58012716006,1,0,720726.445724341,720727.492798319,0,15,12,0,1,35,10,78054010,56223259,75754558,60083249,2101191,0,0,0,31711309,0,3120071,40101409,1020030,0,0,0,31210909,0,0,0,21901209,3111141,0,20312009,0,41201109,0,3031131,0,11210309,0,11000319,1131031,0,0,20910309,20911409,4040081,-2090100,0
16,288,584.695391124114,0,0,720729.8104828,720730.857558318,0,15,12,0,0,22,5,4040140,43622650,15152740,88102929,0,0,0,1000080,0,3040060,0,0,0,0,0,0,0,0,2121031,0,0,41501619,11901319,0,0,-1030060,1081181,0,0,1140180,0,0,20510209,0,0,4171061,40800119,0,20610519,2011021
16,289,1699.92504431866,0,0,720735.975280218,720737.022362664,0,15,13,1,0,9,10,25803680,78553087,113232156,41254350,0,20411319,0,3160140,1041090,0,0,0,-1191131,0,11701309,31811019,0,0,0,30900609,4140150,0,0,40300109,0,0,21510209,31311719,0,0,20110119,1011191,3091160,0,1010170,3130091,0,21900319,0,11111419
16,290,2482.68149862997,1,0,720739.775362677,720740.82242549,0,15,13,0,1,29,20,139304857,153325596,117697055,134387036,31300719,3040081,0,30701209,21200719,0,21111009,1150101,30801019,4170040,11301009,3031071,42000119,40912019,0,41701319,10210019,0,0,20411219,20511109,31711109,0,3150000,0,31401709,10511909,2030011,-4050000,0,40511319,31610209,11710919,2161050,10512009,31801519
16,291,1104.51556742191,0,0,720744.375442133,720745.422504177,0,15,13,0,0,8,5,5372311,26113090,29132299,72911418,0,1171030,2031140,0,0,0,0,-2170141,0,0,0,0,20901009,0,0,2131021,3081060,0,1060000,3200031,0,0,2060140,11011119,11801009,0,0,31300509,0,0,0,0,0,0,41610909,0
16,292,849.223103839904,1,0,720747.563758061,720748.610775834,0,15,13,1,1,33,20,167497845,187847874,82381740,158576207,21100809,40200319,30112019,21411509,0,2130070,30000219,20501709,2041191,0,0,41311909,41700319,2021190,10800809,41001419,10010219,41002009,0,4190191,0,41800709,1120051,10910209,4060161,0,20300419,0,40700919,1051091,31001619,21511219,-2100021,41410019,0,20801319
16,293,1074.60937520955,0,0,720750.587301209,720751.634355938,0,15,13,1,0,16,20,85506299,201058696,190506553,142675128,0,31701119,1181051,30101509,20401509,0,0,2121111,0,30901009,0,21501919,41700819,20411419,41001609,-4100011,40311909,1130001,21200909,10710409,0,21500619,41010119,4170160,20411309,41001809,30501219,20801809,32001219,0,40610409,2150001,4150151,41810519,1151020,0
16,294,798.583989148028,1,0,720753.881453706,720754.928533458,0,15,13,0,1,14,5,74383857,43291702,14062199,4161121,20611619,0,0,3150000,0,0,10610219,0,40012019,30900409,0,2040111,0,-3130000,0,4181131,3040051,0,0,3160180,0,0,10902019,0,0,0,0,0,3070010,1091111,0,0,0,0,0,0
16,295,1857.82816936262,0,0,720756.846223098,720757.893285527,0,15,13,0,0,23,0,12451582,0,10331262,2010100,1140160,0,0,4101161,0,4160111,3050150,0,0,0,0,0,0,0,0,0,0,0,3171041,0,0,3000130,-4160091,0,0,0,0,0,0,0,0,0,0,0,0,2010100
16,296,1331.6876796307,0,0,720760.799218799,720761.846285077,0,15,13,1,0,25,10,11602019,67164048,48483461,191226467,11602019,0,0,0,0,0,0,0,0,0,0,21700519,10201909,0,1060000,4201001,30000619,0,3100090,0,1011101,0,0,40100919,-3131170,0,1140181,40310909,41100209,31410119,30111909,41902009,0,0,2201201,4190111
16,297,1042.04270732589,1,0,720764.363981801,720765.411081186,0,15,13,0,1,19,20,138315717,88466437,182659052,119955988,21200619,11401609,0,0,40300719,30000619,1170191,31101809,3140151,2061000,40411209,11511309,0,4081110,0,30401809,0,0,-4021050,10801009,30600509,20000509,21610619,21801219,11601819,40910809,21311509,20401609,41101209,0,1000081,4191170,10400419,0,41700309,1161191
16,298,953.234566375613,1,0,720767.575791217,720768.622866734,0,15,13,0,1,35,10,149634487,52262758,68444370,45744279,41601609,2010051,31800019,41311109,0,0,2101080,30810619,0,0,0,40911019,0,1151020,10200719,0,0,0,40311919,1120100,4040201,0,1071141,0,0,0,21901009,31011509,0,11410609,0,0,0,1181090,-2141071,0
16,299,1433.86980064679,1,0,720770.7641006,720771.81114994,0,15,13,0,1,18,20,148785554,55523819,217800663,112004267,0,31811809,3140080,10311609,30710219,40201109,0,21210109,11400619,0,10300719,21700719,4010140,11300119,4091010,0,2100021,-2021091,21010519,21002019,40700319,41302019,1171150,0,40311609,11101309,41201719,31000719,4030081,0,4060030,0,20811509,0,10100019,42001909
16,300,619.338546413928,0,0,720774.352370564,720775.399441846,0,15,13,0,0,22,10,98164697,35220829,65691039,70845119,3200110,11311909,0,0,40610819,1131021,0,10500119,31410719,11610209,0,0,3100101,20510519,0,0,0,0,0,0,0,-3080201,31310819,31300019,0,0,0,0,20211909,3130100,0,1050150,41411819,1021021,0,4020120
16,301,1460.22856410127,0,0,720777.09359034,720778.140665088,0,15,13,0,0,10,5,41101719,25833362,85066587,3161201,41101719,0,0,0,0,0,0,0,0,-1050081,1111201,20602009,0,2050041,0,1020030,0,0,31811919,1091030,40200919,0,1161000,0,10801719,0,0,0,0,2000101,1161100,0,0,0,0,0
16,302,1498.0665226467,0,0,720780.787756157,720781.834839759,0,15,13,1,0,26,10,34413548,81391459,84022869,137136126,20310409,0,0,0,2051130,10911909,1140100,0,0,4120030,0,2110191,40701119,31400119,0,3060000,0,0,40300519,0,0,1201121,0,0,0,-2020110,40501119,30811709,0,31201219,0,0,3121180,0,40301409,31700609
16,303,452.941225026734,0,0,720784.340769721,720785.387836384,0,15,13,0,0,15,0,3102252,6210082,5423361,0,2041061,0,0,1061191,0,0,0,0,0,0,0,0,0,0,-3190031,0,0,3020051,0,1181001,2130170,0,0,1101050,0,1011140,0,0,0,0,0,0,0,0,0,0
16,304,1222.53311856184,0,0,720786.9761306,720788.023180325,0,15,13,1,0,27,5,34020970,41100709,12321362,66814157,0,3000140,0,0,30000709,0,0,1020121,0,0,0,0,0,0,0,41100709,0,0,0,0,1050111,1170090,2020000,4080160,0,0,-4001001,0,0,0,11502009,4200010,40101219,0,11010919,0
16,305,1782.11568074767,1,0,720790.446741027,720791.493816159,0,15,13,0,1,5,10,96632747,37754920,73723937,106747328,20700509,30801609,0,0,-2100020,0,0,1130190,41900419,0,1071031,1131000,0,31410719,3091090,0,0,1051080,0,0,31101909,0,11211709,31410319,0,0,0,40611909,0,0,2001111,21901809,0,2031190,40201309,0
16,306,859.369558980688,0,0,720794.364464159,720795.411528127,0,15,13,1,0,12,5,11941890,5180181,19001271,60283448,0,1130071,0,0,0,10811819,0,0,0,0,2000040,-3180141,0,0,0,0,0,0,11700009,0,0,0,0,2031080,1070101,0,4200081,0,4201080,0,0,11400709,10700509,2070141,31911009,0
16,307,1796.00628069602,1,0,720797.399803326,720798.446880383,0,15,13,1,1,1,0,4150171,12213152,8430083,0,-4150171,0,0,0,0,0,0,0,0,0,0,4021020,0,0,3140071,4021030,0,1031031,4160041,3200001,1070041,0,0,0,0,0,0,0,0,0,0,0,0,0,0,0
16,308,927.484043641016,1,0,720801.376330626,720802.423393055,0,15,13,1,1,32,0,3171081,4120110,8382172,7381332,0,0,0,0,0,0,0,0,3171081,0,4120110,0,0,0,0,0,0,0,0,0,0,4080131,0,3171000,0,1131041,0,0,2151021,0,3110200,-2120111,0,0,0,0
16,309,1757.48347386252,1,0,720804.494060225,720805.541112645,0,15,13,0,1,6,0,11301463,1200040,2141221,3041041,1151031,0,0,0,0,-3000170,4010191,0,3140071,0,0,0,0,0,0,0,0,1200040,0,0,1051181,0,0,0,1090040,0,0,0,3041041,0,0,0,0,0,0,0
16,310,1659.64026446454,1,0,720808.494092562,720809.541159226,0,15,13,1,1,31,5,4080141,86092958,39522708,38391781,0,0,0,0,4080141,0,0,0,0,40111619,0,41801309,0,0,0,4180030,0,0,0,10610719,0,4011130,21800819,0,3100040,0,0,2100100,0,0,-3041151,0,1070110,0,30110319,2070101
16,311,1024.15812213439,0,0,720812.270620324,720813.317680058,0,15,13,1,0,36,0,5141100,2181222,8260182,6062290,0,3101010,0,0,0,0,2040090,0,0,0,1011101,0,0,0,0,0,0,1170121,0,0,4100151,4160031,0,0,0,0,0,0,0,3031110,0,0,0,0,0,-3031180
16,312,925.039916997775,1,0,720815.376576232,720816.423618258,0,15,13,1,1,17,20,139993047,160926946,172254584,161297165,0,32000709,2050020,3120081,0,21401119,0,41111109,40310009,41010919,0,21200219,3191030,30301409,41901619,0,-2110141,21211609,31900519,0,11500919,4120130,4030160,30301709,20300319,30000519,40100309,4101030,31700109,1080170,30001509,21611319,0,31301219,0,41501809
16,313,1851.64759727195,1,0,720821.470765763,720822.51784051,0,15,14,0,1,5,20,153067167,87934599,203645244,108666936,4120111,20901119,0,21601519,-1090190,2141171,41601819,31100019,30511219,0,40501009,0,3001161,3031101,0,10500709,0,30900619,30510719,21400409,4200061,21900309,0,41500719,40110609,32010909,12011509,1141050,11501419,0,21300319,3021201,10501119,30800809,0,30401019
16,314,1636.88166975044,0,0,720825.529662322,720826.576720516,0,15,14,1,0,25,10,11602019,67164048,48483461,191226467,11602019,0,0,0,0,0,0,0,0,0,0,21700519,10201909,0,1060000,4201001,30000619,0,3100090,0,1011101,0,0,40100919,-3131170,0,1140181,40310909,41100209,31410119,30111909,41902009,0,0,2201201,4190111
16,315,983.256632462144,1,0,720829.400310322,720830.44737814,0,15,14,1,1,12,5,11941890,5180181,19001271,60283448,0,1130071,0,0,0,10811819,0,0,0,0,2000040,-3180141,0,0,0,0,0,0,11700009,0,0,0,0,2031080,1070101,0,4200081,0,4201080,0,0,11400709,10700509,2070141,31911009,0
16,316,1003.93335032277,0,0,720832.541531099,720833.588607386,0,15,14,0,0,6,5,56952649,45841568,46141290,8360430,0,10200419,0,3130160,0,-3020061,0,40602009,0,4040140,0,0,0,0,0,0,31000609,10800819,1130031,0,3000140,0,0,0,0,0,42011119,0,3140150,0,0,4110160,0,1110120,0,0
16,317,1778.47740065772,1,0,720835.682783829,720836.729960976,0,15,14,0,1,22,20,127613326,201771273,110383649,108246707,41510309,0,1020090,30611609,2070000,20700409,0,0,31700909,12000719,40902019,11500419,3040131,20901219,30311619,40902019,31611909,10601219,4150200,0,30501309,-1180171,0,31300519,2140141,41111309,0,30901819,40511009,10300019,2201171,0,10511709,0,3020071,10800909
16,318,1259.87717031967,0,0,720839.588714021,720840.63577645,0,15,14,1,0,31,5,4080141,86092958,39522708,38391781,0,0,0,0,4080141,0,0,0,0,40111619,0,41801309,0,0,0,4180030,0,0,0,10610719,0,4011130,21800819,0,3100040,0,0,2100100,0,0,-3041151,0,1070110,0,30110319,2070101
16,319,1475.56354291737,0,0,720842.976988296,720844.024067663,0,15,14,1,0,26,10,34413548,81391459,84022869,137136126,20310409,0,0,0,2051130,10911909,1140100,0,0,4120030,0,2110191,40701119,31400119,0,3060000,0,0,40300519,0,0,1201121,0,0,0,-2020110,40501119,30811709,0,31201219,0,0,3121180,0,40301409,31700609
16,320,2006.6076843068,1,0,720846.541757842,720847.588828355,0,15,14,1,1,33,20,167497845,187847874,82381740,158576207,21100809,40200319,30112019,21411509,0,2130070,30000219,20501709,2041191,0,0,41311909,41700319,2021190,10800809,41001419,10010219,41002009,0,4190191,0,41800709,1120051,10910209,4060161,0,20300419,0,40700919,1051091,31001619,21511219,-2100021,41410019,0,20801319
16,321,759.15806053672,1,0,720850.671228796,720851.718308548,0,15,14,0,1,19,5,47702941,80813399,36793411,0,20010209,2040011,1051091,0,3191021,0,0,21410609,0,40611409,4120131,31011609,0,0,3020150,2050100,0,0,-1121031,31501209,4171171,0,0,0,0,0,0,0,0,0,0,0,0,0,0,0
16,322,2464.34458252043,0,0,720853.541871406,720854.588943844,0,15,14,0,0,35,20,116565304,117226527,95225146,114579965,30410609,20110419,20200019,0,21911719,10401509,2120020,11411009,0,20210409,2201031,4060160,0,21010619,4191130,40900409,3051150,21601619,30211609,0,21402009,21600619,0,0,22010909,0,0,20802009,31910709,21401119,10000909,2041041,11000909,11112009,-4160080,2151180
16,323,1620.83605024964,0,0,720858.106642492,720859.153724554,0,15,14,0,0,10,5,28082521,47200401,24282011,74313079,2130091,0,0,4091041,0,0,0,1060180,20801209,-3110051,0,41910319,0,0,2180031,0,0,0,1151011,21000909,0,0,0,0,2130091,0,0,0,1010061,0,0,31901709,41401309,0,0,0
16,324,784.527085488662,1,0,720861.847886136,720862.89495126,0,15,14,0,1,8,0,3181311,9381473,3201011,1000201,0,0,0,0,0,2001150,0,-1180161,0,0,3031101,0,0,0,3180120,2160051,0,1010201,0,0,0,0,0,3201011,0,0,0,1000201,0,0,0,0,0,0,0,0
16,325,1622.61534668505,0,0,720864.859695244,720865.906772301,0,15,14,1,0,36,0,5141100,2181222,8260182,6062290,0,3101010,0,0,0,0,2040090,0,0,0,1011101,0,0,0,0,0,0,1170121,0,0,4100151,4160031,0,0,0,0,0,0,0,3031110,0,0,0,0,0,-3031180
16,326,708.792654098943,1,0,720868.671522137,720869.718588801,0,15,14,1,1,17,20,139993047,160926946,172254584,161297165,0,32000709,2050020,3120081,0,21401119,0,41111109,40310009,41010919,0,21200219,3191030,30301409,41901619,0,-2110141,21211609,31900519,0,11500919,4120130,4030160,30301709,20300319,30000519,40100309,4101030,31700109,1080170,30001509,21611319,0,31301219,0,41501809
16,327,902.098465245217,1,0,720871.448041045,720872.495111558,0,15,14,0,1,15,10,136686057,68782879,44401871,90255739,10410419,40100319,41901709,1101140,0,0,0,40001309,3171161,20110019,0,0,3041051,0,-4120000,0,41511809,0,0,0,0,0,2110201,41211619,0,1080051,0,41701319,31311319,2031181,4200011,0,11011909,0,0,0
16,328,894.616335281171,0,0,720874.518667025,720875.565734073,0,15,14,1,0,9,10,25803680,78553087,113232156,41254350,0,20411319,0,3160140,1041090,0,0,0,-1191131,0,11701309,31811019,0,0,0,30900609,4140150,0,0,40300109,0,0,21510209,31311719,0,0,20110119,1011191,3091160,0,1010170,3130091,0,21900319,0,11111419
16,329,1154.84671213198,1,0,720877.530495766,720878.577552805,0,15,14,0,1,29,0,1040191,5252202,5191312,6282281,0,0,1040191,0,0,0,0,0,0,1091091,0,0,0,0,0,4161111,0,0,2000111,0,0,0,0,0,0,3191201,0,2150110,-3061010,1071161,0,0,0,0,0,0
16,330,1087.7069523558,1,0,720880.824653653,720881.871724551,0,15,14,1,1,1,0,4150171,12213152,8430083,0,-4150171,0,0,0,0,0,0,0,0,0,0,4021020,0,0,3140071,4021030,0,1031031,4160041,3200001,1070041,0,0,0,0,0,0,0,0,0,0,0,0,0,0,0
16,331,1375.48947613686,0,0,720883.977644657,720885.024717865,0,15,14,1,0,27,5,34020970,41100709,12321362,66814157,0,3000140,0,0,30000709,0,0,1020121,0,0,0,0,0,0,0,41100709,0,0,0,0,1050111,1170090,2020000,4080160,0,0,-4001001,0,0,0,11502009,4200010,40101219,0,11010919,0
16,332,683.114889310673,0,0,720887.460059958,720888.507118921,0,15,14,0,0,23,10,89714817,56595009,44661129,91565338,0,31401719,11710609,0,1021190,3010080,40410119,0,2161100,0,11710509,0,0,2160061,0,31601509,10001909,1121021,0,0,40510019,0,-4151110,0,0,0,0,21601619,0,0,0,32011409,4100150,0,30811009,3041151
16,333,1236.90376663581,0,0,720890.307162114,720891.354224543,0,15,14,0,0,18,0,1200190,9243332,4141141,6281102,0,0,0,0,0,0,1200190,0,0,0,0,1101100,3111111,1011010,0,0,0,-4020111,4141141,0,0,0,0,0,0,0,0,2161061,0,0,0,0,0,0,4120041,0
16,334,1430.2195868222,1,0,720893.73073937,720894.777813348,0,15,14,1,1,32,0,3171081,4120110,8382172,7381332,0,0,0,0,0,0,0,0,3171081,0,4120110,0,0,0,0,0,0,0,0,0,0,4080131,0,3171000,0,1131041,0,0,2151021,0,3110200,-2120111,0,0,0,0
16,335,1095.74458317366,0,0,720897.342599447,720898.389642242,0,15,14,0,0,14,10,43195791,36884661,71812049,135425455,0,4081090,0,3021170,3151151,30911219,2031161,0,0,0,1000191,0,0,-1181171,21011119,11502009,2190171,0,0,30111909,1200021,0,0,0,40500119,0,0,0,0,31711609,0,21001509,0,30000419,11300809,41411109
16,336,707.875288673677,0,0,720900.507381851,720901.55438692,0,15,14,1,0,16,20,85506299,201058696,190506553,142675128,0,31701119,1181051,30101509,20401509,0,0,2121111,0,30901009,0,21501919,41700819,20411419,41001609,-4100011,40311909,1130001,21200909,10710409,0,21500619,41010119,4170160,20411309,41001809,30501219,20801809,32001219,0,40610409,2150001,4150151,41810519,1151020,0
16,337,2273.11294921674,0,0,720906.578002826,720907.625076034,0,15,15,1,0,9,10,25803680,78553087,113232156,41254350,0,20411319,0,3160140,1041090,0,0,0,-1191131,0,11701309,31811019,0,0,0,30900609,4140150,0,0,40300109,0,0,21510209,31311719,0,0,20110119,1011191,3091160,0,1010170,3130091,0,21900319,0,11111419
