sub_id,Trial,RT,Resp,Error,Fix_onset,Disp_onset,q1,q2,block,repeat,tid,tloc,d_setsize,quad1,quad2,quad3,quad4,loc1,loc2,loc3,loc4,loc5,loc6,loc7,loc8,loc9,loc10,loc11,loc12,loc13,loc14,loc15,loc16,loc17,loc18,loc19,loc20,loc21,loc22,loc23,loc24,loc25,loc26,loc27,loc28,loc29,loc30,loc31,loc32,loc33,loc34,loc35,loc36
10,1,1114.15544059128,1,0,288186.044296031,288187.091372137,0,4,1,0,1,24,0,4001091,4250282,10321311,6070190,0,0,0,4001091,0,0,0,0,0,0,0,3060201,0,0,0,0,0,1190081,0,0,3000201,0,4191080,-3130030,0,0,0,0,0,0,0,0,0,2040050,4030140,0
10,2,606.905855762307,1,0,288189.291397852,288190.338514379,0,4,1,1,1,17,0,5061160,4190081,0,8673202,0,0,0,2010040,0,0,0,0,3051120,0,0,0,3080051,0,0,0,-1110030,0,0,0,0,0,0,0,0,0,0,3151011,0,0,1151070,0,1201111,0,3170010,0
10,3,1045.01568200067,0,0,288192.103190823,288193.150254226,0,4,1,0,0,19,5,75254429,16041549,92065059,2121170,31310709,40711509,2181201,0,0,0,0,0,1051010,0,0,0,0,0,2010090,10000309,0,4031150,-3091030,41201919,3110050,41510919,0,0,3151141,0,0,0,0,0,0,2121170,0,0,0,0
10,4,1246.42340728315,1,0,288195.373821459,288196.420887941,0,4,1,0,1,3,0,10393421,8142471,4181200,1101101,0,0,-4111151,0,4131120,0,0,0,2151150,0,2050200,0,0,0,3051180,0,3041091,0,0,0,0,4181200,0,0,0,0,0,0,0,0,1101101,0,0,0,0,0
10,5,867.11598286638,0,0,288198.715031222,288199.762097319,0,4,1,0,0,26,10,35363829,6253292,105095088,116474806,0,0,0,0,0,4051101,0,20511409,10801319,0,0,0,0,4101160,1001071,0,0,1151061,12000819,2201171,4170151,21001219,0,21000419,0,-4121200,40600109,3061150,40600209,20501319,0,0,0,30500409,21811719,0
10,6,1299.42945193034,1,0,288201.632712709,288202.679778422,0,4,1,0,1,31,20,121433986,87605435,101075458,187576675,3000161,0,4110050,21111009,0,10711319,20300119,41301309,20900019,11900009,10001409,0,11411509,0,3080180,0,41201019,10011309,4200100,20712009,2091141,21310019,1060171,31600509,0,20101509,0,31611219,41112019,30500219,-1010060,1041001,41201319,20900219,0,20200619
10,7,1307.81043699244,1,0,288205.009210304,288206.05628487,0,4,1,1,1,30,20,137403456,159914764,191928696,60265420,21711019,40200009,21510819,0,41300419,2181071,10500119,0,0,0,3110061,30600119,32000619,10800509,40100309,11301809,21201219,10800119,4101061,2081071,40700619,11000809,40911009,41611609,0,30212009,21310509,20702009,0,-3021171,0,3050170,1161181,0,31200709,1130180
10,8,1649.2773538921,0,0,288208.385726376,288209.432790549,0,4,1,0,0,6,20,163175095,74755947,117404366,183766296,20201209,41711509,41410619,20500209,20400019,-4110190,3141031,0,11700309,0,0,21411009,0,10310609,2111101,30711819,0,10211409,21210619,20810909,31501309,1010000,0,0,0,40700409,2171120,40601619,3150101,31111719,30300119,21910309,2111160,10811019,2060031,41710219
10,9,1157.7276319731,0,0,288212.150474808,288213.197537056,0,4,1,1,0,2,10,68762768,43792818,146627274,11511493,40400819,-3190140,0,21010619,4161190,0,0,0,0,0,0,31701619,1191180,0,0,10900019,0,0,41501309,10100109,0,41701709,0,11911819,10011019,31401309,0,0,0,3070071,3061020,2060070,0,1140151,2180181,0
10,10,1582.01235521119,1,0,288215.479918624,288216.526981642,0,4,1,0,1,5,0,3211251,2180212,7190071,3401212,1081181,0,0,0,-2130070,0,0,0,0,0,0,0,0,0,0,0,1000171,1180041,0,3070050,0,4120021,0,0,0,0,0,0,2201091,0,0,0,1200121,0,0,0
10,11,1255.36951510003,0,0,288219.244666671,288220.291728534,0,4,1,1,0,25,20,96675826,168267344,78975090,179188754,0,0,0,3041180,20310419,20711309,41101509,0,11511409,30601519,0,2121150,30610719,40501209,11911109,42011119,10510519,0,4170120,3081200,3001171,31100309,0,10000209,-3151031,4071041,20400009,30000809,21401419,3171061,31800809,20301509,41401219,20010319,0,11101609
10,12,810.134446364827,0,0,288222.738822579,288223.785885981,0,4,1,1,0,32,10,97653909,47812021,128003497,77504249,2111001,40901009,11200409,40311209,0,0,0,1010131,2120150,0,0,2110091,0,4191111,0,0,41510819,0,0,41310719,0,0,0,0,40700919,4181050,41810809,20200209,0,0,2081111,-4111001,0,0,40901619,10210309
10,13,2277.3442416219,1,0,288225.656502527,288226.703563235,0,4,1,0,1,11,10,107205079,18784351,24921609,138345866,41311109,30611109,0,0,2011121,2161121,31110619,0,0,11401819,-1031140,3160101,2031091,0,0,0,1160200,0,0,0,20811519,0,0,4110090,0,0,0,0,0,41601909,41611019,10411219,31410219,0,2000091,11311409
10,14,2356.74628941342,0,0,288230.12713578,288231.174196873,0,4,1,0,0,1,10,127534565,86144187,4051331,71904628,-4140100,4100070,0,42001019,3050130,30310709,11311309,10910319,21710909,0,0,0,3130050,11100609,0,30611609,41301919,0,0,0,0,0,0,2030181,0,1000030,1021120,30311809,0,0,1181110,0,0,0,40411709,0
10,15,1046.94741615094,0,0,288234.597768648,288235.644835515,0,4,1,1,0,10,5,45231659,26991840,90555560,1151100,30400119,4030031,0,0,0,0,0,0,10801509,-2190001,0,0,20700809,0,0,0,0,4101030,40301219,0,1091200,1010090,3180051,3071191,41901809,0,0,0,0,0,0,0,1151100,0,0,0
10,16,708.467796386685,1,0,288237.868391584,288238.915459606,0,4,1,1,1,27,20,137234584,206608325,136996636,85904576,0,31210109,0,10301619,21710219,11301109,21511519,41200009,0,30900809,40301409,4101040,41511319,42011119,10800909,30811609,2160000,4010111,11600919,40012009,0,40801519,0,40411109,0,0,-4171080,2080170,10001609,20311309,4090200,0,21110019,4090060,4020100,20201109
10,17,528.394607594237,0,0,288240.77430828,288241.821374377,0,4,1,0,0,20,5,63103288,31324111,48895241,43702370,0,1201160,41001019,0,20901109,0,0,0,0,0,4090071,0,3011091,3121130,0,0,0,21101819,3131090,-3021031,0,0,0,0,0,41602019,1141101,0,0,0,0,40511209,0,0,0,3191161
10,18,1202.97016890254,0,0,288243.45669162,288244.503753867,0,4,1,0,0,7,5,40382291,24592029,35390580,45554208,0,4050080,0,31100909,0,0,-4120201,1111101,0,0,0,20411919,0,0,4180110,0,0,0,4120050,0,0,0,0,1060021,0,0,30210509,0,1201200,11400509,0,30801319,2151180,0,0,0
10,19,1062.30543373385,1,0,288246.821431737,288247.868500913,0,4,1,1,1,12,0,5231240,1070150,10370482,3191370,4071160,0,0,1160080,0,0,0,0,0,0,0,-1070150,0,0,0,0,0,0,0,4120131,0,0,0,0,4060181,2190170,0,0,1101170,0,0,2090200,0,0,0,0
10,20,981.209172692616,0,0,288250.021461302,288251.068534328,0,4,1,1,0,14,10,95302157,90226528,83964178,48803231,31110709,0,31210219,0,0,0,30810209,0,2171020,0,21501519,0,1151151,-4170000,40101119,0,20111619,3191120,0,1040041,0,0,10600709,32011919,0,40311509,0,0,0,0,41612019,0,0,1100001,2011041,4080170
10,21,759.930532542057,1,0,288253.162679996,288254.209743783,0,4,1,1,1,21,5,71356319,32062530,62780669,5141261,21411819,0,1021150,3181030,0,40611109,3041101,0,2090110,0,0,0,31001519,0,1061011,0,0,0,0,0,-1060151,0,40910009,0,0,20810509,0,0,1070111,4071150,0,0,0,0,0,0
10,22,594.792674179189,1,0,288256.162705403,288257.209831169,0,4,1,1,1,28,5,21512009,13691989,7341362,106505591,21512009,0,0,0,0,0,0,0,0,0,0,0,0,0,3191170,0,0,10500819,0,0,2060201,0,1161111,0,4120050,0,0,-2130161,0,3020101,21711819,31700009,40911319,3021121,4011061,0
10,23,1055.28913525632,0,0,288258.880385813,288259.927453065,0,4,1,0,0,18,20,270160661,146527945,77353388,56195169,40201119,42012019,41210619,21112009,11211619,41501219,40900319,10110819,21900919,30900609,3171090,31612009,41511219,4000190,10811509,0,20500209,-4021110,20800419,1031170,0,2090020,2110051,0,30411009,0,20910719,21211419,0,0,0,21810219,0,1201071,1161151,10811309
10,24,1975.74003227055,0,0,288262.162801643,288263.209898152,0,4,1,1,0,4,0,5271311,1040050,5111321,6233270,0,0,0,-3120201,0,0,2151110,0,0,0,0,0,0,0,0,0,0,1040050,0,4031150,0,0,0,1080171,0,0,0,1111010,0,4021110,0,0,1101150,0,0,0
10,25,580.088705290109,0,0,288283.951240573,288284.99830359,0,4,2,1,0,10,5,45231659,26991840,90555560,1151100,30400119,4030031,0,0,0,0,0,0,10801509,-2190001,0,0,20700809,0,0,0,0,4101030,40301219,0,1091200,1010090,3180051,3071191,41901809,0,0,0,0,0,0,0,1151100,0,0,0
10,26,653.573518211488,1,0,288286.62185989,288287.668924832,0,4,2,0,1,18,10,47744439,51133012,23502459,124865136,20501009,10210209,0,0,3121191,0,10802019,3110011,0,40610609,0,0,0,4150091,0,1091021,4190191,-1091100,11210419,0,0,11102019,1190021,0,0,0,0,10110709,0,41000309,0,30011119,2031190,41711809,0,0
10,27,528.218295483384,0,0,288289.516005635,288290.563075581,0,4,2,0,0,5,10,23656301,106534156,34982230,117208318,2101101,0,0,0,-4071070,0,10411809,3041130,4031191,41710109,0,0,21711609,0,12011219,0,31101219,0,0,0,0,0,0,30901919,0,2030141,2050170,2201141,0,21111709,30811009,0,1081131,0,31201909,30801419
10,28,364.681104780175,1,0,288292.280740978,288293.327816699,0,4,2,1,1,17,0,5061160,4190081,0,8673202,0,0,0,2010040,0,0,0,0,3051120,0,0,0,3080051,0,0,0,-1110030,0,0,0,0,0,0,0,0,0,0,3151011,0,0,1151070,0,1201111,0,3170010,0
10,29,1060.85528573021,0,1,288294.892593695,288295.939600508,0,4,2,1,1,25,20,96675826,168267344,78975090,179188754,0,0,0,3041180,20310419,20711309,41101509,0,11511409,30601519,0,2121150,30610719,40501209,11911109,42011119,10510519,0,4170120,3081200,3001171,31100309,0,10000209,-3151031,4071041,20400009,30000809,21401419,3171061,31800809,20301509,41401219,20010319,0,11101609
10,30,866.341826389544,0,0,288298.174918674,288299.22199478,0,4,2,1,0,2,10,68762768,43792818,146627274,11511493,40400819,-3190140,0,21010619,4161190,0,0,0,0,0,0,31701619,1191180,0,0,10900019,0,0,41501309,10100109,0,41701709,0,11911819,10011019,31401309,0,0,0,3070071,3061020,2060070,0,1140151,2180181,0
10,31,878.532385104336,0,0,288301.139660485,288302.186728122,0,4,2,1,0,14,10,95302157,90226528,83964178,48803231,31110709,0,31210219,0,0,0,30810209,0,2171020,0,21501519,0,1151151,-4170000,40101119,0,20111619,3191120,0,1040041,0,0,10600709,32011919,0,40311509,0,0,0,0,41612019,0,0,1100001,2011041,4080170
10,32,1465.90043016477,1,0,288304.163220481,288305.210346632,0,4,2,0,1,20,20,170646013,139370305,86188496,60963158,41111809,41300709,21400219,1200160,20001709,21810009,10610119,2101170,11110109,2161191,30011319,10211209,0,11500309,1061040,41411809,31401519,11611909,30611809,-1001051,10510119,0,0,20402019,10201719,11300719,2161060,0,0,4130170,21502019,0,0,31210809,4120160,0
10,33,858.618739584927,0,0,288307.845614214,288308.892684546,0,4,2,1,0,28,5,21512009,13691989,7341362,106505591,21512009,0,0,0,0,0,0,0,0,0,0,0,0,0,3191170,0,0,10500819,0,0,2060201,0,1161111,0,4120050,0,0,-2130161,0,3020101,21711819,31700009,40911319,3021121,4011061,0
10,34,1398.53996114107,0,0,288310.904469741,288311.951539302,0,4,2,0,0,6,5,2041292,27161321,17242940,67016829,1010151,0,0,0,0,-1031141,0,0,0,21910119,0,0,0,2140081,0,0,0,3111121,0,0,0,4141021,0,0,11100719,2001200,0,0,0,21801419,0,10501919,30601109,3011181,0,1101201
10,35,1209.3227946898,0,0,288314.539804691,288315.586867709,0,4,2,0,0,7,0,10322213,1001171,11391281,0,0,4131041,0,0,2131131,0,-4060041,0,0,0,0,1001171,0,0,0,0,0,0,0,4120070,0,0,1191040,0,3040120,0,3040051,0,0,0,0,0,0,0,0,0
10,36,866.307564836461,1,0,288317.951610905,288318.998675847,0,4,2,0,1,11,10,105585658,68544280,66544507,55394668,2151100,0,0,2011111,40711409,0,0,20700119,40011919,3121201,-1161051,0,1161000,0,0,21800219,0,41300809,0,0,31611019,0,3131050,0,11100919,20701519,0,0,3071070,0,30111619,0,20110819,0,2101160,0
10,37,955.026437877677,1,0,288320.881047561,288321.928114813,0,4,2,1,1,32,10,97653909,47812021,128003497,77504249,2111001,40901009,11200409,40311209,0,0,0,1010131,2120150,0,0,2110091,0,4191111,0,0,41510819,0,0,41310719,0,0,0,0,40700919,4181050,41810809,20200209,0,0,2081111,-4111001,0,0,40901619,10210309
10,38,1548.65972255357,1,0,288324.010496074,288325.057560631,0,4,2,0,1,3,5,3001161,7251270,84912237,62954918,0,0,-3001161,0,0,0,0,0,0,2060160,0,2091110,0,3100000,0,0,0,0,0,11301719,40000309,0,2010200,0,0,31600009,0,31701709,3130200,0,0,0,2040150,4081140,22001719,0
10,39,895.968806871679,1,0,288327.73994166,288328.787011607,0,4,2,0,1,24,0,6151121,1031021,9281332,6332091,3141080,0,0,0,0,0,0,0,3010041,0,0,0,0,0,0,0,1031021,0,4090070,0,2040171,0,0,-3151091,0,0,0,4181021,0,0,2151070,0,0,0,0,0
10,40,1935.66675117472,1,0,288330.775272993,288331.822341014,0,4,2,0,1,1,0,4310321,5051171,5241281,6271262,-2180201,0,0,2130120,0,0,0,0,0,4010150,0,0,0,0,0,0,1041021,0,0,0,0,0,3170081,0,0,0,2071200,0,0,0,2200191,0,0,0,0,4071071
10,41,1076.89429924358,0,0,288334.916497461,288335.963566253,0,4,2,1,0,27,20,137234584,206608325,136996636,85904576,0,31210109,0,10301619,21710219,11301109,21511519,41200009,0,30900809,40301409,4101040,41511319,42011119,10800909,30811609,2160000,4010111,11600919,40012009,0,40801519,0,40411109,0,0,-4171080,2080170,10001609,20311309,4090200,0,21110019,4090060,4020100,20201109
10,42,1092.37935388228,1,0,288338.163588118,288339.210653446,0,4,2,1,1,30,20,137403456,159914764,191928696,60265420,21711019,40200009,21510819,0,41300419,2181071,10500119,0,0,0,3110061,30600119,32000619,10800509,40100309,11301809,21201219,10800119,4101061,2081071,40700619,11000809,40911009,41611609,0,30212009,21310509,20702009,0,-3021171,0,3050170,1161181,0,31200709,1130180
10,43,1304.11365698092,0,0,288341.457740638,288342.504804811,0,4,2,0,0,31,20,145644644,104364627,165687958,221196676,12000419,20600619,40311319,1020030,30301019,10510519,0,0,30900719,30411919,0,40110109,0,0,20211309,0,2120171,11511119,0,3131051,3111011,41411109,4091070,40811509,40311309,31700819,1120080,41310909,30200509,20900309,-3041021,40011509,4120091,0,40811419,40800909
10,44,690.351918514352,0,0,288344.928368887,288345.975436909,0,4,2,1,0,12,0,5231240,1070150,10370482,3191370,4071160,0,0,1160080,0,0,0,0,0,0,0,-1070150,0,0,0,0,0,0,0,4120131,0,0,0,0,4060181,2190170,0,0,1101170,0,0,2090200,0,0,0,0
10,45,978.446307883132,0,0,288347.787222566,288348.834290203,0,4,2,1,0,21,5,71356319,32062530,62780669,5141261,21411819,0,1021150,3181030,0,40611109,3041101,0,2090110,0,0,0,31001519,0,1061011,0,0,0,0,0,-1060151,0,40910009,0,0,20810509,0,0,1070111,4071150,0,0,0,0,0,0
10,46,1165.94654845539,0,0,288350.857845194,288351.904915525,0,4,2,1,0,4,0,5271311,1040050,5111321,6233270,0,0,0,-3120201,0,0,2151110,0,0,0,0,0,0,0,0,0,0,1040050,0,4031150,0,0,0,1080171,0,0,0,1111010,0,4021110,0,0,1101150,0,0,0
10,47,1038.87786454288,1,0,288354.210876723,288355.25788777,0,4,2,0,1,26,5,31210399,26120509,85584161,11751730,30210309,0,0,1000090,0,0,0,0,0,21010309,0,0,0,0,0,0,4070020,1040180,0,41611319,0,2101171,4090061,0,3060080,-3010111,31711419,1141021,0,0,0,0,0,0,0,10610709
10,48,1145.70607099449,1,0,288357.410852778,288358.457963531,0,4,2,0,1,19,20,118549037,125507374,102813870,187525464,20311909,0,21400319,1001131,0,2031041,20302009,21701719,31800909,0,10810509,11500109,0,10610919,30011509,20801619,40611519,1161190,-4100101,3100051,30001119,1050040,41010219,2150050,0,20211109,1191181,40800919,21401809,20500809,0,41910809,41210509,21700609,0,0
10,49,851.699836261105,1,0,288374.269859286,288375.316923844,0,4,3,1,1,28,5,21512009,13691989,7341362,106505591,21512009,0,0,0,0,0,0,0,0,0,0,0,0,0,3191170,0,0,10500819,0,0,2060201,0,1161111,0,4120050,0,0,-2130161,0,3020101,21711819,31700009,40911319,3021121,4011061,0
10,50,1250.51823706599,0,0,288377.316950791,288378.364019198,0,4,3,0,0,31,0,8281270,0,7441312,5181262,0,0,0,4100080,4181190,0,0,0,0,0,0,0,0,0,0,0,0,0,2141061,3100150,0,0,0,0,0,2200101,0,0,0,2000130,-2010081,0,0,0,1171051,0
10,51,623.976179631427,1,0,288380.799341522,288381.846404154,0,4,3,1,1,27,20,137234584,206608325,136996636,85904576,0,31210109,0,10301619,21710219,11301109,21511519,41200009,0,30900809,40301409,4101040,41511319,42011119,10800909,30811609,2160000,4010111,11600919,40012009,0,40801519,0,40411109,0,0,-4171080,2080170,10001609,20311309,4090200,0,21110019,4090060,4020100,20201109
10,52,1206.0383077478,0,0,288383.552311688,288384.599377015,0,4,3,0,0,7,10,97864688,104413556,38172830,71514649,1081140,40501019,0,0,0,3200070,-2060041,40911709,10110709,0,41300609,21510819,0,0,11302009,0,30300119,0,0,0,30911609,2081060,4040020,0,1140141,0,0,21410509,0,4031061,0,41902009,0,0,0,4171070
10,53,581.674359505996,0,0,288386.98765249,288388.034706268,0,4,3,0,0,11,5,91373537,26581600,2180050,20572610,31800619,10202009,4200190,0,41100719,0,4070000,0,0,2051201,-4130090,0,0,0,0,0,20400309,0,0,2180050,0,0,0,0,0,0,0,4191181,4161140,0,0,10100209,0,0,0,2120080
10,54,860.691369336564,1,0,288389.740660383,288390.787684519,0,4,3,0,1,20,0,10362292,3170161,2051031,4290192,1050031,2060101,0,0,0,0,4181110,3071050,0,0,0,0,0,3170161,0,0,0,0,0,-2051031,0,0,0,0,0,0,0,0,0,1170081,0,0,0,3120111,0,0
10,55,546.191352827009,1,0,288392.764176493,288393.81124336,0,4,3,1,1,12,0,5231240,1070150,10370482,3191370,4071160,0,0,1160080,0,0,0,0,0,0,0,-1070150,0,0,0,0,0,0,0,4120131,0,0,0,0,4060181,2190170,0,0,1101170,0,0,2090200,0,0,0,0
10,56,1070.25372266071,1,0,288395.470081717,288396.517156668,0,4,3,1,1,30,20,137403456,159914764,191928696,60265420,21711019,40200009,21510819,0,41300419,2181071,10500119,0,0,0,3110061,30600119,32000619,10800509,40100309,11301809,21201219,10800119,4101061,2081071,40700619,11000809,40911009,41611609,0,30212009,21310509,20702009,0,-3021171,0,3050170,1161181,0,31200709,1130180
10,57,1546.06701043667,1,0,288398.717185078,288399.764239626,0,4,3,0,1,5,0,4231150,7313212,5231251,3080070,0,0,0,0,-2140020,0,0,2091130,0,0,0,4101060,2021121,0,1191031,0,0,0,2190120,0,0,0,0,3041131,0,0,0,0,0,0,3080070,0,0,0,0,0
10,58,1317.42791674333,0,0,288402.340753312,288403.38781094,0,4,3,0,0,24,5,14491119,59042859,7311351,48275110,0,0,0,0,4180200,0,0,10310919,0,0,0,0,0,3070180,3051051,0,31610519,21311109,0,2050050,0,0,0,-2101180,0,0,3160121,4171041,2191031,31411119,10501919,0,0,0,0,0
10,59,1005.33390621422,0,0,288405.729021473,288406.776088725,0,4,3,1,0,25,20,96675826,168267344,78975090,179188754,0,0,0,3041180,20310419,20711309,41101509,0,11511409,30601519,0,2121150,30610719,40501209,11911109,42011119,10510519,0,4170120,3081200,3001171,31100309,0,10000209,-3151031,4071041,20400009,30000809,21401419,3171061,31800809,20301509,41401219,20010319,0,11101609
10,60,851.61783953663,0,0,288408.858471525,288409.905537622,0,4,3,0,0,19,5,50654239,45582438,26122529,0,0,0,40211819,4141190,1060120,0,0,2151020,3090090,20900019,0,0,0,20611419,0,4071000,0,0,-2110010,0,2031120,0,10200319,1081061,0,0,10700019,0,0,0,0,0,0,0,0,0
10,61,1182.93526064372,0,0,288411.87030869,288412.917327437,0,4,3,0,0,1,10,54145417,97273167,86206770,15442050,-1000100,0,1111060,10512019,11011019,0,0,30511219,0,10600909,0,0,0,0,0,3050140,42010209,41611909,0,0,20411019,4041191,3191031,40710309,11701909,2120141,4031170,0,0,11411019,0,4031031,0,0,0,0
10,62,826.193092798349,0,0,288415.187946523,288416.235005691,0,4,3,1,0,14,10,95302157,90226528,83964178,48803231,31110709,0,31210219,0,0,0,30810209,0,2171020,0,21501519,0,1151151,-4170000,40101119,0,20111619,3191120,0,1040041,0,0,10600709,32011919,0,40311509,0,0,0,0,41612019,0,0,1100001,2011041,4080170
10,63,722.898827923927,0,0,288418.235043417,288419.28209912,0,4,3,1,0,2,10,68762768,43792818,146627274,11511493,40400819,-3190140,0,21010619,4161190,0,0,0,0,0,0,31701619,1191180,0,0,10900019,0,0,41501309,10100109,0,41701709,0,11911819,10011019,31401309,0,0,0,3070071,3061020,2060070,0,1140151,2180181,0
10,64,712.839798012283,1,0,288421.129232662,288422.176258723,0,4,3,1,1,17,0,5061160,4190081,0,8673202,0,0,0,2010040,0,0,0,0,3051120,0,0,0,3080051,0,0,0,-1110030,0,0,0,0,0,0,0,0,0,0,3151011,0,0,1151070,0,1201111,0,3170010,0
10,65,1755.12660469394,0,0,288424.093923273,288425.140986675,0,4,3,0,0,6,20,158698565,93625647,142405406,179453865,30211319,20501219,21601919,41401219,2100070,-2160191,0,20011919,20710709,0,10411119,0,3181120,4010141,10211919,41201219,3100120,21510009,31900309,0,3090150,0,11901419,10711719,40800119,2190081,41811609,3020080,0,41611519,31210019,0,21310219,40900409,41401619,0
10,66,1095.5602863105,1,0,288427.964559452,288429.011624779,0,4,3,1,1,32,10,97653909,47812021,128003497,77504249,2111001,40901009,11200409,40311209,0,0,0,1010131,2120150,0,0,2110091,0,4191111,0,0,41510819,0,0,41310719,0,0,0,0,40700919,4181050,41810809,20200209,0,0,2081111,-4111001,0,0,40901619,10210309
10,67,1157.74341532961,1,0,288431.176354194,288432.223420676,0,4,3,1,1,4,0,5271311,1040050,5111321,6233270,0,0,0,-3120201,0,0,2151110,0,0,0,0,0,0,0,0,0,0,1040050,0,4031150,0,0,0,1080171,0,0,0,1111010,0,4021110,0,0,1101150,0,0,0
10,68,780.943626596127,0,0,288434.44697636,288435.494083263,0,4,3,0,0,26,20,79606739,117325355,133167369,105654304,10701409,2001191,0,0,11510609,31702019,2050021,20601419,1040071,40810719,11101319,0,11010509,2091061,10500319,0,10910309,30901119,1130140,0,40801719,10901519,40910019,3111091,3011141,-2200021,31101719,31610109,0,0,10211019,11710619,11611919,20410619,20100019,0
10,69,527.728625107557,1,0,288437.341186008,288438.388190127,0,4,3,1,1,10,5,45231659,26991840,90555560,1151100,30400119,4030031,0,0,0,0,0,0,10801509,-2190001,0,0,20700809,0,0,0,0,4101030,40301219,0,1091200,1010090,3180051,3071191,41901809,0,0,0,0,0,0,0,1151100,0,0,0
10,70,498.073157505132,0,0,288440.011744887,288441.058804055,0,4,3,1,0,21,5,71356319,32062530,62780669,5141261,21411819,0,1021150,3181030,0,40611109,3041101,0,2090110,0,0,0,31001519,0,1061011,0,0,0,0,0,-1060151,0,40910009,0,0,20810509,0,0,1070111,4071150,0,0,0,0,0,0
10,71,907.335164258257,1,1,288442.729421062,288443.77648177,0,4,3,0,0,3,20,107715867,48982842,172756252,169728143,4160141,20210009,-1021170,20711809,20411819,0,0,0,41200919,0,40700419,1040021,2181131,1040190,0,0,4021081,0,11701519,21500009,21410519,1000030,31911619,31710809,21211009,20800419,11510319,21811319,21300809,41001109,0,31410319,11910809,1181160,30701409,10411209
10,72,1020.49559360603,1,0,288445.729454554,288446.776519881,0,4,3,0,1,18,10,66934329,78042927,117373898,58492388,1181200,3050001,21901709,0,40801419,0,0,0,0,0,0,0,31600919,20611119,0,21810709,3000010,-1020170,0,0,30901219,1180090,3081061,0,40910909,0,41300619,0,0,0,20300219,0,31900009,4151070,2141090,0
10,73,1168.6547488207,0,0,288474.329814261,288475.376822229,0,4,4,0,0,7,5,90784090,17312419,2081191,37302679,41410809,0,41211109,0,0,2060051,-2071110,4031011,0,3070190,3141020,0,0,0,0,0,0,11101209,2081191,0,0,0,0,0,0,0,0,4190130,0,0,1200021,0,0,21301009,10611519,0
10,74,741.59176228568,1,0,288477.623916352,288478.670982064,0,4,4,0,1,24,0,4100070,4281092,13381252,3000041,0,0,0,0,0,0,0,0,4100070,0,0,1081071,0,0,0,0,3200021,0,0,0,3070001,0,0,-4101020,0,3150181,3060050,0,3000041,0,0,0,0,0,0,0
10,75,985.964980383869,0,0,288480.553360707,288481.600421799,0,4,4,0,0,11,0,3011180,13353512,2251391,2200080,0,0,0,0,0,3011180,0,0,0,4181140,-4001011,0,2121170,0,0,0,3050191,0,0,1121190,0,0,0,0,1130201,0,0,0,0,0,0,0,0,0,0,2200080
10,76,656.647431489546,0,0,288483.635739273,288484.682811914,0,4,4,0,0,18,10,53491589,23893851,126314337,112841966,0,0,0,1141021,40310209,10000309,0,0,2040050,10600609,0,0,0,0,4031171,3031000,3070071,-3161000,3100050,0,41701709,40111409,1200160,0,0,40201009,0,0,21410019,0,30111619,0,0,40510309,20810019,0
10,77,852.355424722191,0,0,288486.471070297,288487.518131774,0,4,4,0,0,26,20,80986557,166926224,120906155,179067666,10901719,21411019,4130140,0,0,40401419,1070090,2061010,1011160,30301509,41210219,0,2191140,10111519,0,41200219,20801109,21110509,21810709,41201709,0,21111209,0,0,20800809,-4080200,11901519,30411519,2010011,1030061,31800919,42001409,30100819,0,31611109,10101819
10,78,896.304107853211,1,0,288489.376983143,288490.424042311,0,4,4,1,1,28,5,21512009,13691989,7341362,106505591,21512009,0,0,0,0,0,0,0,0,0,0,0,0,0,3191170,0,0,10500819,0,0,2060201,0,1161111,0,4120050,0,0,-2130161,0,3020101,21711819,31700009,40911319,3021121,4011061,0
10,79,1371.23929971131,1,0,288492.3770124,288493.424083117,0,4,4,0,1,1,10,75803290,43891819,135023766,34074930,-2070040,0,1160151,0,0,41401309,30100719,0,1071071,2180001,10010109,0,0,31701709,0,0,0,0,0,31800409,31500419,0,30011519,0,0,41711419,0,11910319,3091010,4150171,0,3081171,10701209,0,0,1141050
10,80,555.215222702827,0,0,288495.977051435,288497.024117147,0,4,4,0,0,3,20,124885366,133116635,108735288,144786925,0,20610309,-1140101,0,12011109,0,30001509,40710419,20411919,3071190,20511219,41701009,0,41010309,11400919,10200809,1041120,4180060,31010709,21701309,40510519,0,0,11200609,0,2121121,2191021,11610109,40800919,4171060,11411019,40410909,11501909,4080091,20800909,0
10,81,518.417574348859,1,0,288498.635906346,288499.682970903,0,4,4,0,1,5,10,87854477,44253620,66184528,71273640,21910319,0,10210819,0,-3111021,20912009,31710309,0,0,3001091,0,0,0,1151120,0,0,40101409,0,30411009,10310019,0,3181081,2081100,20201319,0,0,0,0,21000709,3070040,41901719,0,0,2130061,3171111,0
10,82,731.759474379942,0,0,288501.21243851,288502.25946996,0,4,4,1,0,17,0,5061160,4190081,0,8673202,0,0,0,2010040,0,0,0,0,3051120,0,0,0,3080051,0,0,0,-1110030,0,0,0,0,0,0,0,0,0,0,3151011,0,0,1151070,0,1201111,0,3170010,0
10,83,449.449893378187,0,0,288504.094790205,288505.141874395,0,4,4,1,0,10,5,45231659,26991840,90555560,1151100,30400119,4030031,0,0,0,0,0,0,10801509,-2190001,0,0,20700809,0,0,0,0,4101030,40301219,0,1091200,1010090,3180051,3071191,41901809,0,0,0,0,0,0,0,1151100,0,0,0
10,84,676.572625874542,1,0,288506.753634337,288507.800706208,0,4,4,1,1,27,20,137234584,206608325,136996636,85904576,0,31210109,0,10301619,21710219,11301109,21511519,41200009,0,30900809,40301409,4101040,41511319,42011119,10800909,30811609,2160000,4010111,11600919,40012009,0,40801519,0,40411109,0,0,-4171080,2080170,10001609,20311309,4090200,0,21110019,4090060,4020100,20201109
10,85,606.240258261096,0,0,288509.58896998,288510.636029148,0,4,4,1,0,4,0,5271311,1040050,5111321,6233270,0,0,0,-3120201,0,0,2151110,0,0,0,0,0,0,0,0,0,0,1040050,0,4031150,0,0,0,1080171,0,0,0,1111010,0,4021110,0,0,1101150,0,0,0
10,86,655.567615933251,1,0,288512.306638842,288513.353701089,0,4,4,1,1,21,5,71356319,32062530,62780669,5141261,21411819,0,1021150,3181030,0,40611109,3041101,0,2090110,0,0,0,31001519,0,1061011,0,0,0,0,0,-1060151,0,40910009,0,0,20810509,0,0,1070111,4071150,0,0,0,0,0,0
10,87,783.689553150907,0,0,288515.024319252,288516.07141807,0,4,4,1,0,14,10,95302157,90226528,83964178,48803231,31110709,0,31210219,0,0,0,30810209,0,2171020,0,21501519,0,1151151,-4170000,40101119,0,20111619,3191120,0,1040041,0,0,10600709,32011919,0,40311509,0,0,0,0,41612019,0,0,1100001,2011041,4080170
10,88,1392.38328050124,1,1,288517.859645656,288518.906709443,0,4,4,1,0,30,20,137403456,159914764,191928696,60265420,21711019,40200009,21510819,0,41300419,2181071,10500119,0,0,0,3110061,30600119,32000619,10800509,40100309,11301809,21201219,10800119,4101061,2081071,40700619,11000809,40911009,41611609,0,30212009,21310509,20702009,0,-3021171,0,3050170,1161181,0,31200709,1130180
10,89,1909.09212606493,0,0,288521.447916435,288522.494982147,0,4,4,0,0,6,5,9312353,65573309,120585408,1070071,1050141,0,0,0,0,-3191061,0,2000041,3071110,4060191,0,0,30911509,0,0,0,30601609,0,40101209,4091030,0,4070041,0,0,0,41311609,31011519,0,1070071,0,0,0,0,0,0,0
10,90,1518.07303429814,1,0,288525.506783125,288526.553849607,0,4,4,0,1,19,20,134635267,139226725,133456828,132277275,0,21810009,3150161,10400309,40411319,11911119,2151050,3190191,41611109,3180040,11911209,30311519,0,0,0,41711619,12011219,40101119,-4050080,42002019,0,41601809,11010019,2021181,30611619,2160101,0,0,3071181,0,21700619,21602019,22001919,21200809,31600619,11100109
10,91,1492.22367571201,0,0,288529.16564381,288530.212716451,0,4,4,1,0,32,10,97653909,47812021,128003497,77504249,2111001,40901009,11200409,40311209,0,0,0,1010131,2120150,0,0,2110091,0,4191111,0,0,41510819,0,0,41310719,0,0,0,0,40700919,4181050,41810809,20200209,0,0,2081111,-4111001,0,0,40901619,10210309
10,92,635.990041366313,1,0,288532.753916898,288533.80098492,0,4,4,1,1,2,10,68762768,43792818,146627274,11511493,40400819,-3190140,0,21010619,4161190,0,0,0,0,0,0,31701619,1191180,0,0,10900019,0,0,41501309,10100109,0,41701709,0,11911819,10011019,31401309,0,0,0,3070071,3061020,2060070,0,1140151,2180181,0
10,93,1071.51369989151,1,0,288535.624531904,288536.671603391,0,4,4,1,1,12,0,5231240,1070150,10370482,3191370,4071160,0,0,1160080,0,0,0,0,0,0,0,-1070150,0,0,0,0,0,0,0,4120131,0,0,0,0,4060181,2190170,0,0,1101170,0,0,2090200,0,0,0,0
10,94,985.54460296873,0,0,288538.789280182,288539.836345124,0,4,4,1,0,25,20,96675826,168267344,78975090,179188754,0,0,0,3041180,20310419,20711309,41101509,0,11511409,30601519,0,2121150,30610719,40501209,11911109,42011119,10510519,0,4170120,3081200,3001171,31100309,0,10000209,-3151031,4071041,20400009,30000809,21401419,3171061,31800809,20301509,41401219,20010319,0,11101609
10,95,1499.14142413763,1,0,288541.871666447,288542.918727155,0,4,4,0,1,20,0,2070080,3080090,10301331,8391470,0,0,2070080,0,0,0,0,0,0,0,0,0,0,0,0,0,0,3080090,3101170,-3130060,0,0,0,0,4070101,0,0,4160150,3071180,0,0,0,0,0,0,1160140
10,96,1169.25952251768,1,0,288545.436406872,288546.483472584,0,4,4,0,1,31,5,66061649,16383900,60612509,9300212,0,41310719,0,0,0,0,0,21700809,3050121,3081010,3191081,0,10111809,0,0,0,0,0,0,4090070,0,0,3011001,0,0,11510219,42001219,0,0,0,-3020051,3170121,3110040,0,0,0
10,97,850.784014095552,0,0,288552.765928835,288553.812971449,0,4,5,1,0,12,0,5231240,1070150,10370482,3191370,4071160,0,0,1160080,0,0,0,0,0,0,0,-1070150,0,0,0,0,0,0,0,4120131,0,0,0,0,4060181,2190170,0,0,1101170,0,0,2090200,0,0,0,0
10,98,599.437228171155,0,0,288555.801223596,288556.848297007,0,4,5,0,0,11,20,85023377,161797995,168618894,86787329,0,20110909,0,22000209,2101031,10500709,0,0,30310519,20410819,-4001191,11010109,31900609,10601309,1041031,30111209,22010509,30711209,0,42001619,31800019,31601519,22001919,0,30601809,0,10612009,3021190,0,3000050,3100061,2111110,11802019,22011719,40710119,1031061
10,99,1054.31903363205,1,0,288558.54243128,288559.589498917,0,4,5,1,1,32,10,97653909,47812021,128003497,77504249,2111001,40901009,11200409,40311209,0,0,0,1010131,2120150,0,0,2110091,0,4191111,0,0,41510819,0,0,41310719,0,0,0,0,40700919,4181050,41810809,20200209,0,0,2081111,-4111001,0,0,40901619,10210309
10,100,1423.18015737692,0,0,288561.83658303,288562.883643738,0,4,5,0,0,1,10,80282682,43012938,68393929,122704258,-1200191,40700209,0,0,3070021,2100091,0,3001061,30211109,0,0,0,31501319,0,0,0,11511619,0,0,42011119,0,0,1071201,0,21110609,4201000,0,0,0,30800509,20410009,4090131,31802009,0,31411519,4190081
10,101,733.857511600945,0,0,288565.330741247,288566.377801185,0,4,5,0,0,26,0,8281452,7141260,1161021,2230162,3010160,0,0,0,0,1151091,4120201,0,0,3011100,0,0,0,0,4130160,0,0,0,0,0,0,0,0,0,0,-1161021,0,0,0,1070131,0,1160031,0,0,0,0
10,102,728.110429365188,0,0,288568.248416576,288569.295483443,0,4,5,1,0,14,10,95302157,90226528,83964178,48803231,31110709,0,31210219,0,0,0,30810209,0,2171020,0,21501519,0,1151151,-4170000,40101119,0,20111619,3191120,0,1040041,0,0,10600709,32011919,0,40311509,0,0,0,0,41612019,0,0,1100001,2011041,4080170
10,103,746.507328760345,1,0,288571.119037356,288572.166109998,0,4,5,0,1,18,0,13643232,3261121,0,4101101,0,2200010,3161051,3061060,0,4061041,0,1160070,0,0,0,0,0,0,2121120,0,0,-1140001,0,0,0,0,0,0,0,0,0,0,4101101,0,0,0,0,0,0,0
10,104,830.4295882117,1,0,288573.966132787,288575.013195035,0,4,5,0,1,7,10,136266318,74772929,108335399,62065128,41210709,0,3061200,41400019,3191091,41302019,-3081100,3020180,0,0,0,3170101,0,0,0,31501619,0,40101209,0,4031201,0,30711119,40701409,1191051,0,31700619,0,30312019,0,0,1151190,0,0,30601919,0,0
10,105,777.718423632905,1,0,288576.930864204,288577.977932611,0,4,5,0,1,31,0,6090120,2111050,7141020,7443253,0,0,0,2000090,4090030,0,0,0,0,0,0,0,2111050,0,0,0,0,0,0,0,0,0,3060000,0,0,4081020,0,0,0,0,-1161071,0,3121151,0,3161031,0
10,106,1339.19707412133,0,0,288579.954429589,288581.001486062,0,4,5,1,0,17,0,5061160,4190081,0,8673202,0,0,0,2010040,0,0,0,0,3051120,0,0,0,3080051,0,0,0,-1110030,0,0,0,0,0,0,0,0,0,0,3151011,0,0,1151070,0,1201111,0,3170010,0
10,107,913.481450930703,1,0,288583.483881797,288584.530939425,0,4,5,1,1,25,20,96675826,168267344,78975090,179188754,0,0,0,3041180,20310419,20711309,41101509,0,11511409,30601519,0,2121150,30610719,40501209,11911109,42011119,10510519,0,4170120,3081200,3001171,31100309,0,10000209,-3151031,4071041,20400009,30000809,21401419,3171061,31800809,20301509,41401219,20010319,0,11101609
10,108,1325.18218533369,0,0,288586.613322611,288587.660391788,0,4,5,0,0,6,5,6420341,91573558,42151820,15952610,0,0,0,0,2190120,-2090141,0,2140080,0,41601209,11300009,4111110,0,0,3161111,31400119,0,0,0,0,0,0,0,1140001,41011819,0,0,0,1170191,0,0,10601219,0,4181200,0,0
10,109,681.934362160973,1,0,288590.166301708,288591.213365496,0,4,5,1,1,27,20,137234584,206608325,136996636,85904576,0,31210109,0,10301619,21710219,11301109,21511519,41200009,0,30900809,40301409,4101040,41511319,42011119,10800909,30811609,2160000,4010111,11600919,40012009,0,40801519,0,40411109,0,0,-4171080,2080170,10001609,20311309,4090200,0,21110019,4090060,4020100,20201109
10,110,2105.40720273275,1,0,288593.084052104,288594.131043134,0,4,5,1,1,4,0,5271311,1040050,5111321,6233270,0,0,0,-3120201,0,0,2151110,0,0,0,0,0,0,0,0,0,0,1040050,0,4031150,0,0,0,1080171,0,0,0,1111010,0,4021110,0,0,1101150,0,0,0
10,111,962.184017000254,1,0,288597.28402277,288598.331090407,0,4,5,0,1,3,5,30322279,1050021,46922390,109153438,0,4171030,-1200030,20810209,0,0,4141010,0,0,0,0,0,0,0,0,0,0,1050021,0,0,0,2080190,41711109,3131091,0,0,0,30110609,0,3191021,0,0,31810609,2131080,0,41910119
10,112,1764.51002812246,0,0,288600.342881761,288601.389944009,0,4,5,1,0,30,20,137403456,159914764,191928696,60265420,21711019,40200009,21510819,0,41300419,2181071,10500119,0,0,0,3110061,30600119,32000619,10800509,40100309,11301809,21201219,10800119,4101061,2081071,40700619,11000809,40911009,41611609,0,30212009,21310509,20702009,0,-3021171,0,3050170,1161181,0,31200709,1130180
10,113,520.721950684674,0,0,288604.307626651,288605.354698908,0,4,5,1,0,10,5,45231659,26991840,90555560,1151100,30400119,4030031,0,0,0,0,0,0,10801509,-2190001,0,0,20700809,0,0,0,0,4101030,40301219,0,1091200,1010090,3180051,3071191,41901809,0,0,0,0,0,0,0,1151100,0,0,0
10,114,926.384572463576,1,0,288606.954710996,288608.001779787,0,4,5,1,1,21,5,71356319,32062530,62780669,5141261,21411819,0,1021150,3181030,0,40611109,3041101,0,2090110,0,0,0,31001519,0,1061011,0,0,0,0,0,-1060151,0,40910009,0,0,20810509,0,0,1070111,4071150,0,0,0,0,0,0
10,115,1399.85344797606,0,0,288609.978341824,288611.025355567,0,4,5,0,0,5,20,116247888,164255384,113547988,157087885,30511019,10911109,0,2180031,-4010101,20501919,40801509,4141080,3191120,0,30610309,0,30110319,0,30210409,20111919,21701109,31511319,21002019,41611809,21610519,20001409,2131060,0,3080021,0,4111151,0,42011809,40311519,0,31000109,10101609,2051111,11210919,20400809
10,116,1272.38093997585,0,0,288613.613609407,288614.660681278,0,4,5,1,0,2,10,68762768,43792818,146627274,11511493,40400819,-3190140,0,21010619,4161190,0,0,0,0,0,0,31701619,1191180,0,0,10900019,0,0,41501309,10100109,0,41701709,0,11911819,10011019,31401309,0,0,0,3070071,3061020,2060070,0,1140151,2180181,0
10,117,981.702692632098,1,0,288617.131325695,288618.17836369,0,4,5,0,1,20,5,5192230,26751401,48483769,77562358,0,0,0,0,1011190,0,0,0,4181040,0,0,20710219,2010121,0,4031061,0,0,0,0,-3021040,0,4161020,41301709,0,0,0,0,3040030,11211119,1100071,0,0,0,0,41800619,20410519
10,118,1242.09644610528,0,0,288620.201921376,288621.248982084,0,4,5,0,0,24,20,201695624,139755165,50425259,230425756,1040170,31900009,40200709,4040080,31001709,41211309,21301319,31000319,0,0,32010909,20411319,0,20510319,4011180,31901419,30910019,0,0,11001219,3061061,0,0,-3061070,11100219,2191081,20010609,41301709,0,40011109,20510009,40800509,4100041,2201151,40700309,40800919
10,119,699.900105246343,1,0,288623.637247935,288624.684318651,0,4,5,0,1,19,10,135334037,47382529,51243372,113163676,40510919,0,31910119,21300309,0,40511619,1101071,0,0,0,1191180,0,0,0,0,4190130,42001219,0,-2191061,1181141,0,0,2011120,0,41800009,0,4060041,20411809,0,0,0,40410319,0,1120020,30111119,21110409
10,120,765.452797524631,1,0,288626.566698064,288627.613764546,0,4,5,1,1,28,5,21512009,13691989,7341362,106505591,21512009,0,0,0,0,0,0,0,0,0,0,0,0,0,3191170,0,0,10500819,0,0,2060201,0,1161111,0,4120050,0,0,-2130161,0,3020101,21711819,31700009,40911319,3021121,4011061,0
10,121,1404.17117008474,1,0,288653.237565681,288654.284634473,0,4,6,0,1,18,0,6172311,4171231,8232251,3172270,0,0,0,2111181,4061130,0,0,0,0,0,0,1161160,0,0,0,0,0,-3010071,0,4151071,0,4081180,0,0,0,0,0,0,1131090,0,0,0,0,0,2041180,0
10,122,1392.77209108695,1,0,288656.778778832,288657.82588843,0,4,6,0,1,1,10,65342317,99014057,40343911,66603849,-2010070,30811419,0,0,20910809,0,0,11610019,0,1040151,2191190,0,11400719,0,31201019,10410819,40700119,2070040,0,31111509,4140140,0,0,0,0,4091061,1001201,22011409,0,0,41511319,0,3081121,0,0,0
10,123,852.207599731628,1,0,288660.40235207,288661.449420092,0,4,6,0,1,20,20,96834779,189117626,149646596,150416747,0,2090201,0,31111519,30510609,2011141,0,0,31111309,40511909,1160021,40600619,21500609,3021121,10310309,0,30711719,41301319,30300009,-4021041,20200719,0,21500009,40411619,1100181,20511909,11601109,0,40000219,20811719,31411509,1101201,31010119,4071071,0,22010909
10,124,511.52831298532,0,0,288663.308269536,288664.355341793,0,4,6,1,0,17,0,5061160,4190081,0,8673202,0,0,0,2010040,0,0,0,0,3051120,0,0,0,3080051,0,0,0,-1110030,0,0,0,0,0,0,0,0,0,0,3151011,0,0,1151070,0,1201111,0,3170010,0
10,125,1008.36200913182,1,0,288666.061238933,288667.10830041,0,4,6,1,1,12,0,5231240,1070150,10370482,3191370,4071160,0,0,1160080,0,0,0,0,0,0,0,-1070150,0,0,0,0,0,0,0,4120131,0,0,0,0,4060181,2190170,0,0,1101170,0,0,2090200,0,0,0,0
10,126,1113.96873451304,0,0,288669.296569033,288670.34363205,0,4,6,0,0,19,0,3170070,9452522,9370312,0,0,0,0,0,0,3170070,0,0,0,3140110,3100181,1011141,0,0,0,2201090,0,0,-4190051,0,0,0,0,2150171,0,0,3030090,0,0,0,0,0,0,0,0,0
10,127,605.962701374665,0,0,288672.649547052,288673.696604295,0,4,6,1,0,27,20,137234584,206608325,136996636,85904576,0,31210109,0,10301619,21710219,11301109,21511519,41200009,0,30900809,40301409,4101040,41511319,42011119,10800909,30811609,2160000,4010111,11600919,40012009,0,40801519,0,40411109,0,0,-4171080,2080170,10001609,20311309,4090200,0,21110019,4090060,4020100,20201109
10,128,715.699288062751,0,0,288675.390759741,288676.437826608,0,4,6,1,0,28,5,21512009,13691989,7341362,106505591,21512009,0,0,0,0,0,0,0,0,0,0,0,0,0,3191170,0,0,10500819,0,0,2060201,0,1161111,0,4120050,0,0,-2130161,0,3020101,21711819,31700009,40911319,3021121,4011061,0
10,129,853.26662735315,1,0,288678.273135689,288679.320199092,0,4,6,1,1,32,10,97653909,47812021,128003497,77504249,2111001,40901009,11200409,40311209,0,0,0,1010131,2120150,0,0,2110091,0,4191111,0,0,41510819,0,0,41310719,0,0,0,0,40700919,4181050,41810809,20200209,0,0,2081111,-4111001,0,0,40901619,10210309
10,130,1044.32121251011,0,0,288681.367287131,288682.414355538,0,4,6,0,0,6,10,80354268,46404041,53023657,88981679,2140121,21511609,0,40001319,2011050,-3190050,0,0,11500119,4111181,40211709,0,0,0,0,0,0,2081151,0,1200200,0,31401719,0,10010419,0,10411319,0,0,40400819,0,0,0,10900009,3040031,4140201,30500619
10,131,894.251111079939,0,0,288684.47320375,288685.520266383,0,4,6,1,0,30,20,137403456,159914764,191928696,60265420,21711019,40200009,21510819,0,41300419,2181071,10500119,0,0,0,3110061,30600119,32000619,10800509,40100309,11301809,21201219,10800119,4101061,2081071,40700619,11000809,40911009,41611609,0,30212009,21310509,20702009,0,-3021171,0,3050170,1161181,0,31200709,1130180
10,132,631.860180117656,1,0,288687.449705733,288688.496771445,0,4,6,0,1,26,20,160796484,125736184,92526129,121926336,41200309,3161110,0,20400309,20501509,41111109,21902009,10410109,2110020,31500709,0,21711419,0,10210719,41210609,0,10801209,10301519,30711319,0,0,2171200,11200109,3051091,40201219,-1050080,4141111,10510209,4061201,0,11001519,30401809,32011009,2140180,31800409,0
10,133,608.58659533551,1,0,288690.202675515,288691.249743921,0,4,6,1,1,21,5,71356319,32062530,62780669,5141261,21411819,0,1021150,3181030,0,40611109,3041101,0,2090110,0,0,0,31001519,0,1061011,0,0,0,0,0,-1060151,0,40910009,0,0,20810509,0,0,1070111,4071150,0,0,0,0,0,0
10,134,1079.53898108099,1,0,288692.932114942,288693.979181039,0,4,6,1,1,25,20,96675826,168267344,78975090,179188754,0,0,0,3041180,20310419,20711309,41101509,0,11511409,30601519,0,2121150,30610719,40501209,11911109,42011119,10510519,0,4170120,3081200,3001171,31100309,0,10000209,-3151031,4071041,20400009,30000809,21401419,3171061,31800809,20301509,41401219,20010319,0,11101609
10,135,679.557613155339,0,0,288696.143912764,288697.190980401,0,4,6,0,0,5,5,10282173,56313079,34371669,27112260,0,0,4091011,0,-4090041,0,0,2101121,0,0,0,0,0,0,40901519,4011001,1000150,10400409,0,0,0,31300509,0,0,3071160,0,0,3180041,11201019,0,0,0,0,10701119,2030081,0
10,136,574.891732307151,0,0,288698.979244173,288700.026306805,0,4,6,0,0,11,5,55202118,47303420,5131322,16131380,0,3180090,0,20011009,32011019,0,0,0,0,30801709,-4041191,0,1160201,0,0,11300319,0,0,0,0,0,4011201,0,0,0,0,1120121,2010031,0,0,2070050,1140080,0,0,0,10911219
10,137,1141.08692447189,0,0,288701.779275432,288702.826336524,0,4,6,1,0,14,10,95302157,90226528,83964178,48803231,31110709,0,31210219,0,0,0,30810209,0,2171020,0,21501519,0,1151151,-4170000,40101119,0,20111619,3191120,0,1040041,0,0,10600709,32011919,0,40311509,0,0,0,0,41612019,0,0,1100001,2011041,4080170
10,138,949.978059856221,1,0,288705.085191589,288706.132251911,0,4,6,0,1,3,20,242338774,135713975,125366096,84436069,41901109,31810009,-3201081,40611709,30901019,0,10900709,41311319,41701819,0,11200409,11500519,0,41201019,41801409,0,30010619,0,31712009,0,30000519,4100110,1090110,11300019,21510409,4051011,21601909,4010180,31511809,20011409,4020021,20810319,2031170,0,0,2041161
10,139,550.184552907012,1,0,288708.202870305,288709.249941021,0,4,6,1,1,10,5,45231659,26991840,90555560,1151100,30400119,4030031,0,0,0,0,0,0,10801509,-2190001,0,0,20700809,0,0,0,0,4101030,40301219,0,1091200,1010090,3180051,3071191,41901809,0,0,0,0,0,0,0,1151100,0,0,0
10,140,1006.9037770154,0,0,288710.838191782,288711.885254414,0,4,6,0,0,7,0,3111200,6191162,10292252,3121181,0,0,0,0,0,0,-3111200,0,0,0,2021011,0,0,0,0,0,4170151,0,0,0,2141020,4151071,0,0,0,4000161,0,0,1080131,0,0,2041050,0,0,0,0
10,141,588.202142564114,0,0,288713.90881672,288714.955878197,0,4,6,1,0,4,0,5271311,1040050,5111321,6233270,0,0,0,-3120201,0,0,2151110,0,0,0,0,0,0,0,0,0,0,1040050,0,4031150,0,0,0,1080171,0,0,0,1111010,0,4021110,0,0,1101150,0,0,0
10,142,1064.13207342848,1,0,288716.755910226,288717.802971319,0,4,6,0,1,31,5,125533646,1131040,31583850,9531551,0,31912019,20010409,0,42000609,0,31610609,0,0,0,0,0,0,1131040,0,0,0,0,0,20101509,0,4201191,0,4160080,0,3121070,0,0,0,0,-2030190,0,4180021,0,2171140,1150200
10,143,1975.94868112355,1,0,288719.897120451,288720.944183853,0,4,6,0,1,24,10,70432517,44893210,67832888,135124199,0,20310019,0,10100609,0,4090180,31910709,4021000,0,0,0,3051130,1131061,0,0,40711019,0,0,0,0,0,30610819,11710309,-4201141,21310619,0,0,40710319,41300319,0,4150021,0,4101191,3061030,0,41801319
10,144,624.010441242717,0,0,288724.108927512,288725.155992454,0,4,6,1,0,2,10,68762768,43792818,146627274,11511493,40400819,-3190140,0,21010619,4161190,0,0,0,0,0,0,31701619,1191180,0,0,10900019,0,0,41501309,10100109,0,41701709,0,11911819,10011019,31401309,0,0,0,3070071,3061020,2060070,0,1140151,2180181,0
10,145,1247.60254268767,0,0,288730.485460907,288731.532534319,0,4,7,1,0,30,20,137403456,159914764,191928696,60265420,21711019,40200009,21510819,0,41300419,2181071,10500119,0,0,0,3110061,30600119,32000619,10800509,40100309,11301809,21201219,10800119,4101061,2081071,40700619,11000809,40911009,41611609,0,30212009,21310509,20702009,0,-3021171,0,3050170,1161181,0,31200709,1130180
10,146,897.517889796291,0,0,288733.991383917,288735.038451554,0,4,7,1,0,25,20,96675826,168267344,78975090,179188754,0,0,0,3041180,20310419,20711309,41101509,0,11511409,30601519,0,2121150,30610719,40501209,11911109,42011119,10510519,0,4170120,3081200,3001171,31100309,0,10000209,-3151031,4071041,20400009,30000809,21401419,3171061,31800809,20301509,41401219,20010319,0,11101609
10,147,1528.1909632613,1,0,288737.120884399,288738.167895832,0,4,7,1,1,2,10,68762768,43792818,146627274,11511493,40400819,-3190140,0,21010619,4161190,0,0,0,0,0,0,31701619,1191180,0,0,10900019,0,0,41501309,10100109,0,41701709,0,11911819,10011019,31401309,0,0,0,3070071,3061020,2060070,0,1140151,2180181,0
10,148,799.68352621654,0,0,288740.862057437,288741.909117759,0,4,7,0,0,20,10,14321341,123935856,118063748,35111149,10301119,0,0,0,0,0,3010151,1010071,0,0,0,11912009,30900319,2110121,31110519,4190160,11701409,32011319,2140141,-3001180,0,41200309,30510709,0,41211409,0,0,31800919,0,1190150,0,2120080,0,0,0,0
10,149,581.063426448964,0,0,288743.779726991,288744.826789623,0,4,7,1,0,21,5,71356319,32062530,62780669,5141261,21411819,0,1021150,3181030,0,40611109,3041101,0,2090110,0,0,0,31001519,0,1061011,0,0,0,0,0,-1060151,0,40910009,0,0,20810509,0,0,1070111,4071150,0,0,0,0,0,0
10,150,593.304415117018,0,0,288746.438582671,288747.485644149,0,4,7,1,0,10,5,45231659,26991840,90555560,1151100,30400119,4030031,0,0,0,0,0,0,10801509,-2190001,0,0,20700809,0,0,0,0,4101030,40301219,0,1091200,1010090,3180051,3071191,41901809,0,0,0,0,0,0,0,1151100,0,0,0
10,151,919.983826577663,1,0,288749.179781501,288750.226852988,0,4,7,0,1,11,10,79555000,25383769,74824868,98505847,3080050,1100090,31001409,0,2081071,0,40111219,2181161,0,0,-4001030,0,0,1171020,20211719,0,0,0,0,30401609,0,2100041,21311809,21011409,0,0,0,0,31011209,0,30800709,11901819,0,0,21601009,3191101
10,152,503.540373058058,1,0,288752.15632044,288753.203356126,0,4,7,1,1,4,0,5271311,1040050,5111321,6233270,0,0,0,-3120201,0,0,2151110,0,0,0,0,0,0,0,0,0,0,1040050,0,4031150,0,0,0,1080171,0,0,0,1111010,0,4021110,0,0,1101150,0,0,0
10,153,1589.29081214592,0,1,288754.897494633,288755.944566504,0,4,7,0,1,1,5,9212421,96523768,50293671,11811889,-3151180,0,2051101,0,0,4010140,0,0,0,3011031,0,31400309,0,0,41110609,0,0,21001819,0,40911409,0,0,0,4191101,3151110,0,2040051,0,0,0,10800719,1011170,0,0,0,0
10,154,1499.94868732756,1,0,288758.544590526,288759.591660088,0,4,7,1,1,32,10,97653909,47812021,128003497,77504249,2111001,40901009,11200409,40311209,0,0,0,1010131,2120150,0,0,2110091,0,4191111,0,0,41510819,0,0,41310719,0,0,0,0,40700919,4181050,41810809,20200209,0,0,2081111,-4111001,0,0,40901619,10210309
10,155,584.128870570567,0,0,288762.203454676,288763.250525392,0,4,7,0,0,3,0,4221180,4042102,6280142,6280192,0,0,-3181140,0,0,0,0,1040040,0,0,3031041,0,0,0,0,0,1011061,0,0,0,2090131,0,4190011,0,0,0,0,0,4200011,0,0,0,0,0,0,2080181
10,156,839.556627615821,0,0,288764.968188094,288766.01526035,0,4,7,1,0,28,5,21512009,13691989,7341362,106505591,21512009,0,0,0,0,0,0,0,0,0,0,0,0,0,3191170,0,0,10500819,0,0,2060201,0,1161111,0,4120050,0,0,-2130161,0,3020101,21711819,31700009,40911319,3021121,4011061,0
10,157,1044.82243163511,0,0,288767.944695466,288768.9917939,0,4,7,0,0,6,20,139947306,169316104,72445031,209986085,2141050,11800509,0,40001909,41111309,-3091001,0,30801519,11000009,10511709,0,20500719,21211509,0,31200409,4080030,40300809,41510919,20001319,0,2151111,4070001,2181081,11300109,2041091,0,30700319,41600819,0,31200619,40401409,0,32000109,1161201,21611519,42010409
10,158,1357.39802836906,1,0,288771.121202762,288772.168266549,0,4,7,0,1,7,0,6071231,5162152,3091160,6242262,4030140,0,0,0,0,0,-2041091,0,0,2110100,0,2021031,0,0,0,0,1031021,0,3091160,0,0,0,0,0,0,0,0,2111081,0,0,0,0,4131181,0,0,0
10,159,971.24984767288,1,0,288774.662414757,288775.709484319,0,4,7,1,1,14,10,95302157,90226528,83964178,48803231,31110709,0,31210219,0,0,0,30810209,0,2171020,0,21501519,0,1151151,-4170000,40101119,0,20111619,3191120,0,1040041,0,0,10600709,32011919,0,40311509,0,0,0,0,41612019,0,0,1100001,2011041,4080170
10,160,1251.83595839189,1,0,288777.803630757,288778.850697239,0,4,7,0,1,24,0,8242442,0,5300122,5331372,1020140,0,0,0,4091151,0,0,1041071,2090080,0,0,0,0,0,0,0,0,0,0,0,0,0,0,-3180071,0,2120051,0,0,3191171,0,0,0,0,0,0,2140201
10,161,727.781287801918,0,0,288781.14483436,288782.191909311,0,4,7,0,0,26,5,72753399,11391252,13282461,57003640,2141081,0,30411309,0,40201009,0,0,0,0,0,0,0,0,0,4101091,0,4100010,3190151,0,0,0,0,0,2130191,10111209,-1041061,0,2110021,0,31600619,0,0,0,2081181,0,21211819
10,162,1255.54698205087,1,0,288784.038991269,288785.086058521,0,4,7,0,1,5,10,45032209,76905247,103044498,76383129,0,0,0,0,-4110181,0,20811009,0,20111019,21800819,22001909,0,1091100,0,0,0,32011419,0,2111020,4110191,4101150,0,20410119,41301009,31011009,0,0,40410809,0,0,0,1000191,0,1051000,2021020,31900109
10,163,1593.31904357532,1,0,288787.439027686,288788.486088009,0,4,7,0,1,31,20,148026764,72623328,123264107,245668323,11911309,1090200,11500119,0,21400809,20911609,40110809,41101909,0,4170060,0,4020111,21710919,0,20910419,21811819,0,0,3050030,0,2040191,20600919,41701919,0,4070010,41500619,10300419,42010409,41811119,41510209,-3040090,21511609,4051060,20411409,30511809,40810609
10,164,1259.20526607661,1,0,288791.239061255,288792.286131971,0,4,7,0,1,19,20,131187514,99515297,77355080,209468434,21711309,10000009,31101219,0,31101509,4191200,1170040,11610419,20301809,41711619,4091131,0,0,0,11510309,10500319,31701919,0,-1180161,30510419,0,2130131,21301809,0,1151190,1070161,20011209,10700419,21010719,3140121,40701709,0,30501219,40500809,30911919,32001519
10,165,1280.59446701081,1,0,288794.650862464,288795.697932411,0,4,7,1,1,12,0,5231240,1070150,10370482,3191370,4071160,0,0,1160080,0,0,0,0,0,0,0,-1070150,0,0,0,0,0,0,0,4120131,0,0,0,0,4060181,2190170,0,0,1101170,0,0,2090200,0,0,0,0
10,166,687.666045909282,0,0,288798.015632223,288799.062679072,0,4,7,1,0,17,0,5061160,4190081,0,8673202,0,0,0,2010040,0,0,0,0,3051120,0,0,0,3080051,0,0,0,-1110030,0,0,0,0,0,0,0,0,0,0,3151011,0,0,1151070,0,1201111,0,3170010,0
10,167,606.506651267409,0,0,288800.909759104,288801.956829051,0,4,7,1,0,27,20,137234584,206608325,136996636,85904576,0,31210109,0,10301619,21710219,11301109,21511519,41200009,0,30900809,40301409,4101040,41511319,42011119,10800909,30811609,2160000,4010111,11600919,40012009,0,40801519,0,40411109,0,0,-4171080,2080170,10001609,20311309,4090200,0,21110019,4090060,4020100,20201109
10,168,1155.44866304845,0,0,288803.75685492,288804.803911778,0,4,7,0,0,18,5,35662500,16923759,56664388,42631689,1180101,0,0,0,0,4081180,0,30401219,0,0,0,2091150,0,3061050,0,0,10701519,-1070040,1181170,40410609,11001419,4071190,0,0,0,0,0,0,0,0,0,0,0,2131070,40500619,0
10,169,1133.74879863113,0,0,288812.686361254,288813.733431586,0,4,8,1,0,25,20,96675826,168267344,78975090,179188754,0,0,0,3041180,20310419,20711309,41101509,0,11511409,30601519,0,2121150,30610719,40501209,11911109,42011119,10510519,0,4170120,3081200,3001171,31100309,0,10000209,-3151031,4071041,20400009,30000809,21401419,3171061,31800809,20301509,41401219,20010319,0,11101609
10,170,487.721942248754,0,0,288815.992325146,288817.039348898,0,4,8,0,0,26,5,14273411,1190091,56205108,77300888,0,0,4150000,4111080,0,0,2011130,4001201,0,0,0,0,0,0,0,0,0,1190091,0,0,0,0,11201519,11711509,0,-2180071,31112009,0,0,41400009,0,0,3190150,31610709,0,1100020
10,171,801.744607160799,1,0,288818.686424773,288819.733493179,0,4,8,1,1,17,0,5061160,4190081,0,8673202,0,0,0,2010040,0,0,0,0,3051120,0,0,0,3080051,0,0,0,-1110030,0,0,0,0,0,0,0,0,0,0,3151011,0,0,1151070,0,1201111,0,3170010,0
10,172,544.091005809605,1,1,288821.709989003,288822.757046246,0,4,8,0,0,6,0,10410412,4001040,10501292,2070040,2150131,0,0,0,0,-4170090,4090191,0,0,0,0,0,0,0,0,4001040,0,0,0,0,4180030,0,0,0,4130101,2191161,0,0,0,0,2070040,0,0,0,0,0
10,173,623.068826680537,1,0,288824.357074117,288825.404135979,0,4,8,0,1,5,5,12033513,12011709,21412038,64313701,3031121,0,0,0,-2001161,0,4001111,3000120,0,0,0,0,0,0,0,12011709,0,0,0,0,0,0,0,0,10500119,10911919,0,0,0,31511609,21310719,4150010,2020191,0,4170141,1151031
10,174,1056.91059079254,0,0,288827.098284496,288828.145343279,0,4,8,0,0,31,10,67715419,79994626,34143690,75292989,31011609,10800519,20711009,1001031,0,1160130,0,0,3031121,11301519,30200919,20500419,0,4180120,0,0,3200140,10611509,1071151,0,0,30011419,0,0,3061120,0,0,0,0,0,-3191071,0,41600809,0,30501109,0
10,175,941.530476498883,0,0,288830.298315601,288831.345384007,0,4,8,0,0,24,0,2261251,6211182,4141100,5382261,1061050,0,0,0,0,0,0,0,1200201,0,0,0,0,0,0,0,2171011,4040171,0,0,0,0,0,-4141100,0,0,0,1181170,0,2050091,0,0,2151000,0,0,0
10,176,2056.25192256412,1,0,288833.486588458,288834.533648396,0,4,8,1,1,2,10,68762768,43792818,146627274,11511493,40400819,-3190140,0,21010619,4161190,0,0,0,0,0,0,31701619,1191180,0,0,10900019,0,0,41501309,10100109,0,41701709,0,11911819,10011019,31401309,0,0,0,3070071,3061020,2060070,0,1140151,2180181,0
10,177,840.994071855675,1,0,288837.627797528,288838.674869784,0,4,8,1,1,10,5,45231659,26991840,90555560,1151100,30400119,4030031,0,0,0,0,0,0,10801509,-2190001,0,0,20700809,0,0,0,0,4101030,40301219,0,1091200,1010090,3180051,3071191,41901809,0,0,0,0,0,0,0,1151100,0,0,0
10,178,760.75704372488,0,0,288840.710191107,288841.75725528,0,4,8,0,0,18,10,85505638,57093531,106813408,54801778,21211609,0,0,21902019,0,41311809,0,0,1080201,3090051,0,0,0,4031020,4120021,20801519,21910719,-3140201,0,3180181,0,0,30111809,41711309,31810109,0,0,0,2140080,41000719,1160070,0,0,10500909,0,0
10,179,1253.83660051739,1,0,288843.616113193,288844.663173131,0,4,8,0,1,19,5,16103170,87431508,47671861,1031060,0,1061111,0,0,3141140,0,0,11900919,0,10510219,0,0,2081080,30600009,0,3030181,0,41210019,-4080011,0,0,0,1111201,40410609,2070040,0,0,0,0,0,0,1031060,0,0,0,0
10,180,859.957633831073,1,0,288846.98084407,288848.027908243,0,4,8,1,1,14,10,95302157,90226528,83964178,48803231,31110709,0,31210219,0,0,0,30810209,0,2171020,0,21501519,0,1151151,-4170000,40101119,0,20111619,3191120,0,1040041,0,0,10600709,32011919,0,40311509,0,0,0,0,41612019,0,0,1100001,2011041,4080170
10,181,608.794859203044,0,0,288849.96911277,288851.016186181,0,4,8,1,0,4,0,5271311,1040050,5111321,6233270,0,0,0,-3120201,0,0,2151110,0,0,0,0,0,0,0,0,0,0,1040050,0,4031150,0,0,0,1080171,0,0,0,1111010,0,4021110,0,0,1101150,0,0,0
10,182,568.974882364273,1,0,288852.733850808,288853.780956556,0,4,8,1,1,12,0,5231240,1070150,10370482,3191370,4071160,0,0,1160080,0,0,0,0,0,0,0,-1070150,0,0,0,0,0,0,0,4120131,0,0,0,0,4060181,2190170,0,0,1101170,0,0,2090200,0,0,0,0
10,183,2350.33476463286,1,0,288855.510349403,288856.557416655,0,4,8,1,1,27,20,137234584,206608325,136996636,85904576,0,31210109,0,10301619,21710219,11301109,21511519,41200009,0,30900809,40301409,4101040,41511319,42011119,10800909,30811609,2160000,4010111,11600919,40012009,0,40801519,0,40411109,0,0,-4171080,2080170,10001609,20311309,4090200,0,21110019,4090060,4020100,20201109
10,184,1020.24421410169,0,0,288859.957456922,288861.004525714,0,4,8,0,0,3,20,181604534,163516668,118927368,169566905,40700519,0,-4160130,0,31210509,21810519,30800419,41812019,11110419,2081011,41201109,0,40410109,41800919,4001160,0,3111141,30911219,20511819,0,20311819,1180161,40710409,0,32000909,2021190,2191061,0,11501719,30910309,41211409,0,20111619,3021011,41010319,21800519
10,185,1178.04240679834,1,0,288863.204546425,288864.251613677,0,4,8,1,1,32,10,97653909,47812021,128003497,77504249,2111001,40901009,11200409,40311209,0,0,0,1010131,2120150,0,0,2110091,0,4191111,0,0,41510819,0,0,41310719,0,0,0,0,40700919,4181050,41810809,20200209,0,0,2081111,-4111001,0,0,40901619,10210309
10,186,898.530722071882,0,0,288866.486941082,288867.534009104,0,4,8,0,0,11,20,147794837,139097036,78544008,110117375,40001209,1150101,31000009,10110509,1011110,40910809,21600919,0,2010171,40700609,-1140021,20011819,0,21010819,11411409,11010809,31711409,2100141,1200021,11210609,41611919,0,3020150,0,21501309,0,0,30010819,0,10901219,11610719,11901819,0,12010409,30501219,3181171
10,187,1692.66745867208,1,0,288869.592913906,288870.639922643,0,4,8,1,1,30,20,137403456,159914764,191928696,60265420,21711019,40200009,21510819,0,41300419,2181071,10500119,0,0,0,3110061,30600119,32000619,10800509,40100309,11301809,21201219,10800119,4101061,2081071,40700619,11000809,40911009,41611609,0,30212009,21310509,20702009,0,-3021171,0,3050170,1161181,0,31200709,1130180
10,188,782.490399724338,0,0,288873.487023079,288874.534087251,0,4,8,1,0,28,5,21512009,13691989,7341362,106505591,21512009,0,0,0,0,0,0,0,0,0,0,0,0,0,3191170,0,0,10500819,0,0,2060201,0,1161111,0,4120050,0,0,-2130161,0,3020101,21711819,31700009,40911319,3021121,4011061,0
10,189,1420.24367518025,0,0,288876.428224912,288877.475289469,0,4,8,0,0,7,10,19253001,79684408,67352678,87821948,2061130,0,12011609,0,2120201,0,-3060061,0,0,31600919,0,0,11910519,31910709,0,2161131,0,2101130,4041031,10600909,0,0,0,21100119,0,0,31610619,11100419,1080090,0,0,0,40400419,0,4030201,31210819
10,190,1439.87976387143,1,0,288880.063562172,288881.110628654,0,4,8,0,1,1,20,102783606,232449283,149626225,96822206,-2130060,0,10110019,3030060,21712009,0,4100030,21000619,40700809,1131180,40411809,11010309,21900409,31211419,3061200,41710719,41401619,40610619,11610219,21701509,40501909,4190050,0,41511219,30111319,0,0,0,10601019,0,40010819,11600309,31400009,1180030,2030020,0
10,191,2124.14286780404,1,0,288883.67536138,288884.722423242,0,4,8,0,1,20,0,4051101,4201170,10211430,11312393,0,0,0,0,4051101,0,0,0,0,0,0,0,4201170,0,0,0,0,0,4060140,-4080100,0,0,0,0,0,2071190,0,0,0,3191161,0,4111151,0,0,4010081,0
10,192,642.005826288369,0,0,288887.875414042,288888.92247398,0,4,8,1,0,21,5,71356319,32062530,62780669,5141261,21411819,0,1021150,3181030,0,40611109,3041101,0,2090110,0,0,0,31001519,0,1061011,0,0,0,0,0,-1060151,0,40910009,0,0,20810509,0,0,1070111,4071150,0,0,0,0,0,0
10,193,706.740091613028,1,0,288894.063712307,288895.110779944,0,4,9,1,1,27,20,137234584,206608325,136996636,85904576,0,31210109,0,10301619,21710219,11301109,21511519,41200009,0,30900809,40301409,4101040,41511319,42011119,10800909,30811609,2160000,4010111,11600919,40012009,0,40801519,0,40411109,0,0,-4171080,2080170,10001609,20311309,4090200,0,21110019,4090060,4020100,20201109
10,194,516.146304726135,0,0,288896.94608941,288897.993165901,0,4,9,1,0,21,5,71356319,32062530,62780669,5141261,21411819,0,1021150,3181030,0,40611109,3041101,0,2090110,0,0,0,31001519,0,1061011,0,0,0,0,0,-1060151,0,40910009,0,0,20810509,0,0,1070111,4071150,0,0,0,0,0,0
10,195,966.040555911604,0,0,288899.546123441,288900.59321533,0,4,9,0,0,19,0,1131010,7120081,6333112,5202261,1131010,0,0,0,0,0,0,0,0,0,0,0,0,3020080,0,4100001,0,0,-3081001,0,0,0,0,1111000,0,0,2141111,0,0,0,0,2121101,0,0,3081160,0
10,196,3081.60814619623,0,0,288902.628520485,288903.675575418,0,4,9,1,0,28,5,21512009,13691989,7341362,106505591,21512009,0,0,0,0,0,0,0,0,0,0,0,0,0,3191170,0,0,10500819,0,0,2060201,0,1161111,0,4120050,0,0,-2130161,0,3020101,21711819,31700009,40911319,3021121,4011061,0
10,197,1863.62746660598,0,0,288907.828570453,288908.87563655,0,4,9,1,0,2,10,68762768,43792818,146627274,11511493,40400819,-3190140,0,21010619,4161190,0,0,0,0,0,0,31701619,1191180,0,0,10900019,0,0,41501309,10100109,0,41701709,0,11911819,10011019,31401309,0,0,0,3070071,3061020,2060070,0,1140151,2180181,0
10,198,819.636822678149,0,0,288911.84037605,288912.887486033,0,4,9,0,0,26,20,220757024,110896136,129254147,90965207,30410309,21711409,21810619,42001609,0,30011309,41211109,2000151,31600509,10600519,0,21700309,21310719,31011309,0,3010071,21212009,2051200,2161180,31200309,0,30701209,20111219,1030011,41900019,-2150200,0,11901009,11310419,41000719,0,1160030,0,4181121,0,21411909
10,199,771.732280729339,0,0,288914.899237736,288915.94633617,0,4,9,0,0,1,0,3111000,10443411,2240171,2150190,-3111000,0,0,0,0,0,0,0,0,0,0,2111091,4130110,0,0,2131100,0,2071110,0,1110080,1130091,0,0,0,0,0,0,0,0,0,2150190,0,0,0,0,0
10,200,1227.33473306289,1,0,288917.769851202,288918.816920379,0,4,9,0,1,7,10,120283879,52961889,134234146,16875333,3090071,40600919,0,40900709,2190001,30401019,-3101160,0,0,0,0,10110609,0,1151161,0,0,41700119,0,0,0,0,41211409,0,40810809,30701019,21510909,0,0,0,1191031,2181041,2181181,1010161,10311919,0,0
10,201,931.606952857692,1,0,288921.134594784,288922.181658956,0,4,9,1,1,25,20,96675826,168267344,78975090,179188754,0,0,0,3041180,20310419,20711309,41101509,0,11511409,30601519,0,2121150,30610719,40501209,11911109,42011119,10510519,0,4170120,3081200,3001171,31100309,0,10000209,-3151031,4071041,20400009,30000809,21401419,3171061,31800809,20301509,41401219,20010319,0,11101609
10,202,616.576460073702,1,0,288924.13462789,288925.181696297,0,4,9,0,1,31,5,30611719,75743079,31002900,18882622,0,0,0,30611719,0,0,0,0,0,0,0,0,0,0,0,41700619,31011409,3031051,0,0,2060180,20711419,2051100,2080121,0,0,4100080,0,0,0,-2151051,1010031,11600509,0,4121031,0
10,203,491.839869646356,1,0,288926.864066933,288927.911131875,0,4,9,0,1,20,20,167978795,120586527,141706504,84695838,30411419,11811009,0,0,10510819,31501709,2031001,41310819,40402019,0,41501819,31511119,0,10601109,30901209,0,3040200,3031071,41600419,-3041110,0,3031100,20711419,10810409,10800119,31601319,20110609,40110209,11501719,11811609,10800819,3191181,0,4150191,3130110,0
10,204,1392.91260181926,1,0,288929.511201707,288930.558228538,0,4,9,0,1,5,5,25903049,85711829,26022430,30582290,0,21810719,0,0,-1021170,0,0,3071160,0,0,41210909,0,0,0,40410809,0,4090111,0,20801209,0,0,0,2131190,0,0,3090031,0,0,21201119,4060011,0,0,3191160,2130000,0,0
10,205,767.106589803007,1,0,288932.981775291,288934.028844468,0,4,9,1,1,14,10,95302157,90226528,83964178,48803231,31110709,0,31210219,0,0,0,30810209,0,2171020,0,21501519,0,1151151,-4170000,40101119,0,20111619,3191120,0,1040041,0,0,10600709,32011919,0,40311509,0,0,0,0,41612019,0,0,1100001,2011041,4080170
10,206,901.353255845606,0,0,288935.840642443,288936.887699686,0,4,9,0,0,24,0,4220131,9422252,7260192,3131080,0,0,0,3190050,0,0,1030081,0,0,0,1201160,0,0,0,4171061,4050031,0,0,0,0,0,0,0,-4060171,0,3200021,0,0,0,0,0,0,0,0,0,3131080
10,207,828.0740120681,0,0,288938.887728173,288939.934796965,0,4,9,1,0,12,0,5231240,1070150,10370482,3191370,4071160,0,0,1160080,0,0,0,0,0,0,0,-1070150,0,0,0,0,0,0,0,4120131,0,0,0,0,4060181,2190170,0,0,1101170,0,0,2090200,0,0,0,0
10,208,438.500448770355,0,0,288941.958352726,288943.005419593,0,4,9,1,0,10,5,45231659,26991840,90555560,1151100,30400119,4030031,0,0,0,0,0,0,10801509,-2190001,0,0,20700809,0,0,0,0,4101030,40301219,0,1091200,1010090,3180051,3071191,41901809,0,0,0,0,0,0,0,1151100,0,0,0
10,209,1145.54785203654,0,0,288944.464261107,288945.51132451,0,4,9,1,0,30,20,137403456,159914764,191928696,60265420,21711019,40200009,21510819,0,41300419,2181071,10500119,0,0,0,3110061,30600119,32000619,10800509,40100309,11301809,21201219,10800119,4101061,2081071,40700619,11000809,40911009,41611609,0,30212009,21310509,20702009,0,-3021171,0,3050170,1161181,0,31200709,1130180
10,210,771.74844907131,1,0,288947.723150048,288948.770182269,0,4,9,1,1,17,0,5061160,4190081,0,8673202,0,0,0,2010040,0,0,0,0,3051120,0,0,0,3080051,0,0,0,-1110030,0,0,0,0,0,0,0,0,0,0,3151011,0,0,1151070,0,1201111,0,3170010,0
10,211,623.168531572446,1,0,288950.746685022,288951.793743419,0,4,9,0,1,11,10,112414737,98864097,42950510,65173020,0,0,41111809,40301419,0,0,31001509,0,0,0,-1041090,21900619,0,21310409,31410019,2201051,21000909,0,0,0,0,0,1050191,0,41900319,0,0,0,1110061,3201060,3040080,40110509,4110040,10500109,3101161,0
10,212,1170.76779954368,0,0,288953.429059507,288954.476128299,0,4,9,0,0,18,20,211654063,48784129,165436913,92056579,40801619,41911719,10912009,20801919,31711019,10911219,41911909,11511509,1181141,20100919,0,0,1030040,3031170,0,20610919,0,-4011081,10201319,0,20311619,31400319,0,41310009,20000609,31611819,10601219,31900019,0,20001609,2031061,0,2191101,3020190,2111190,30801409
10,213,924.17990101967,1,0,288956.6526252,288957.699693607,0,4,9,0,1,6,5,91984839,4251202,62922328,5292311,0,40500509,2180091,0,21601609,-3121041,3081080,21500509,0,0,0,0,1181111,0,0,3070091,0,0,0,21711609,41210719,0,0,0,0,0,0,1021191,0,2170020,0,0,0,0,2101100,0
10,214,1473.09573541861,0,0,288959.805603297,288960.852675168,0,4,9,0,0,3,10,80315578,94025977,87063019,48802479,2131060,0,-4071061,20910419,0,0,12001819,41201219,0,3101140,0,40011719,0,0,40901709,0,0,10011409,0,40011319,0,0,3150150,0,0,3101141,40800409,10811119,0,0,0,30810109,0,3110041,2021150,2050060
10,215,972.062885179184,1,0,288963.511527384,288964.558590401,0,4,9,1,1,32,10,97653909,47812021,128003497,77504249,2111001,40901009,11200409,40311209,0,0,0,1010131,2120150,0,0,2110091,0,4191111,0,0,41510819,0,0,41310719,0,0,0,0,40700919,4181050,41810809,20200209,0,0,2081111,-4111001,0,0,40901619,10210309
10,216,1103.72800304322,1,0,288966.546858331,288967.593952145,0,4,9,1,1,4,0,5271311,1040050,5111321,6233270,0,0,0,-3120201,0,0,2151110,0,0,0,0,0,0,0,0,0,0,1040050,0,4031150,0,0,0,1080171,0,0,0,1111010,0,4021110,0,0,1101150,0,0,0
10,217,708.566731365863,1,0,288990.605937135,288991.653007466,0,4,10,0,1,6,5,20362309,17592891,59043478,4351230,0,2061060,10110109,0,0,-4001140,0,4190000,0,4050151,0,0,0,11501709,2041031,0,0,0,11410309,0,4110031,0,31611819,0,0,0,11911319,0,0,0,0,2160140,0,0,2191090,0
10,218,696.579816984013,0,0,288993.37070212,288994.417743964,0,4,10,1,0,12,0,5231240,1070150,10370482,3191370,4071160,0,0,1160080,0,0,0,0,0,0,0,-1070150,0,0,0,0,0,0,0,4120131,0,0,0,0,4060181,2190170,0,0,1101170,0,0,2090200,0,0,0,0
10,219,1661.57608665526,0,0,288996.311889324,288997.358945797,0,4,10,0,0,31,20,132117355,151930515,125426274,50786278,3100060,20701819,41511219,0,1080140,20711009,20100009,3201190,21711909,11101909,1041140,22011409,4140101,11011309,41501709,31111619,30011319,0,0,11301909,0,31410619,21701809,20110009,30201419,0,10700509,11310519,21111719,2100021,-2071110,0,2181190,0,12011719,0
10,220,1425.36404088605,1,0,289000.111922508,289001.158989375,0,4,10,0,1,3,0,5291241,5060252,1061031,5390353,0,2170091,-3121150,0,0,0,0,0,0,0,3000201,2060051,0,0,0,0,0,0,0,0,0,0,0,0,0,0,1061031,0,0,1040161,0,0,0,1160161,3190031,0
10,221,891.297690628562,1,0,289003.66490353,289004.711968472,0,4,10,1,1,14,10,95302157,90226528,83964178,48803231,31110709,0,31210219,0,0,0,30810209,0,2171020,0,21501519,0,1151151,-4170000,40101119,0,20111619,3191120,0,1040041,0,0,10600709,32011919,0,40311509,0,0,0,0,41612019,0,0,1100001,2011041,4080170
10,222,793.461402179673,0,0,289006.617877469,289007.664944721,0,4,10,1,0,17,0,5061160,4190081,0,8673202,0,0,0,2010040,0,0,0,0,3051120,0,0,0,3080051,0,0,0,-1110030,0,0,0,0,0,0,0,0,0,0,3151011,0,0,1151070,0,1201111,0,3170010,0
10,223,767.878051556181,1,0,289009.641440929,289010.688506257,0,4,10,0,1,24,0,7160181,2000051,9252070,7220112,0,3020030,0,0,0,0,0,0,4140151,0,0,0,0,0,2000051,0,0,0,0,4141010,0,3021050,0,-2090010,0,0,0,3130041,0,0,0,0,0,0,4090071,0
10,224,1222.30098355794,0,0,289012.465002542,289013.512069794,0,4,10,1,0,30,20,137403456,159914764,191928696,60265420,21711019,40200009,21510819,0,41300419,2181071,10500119,0,0,0,3110061,30600119,32000619,10800509,40100309,11301809,21201219,10800119,4101061,2081071,40700619,11000809,40911009,41611609,0,30212009,21310509,20702009,0,-3021171,0,3050170,1161181,0,31200709,1130180
10,225,1351.5908922418,1,0,289015.782681951,289016.829749973,0,4,10,0,1,1,5,9210270,32200349,45523049,46792309,-1070080,0,0,0,2050070,2020060,0,0,4070060,0,0,0,0,1200130,0,0,31000219,0,11801619,0,31700409,0,0,0,0,2021021,0,3191070,11100109,31300109,0,0,1201021,0,0,0
10,226,669.435064715799,1,0,289019.288603036,289020.335667978,0,4,10,1,1,21,5,71356319,32062530,62780669,5141261,21411819,0,1021150,3181030,0,40611109,3041101,0,2090110,0,0,0,31001519,0,1061011,0,0,0,0,0,-1060151,0,40910009,0,0,20810509,0,0,1070111,4071150,0,0,0,0,0,0
10,227,1120.10963173816,1,0,289022.076870657,289023.123940604,0,4,10,1,1,4,0,5271311,1040050,5111321,6233270,0,0,0,-3120201,0,0,2151110,0,0,0,0,0,0,0,0,0,0,1040050,0,4031150,0,0,0,1080171,0,0,0,1111010,0,4021110,0,0,1101150,0,0,0
10,228,875.854981655721,0,0,289025.265126576,289026.312245798,0,4,10,0,0,20,0,4102101,5261090,6332272,4161080,0,0,1031000,0,0,0,3071101,0,0,0,1061030,0,0,0,0,4200060,0,0,0,-2171181,0,0,0,0,4161091,0,0,2050070,0,2111010,0,0,0,0,0,0
10,229,865.253541735001,0,0,289028.241429523,289029.28870736,0,4,10,1,0,28,5,21512009,13691989,7341362,106505591,21512009,0,0,0,0,0,0,0,0,0,0,0,0,0,3191170,0,0,10500819,0,0,2060201,0,1161111,0,4120050,0,0,-2130161,0,3020101,21711819,31700009,40911319,3021121,4011061,0
10,230,810.457043640781,0,0,289031.30049294,289032.347562117,0,4,10,1,0,2,10,68762768,43792818,146627274,11511493,40400819,-3190140,0,21010619,4161190,0,0,0,0,0,0,31701619,1191180,0,0,10900019,0,0,41501309,10100109,0,41701709,0,11911819,10011019,31401309,0,0,0,3070071,3061020,2060070,0,1140151,2180181,0
10,231,1645.92973334948,1,0,289034.171159531,289035.218191366,0,4,10,1,1,25,20,96675826,168267344,78975090,179188754,0,0,0,3041180,20310419,20711309,41101509,0,11511409,30601519,0,2121150,30610719,40501209,11911109,42011119,10510519,0,4170120,3081200,3001171,31100309,0,10000209,-3151031,4071041,20400009,30000809,21401419,3171061,31800809,20301509,41401219,20010319,0,11101609
10,232,1138.03649379406,1,0,289038.041756828,289039.088814071,0,4,10,0,1,11,10,48123080,102433331,85185789,82413537,0,0,3121201,0,0,40810809,0,4191070,0,41101119,-3170031,31301119,1160191,0,0,20510709,2010111,3180051,0,0,1041091,0,0,10000809,41612019,2121051,30410819,41401109,0,0,30411419,0,10601009,0,0,0
10,233,1061.59402587218,0,0,289041.418254423,289042.465326679,0,4,10,0,0,7,20,125938325,108823927,202266775,159347005,30911809,4030080,30000609,11301819,30711419,11801219,-4111180,0,3070190,30800109,2070070,31601609,0,0,21410509,2131011,20810619,0,40700109,2141051,40710119,0,20901819,41401609,4100040,31701509,20610519,0,0,4021030,41811009,41911419,0,30100219,30701919,10801409
10,234,632.666288409382,1,0,289044.618295537,289045.665357014,0,4,10,0,1,19,10,135814846,85612938,47273301,40914720,0,41102009,0,30700809,0,0,32011619,32000409,0,31901019,10810219,0,0,0,0,1091081,41810619,0,-1140021,4051090,0,0,40901009,0,0,0,1181181,1110031,3201021,0,20510409,3041160,2050190,0,11001909,0
10,235,604.680011456367,1,0,289047.383036654,289048.430099287,0,4,10,1,1,27,20,137234584,206608325,136996636,85904576,0,31210109,0,10301619,21710219,11301109,21511519,41200009,0,30900809,40301409,4101040,41511319,42011119,10800909,30811609,2160000,4010111,11600919,40012009,0,40801519,0,40411109,0,0,-4171080,2080170,10001609,20311309,4090200,0,21110019,4090060,4020100,20201109
10,236,996.788542775903,0,0,289050.04188502,289051.088994618,0,4,10,0,0,18,5,45911291,30496438,30801919,46363590,0,1051121,4060161,40800009,0,0,0,0,0,0,10801919,1100070,0,10312019,0,3191070,2011170,-3080190,0,0,0,0,0,0,0,30801919,0,3191161,0,0,41011419,0,0,0,2161010,0
10,237,772.565721243154,0,0,289053.171321214,289054.218388466,0,4,10,0,0,26,10,52612028,90644348,67682019,113715839,41701809,0,0,0,0,0,0,10910219,0,3090100,0,0,0,11901009,4140011,30711909,0,40801319,20911809,0,0,0,41410119,4190030,0,-1170061,0,1161000,21601709,2020100,0,2201061,41700609,42000319,0,3031041
10,238,820.096081180964,1,0,289056.159597613,289057.206661015,0,4,10,1,1,10,5,45231659,26991840,90555560,1151100,30400119,4030031,0,0,0,0,0,0,10801509,-2190001,0,0,20700809,0,0,0,0,4101030,40301219,0,1091200,1010090,3180051,3071191,41901809,0,0,0,0,0,0,0,1151100,0,0,0
10,239,916.928776365239,0,0,289059.206683343,289060.25375021,0,4,10,0,0,5,20,119243797,106978195,94617656,139337325,0,20900009,31000719,4130061,-2001180,0,0,20601609,40610219,0,10901709,21602009,10210519,30500219,20201819,3160101,0,10401819,21111809,10800119,30010919,3031080,3091120,0,20410519,3121080,3041010,11411809,30400819,0,42001019,1110041,0,31510409,11001719,11901509
10,240,1227.46523487149,0,0,289062.324367449,289063.371432391,0,4,10,1,0,32,10,97653909,47812021,128003497,77504249,2111001,40901009,11200409,40311209,0,0,0,1010131,2120150,0,0,2110091,0,4191111,0,0,41510819,0,0,41310719,0,0,0,0,40700919,4181050,41810809,20200209,0,0,2081111,-4111001,0,0,40901619,10210309
10,241,732.120182772633,0,0,289071.418579715,289072.465640807,0,4,11,0,0,18,0,5251071,4280362,4141171,10272320,1091070,0,0,0,4160001,0,0,0,0,0,0,0,0,0,0,0,3190191,-1090171,0,0,0,0,0,0,0,4141171,0,0,4060140,3171090,0,3041090,0,0,0,0
10,242,683.499613369349,1,0,289074.348026765,289075.395093631,0,4,11,1,1,14,10,95302157,90226528,83964178,48803231,31110709,0,31210219,0,0,0,30810209,0,2171020,0,21501519,0,1151151,-4170000,40101119,0,20111619,3191120,0,1040041,0,0,10600709,32011919,0,40311509,0,0,0,0,41612019,0,0,1100001,2011041,4080170
10,243,853.186940366868,1,0,289077.183354324,289078.230417726,0,4,11,0,1,24,0,0,4192241,11281193,11231462,0,0,0,0,0,0,0,0,0,3021130,0,0,0,0,0,0,0,1171111,0,0,3141011,0,0,-4090101,0,0,4050081,0,0,0,4050151,0,4050121,3131190,0,0
10,244,903.062867524568,0,0,289080.183387431,289081.230448908,0,4,11,0,0,1,10,60302469,145917675,34264499,23663732,-1111071,0,0,3150030,0,21710109,4130040,0,30201219,41211109,0,0,31401309,0,11701719,21201819,40401719,0,0,0,0,0,0,3141171,10911419,20211909,0,0,4060190,0,11111309,0,4200091,2121111,0,2171031
10,245,732.823121536057,1,0,289083.265807572,289084.312841718,0,4,11,1,1,28,5,21512009,13691989,7341362,106505591,21512009,0,0,0,0,0,0,0,0,0,0,0,0,0,3191170,0,0,10500819,0,0,2060201,0,1161111,0,4120050,0,0,-2130161,0,3020101,21711819,31700009,40911319,3021121,4011061,0
10,246,1201.2513182126,0,0,289086.242275679,289087.289341006,0,4,11,1,0,32,10,97653909,47812021,128003497,77504249,2111001,40901009,11200409,40311209,0,0,0,1010131,2120150,0,0,2110091,0,4191111,0,0,41510819,0,0,41310719,0,0,0,0,40700919,4181050,41810809,20200209,0,0,2081111,-4111001,0,0,40901619,10210309
10,247,758.426875050645,0,0,289089.501135363,289090.548195685,0,4,11,1,0,27,20,137234584,206608325,136996636,85904576,0,31210109,0,10301619,21710219,11301109,21511519,41200009,0,30900809,40301409,4101040,41511319,42011119,10800909,30811609,2160000,4010111,11600919,40012009,0,40801519,0,40411109,0,0,-4171080,2080170,10001609,20311309,4090200,0,21110019,4090060,4020100,20201109
10,248,526.014009024948,0,0,289092.336463307,289093.38352286,0,4,11,1,0,21,5,71356319,32062530,62780669,5141261,21411819,0,1021150,3181030,0,40611109,3041101,0,2090110,0,0,0,31001519,0,1061011,0,0,0,0,0,-1060151,0,40910009,0,0,20810509,0,0,1070111,4071150,0,0,0,0,0,0
10,249,1439.54523280263,0,0,289094.91295582,289095.960021917,0,4,11,0,0,31,0,5242310,7293511,3242182,2051120,0,4111140,0,0,0,1131170,0,0,0,1131150,0,2111201,0,0,0,4051160,0,0,2181041,0,0,1061141,0,0,0,0,0,0,0,0,-2051120,0,0,0,0,0
10,250,714.383106504101,1,0,289098.571821125,289099.618893381,0,4,11,0,1,11,10,153525855,13503574,34232981,115985307,41301919,0,40211109,40000009,0,0,10911709,0,21101109,3140160,-3031151,2200011,0,0,3071121,2061131,0,0,0,0,0,2141111,31010809,0,0,0,1081061,0,0,40711819,11810609,2041051,0,0,20411619,41010209
10,251,1302.67313297372,1,0,289101.430675958,289102.47774706,0,4,11,1,1,30,20,137403456,159914764,191928696,60265420,21711019,40200009,21510819,0,41300419,2181071,10500119,0,0,0,3110061,30600119,32000619,10800509,40100309,11301809,21201219,10800119,4101061,2081071,40700619,11000809,40911009,41611609,0,30212009,21310509,20702009,0,-3021171,0,3050170,1161181,0,31200709,1130180
10,252,671.11041478347,0,0,289104.854242344,289105.90132538,0,4,11,0,0,7,5,63604301,20001509,23371709,7341123,0,3100181,0,3000121,4031081,40300309,-2161090,11011519,0,20001509,0,0,0,0,0,0,0,0,2060181,0,0,0,10911419,10400109,0,0,0,0,0,4060001,0,2141091,0,1140031,0,0
10,253,995.277570968028,1,0,289107.771923062,289108.818988004,0,4,11,0,1,6,5,41691131,5251081,33871228,47173669,0,31310009,0,4111050,0,-4130021,0,0,2140051,1110070,0,4141011,0,0,0,0,0,0,0,0,1060110,11500509,0,21310609,0,0,0,0,0,0,11501309,0,0,4170101,30501119,1001140
10,254,616.023271169979,0,0,289110.960185141,289112.007252392,0,4,11,1,0,10,5,45231659,26991840,90555560,1151100,30400119,4030031,0,0,0,0,0,0,10801509,-2190001,0,0,20700809,0,0,0,0,4101030,40301219,0,1091200,1010090,3180051,3071191,41901809,0,0,0,0,0,0,0,1151100,0,0,0
10,255,654.609448160045,1,0,289113.79551732,289114.842578412,0,4,11,0,1,3,5,38463022,33901410,30303251,51612228,30011719,0,-4170041,2141141,2140121,0,0,0,0,0,0,0,30700219,0,0,1000101,0,2201090,0,0,1070011,21101919,4000180,0,0,4131141,0,0,40400509,0,0,0,11211719,0,0,0
10,256,799.893714895006,0,0,289116.654377542,289117.701469432,0,4,11,1,0,17,0,5061160,4190081,0,8673202,0,0,0,2010040,0,0,0,0,3051120,0,0,0,3080051,0,0,0,-1110030,0,0,0,0,0,0,0,0,0,0,3151011,0,0,1151070,0,1201111,0,3170010,0
10,257,666.101687704213,1,0,289119.524994088,289120.572049021,0,4,11,1,1,4,0,5271311,1040050,5111321,6233270,0,0,0,-3120201,0,0,2151110,0,0,0,0,0,0,0,0,0,0,1040050,0,4031150,0,0,0,1080171,0,0,0,1111010,0,4021110,0,0,1101150,0,0,0
10,258,606.857350678183,1,0,289122.266201387,289123.313284808,0,4,11,0,1,5,10,30193640,84525156,71133039,51674029,0,4160181,0,11210419,-3001201,0,0,10710819,1111020,20701919,10101319,0,0,20511119,3010190,30200609,0,0,0,0,0,0,0,4121170,4110041,41700009,21201819,0,31611519,4070000,0,11911509,4081001,0,0,0
10,259,1158.80205796566,1,0,289124.972108921,289126.019173479,0,4,11,0,1,19,20,169267055,93968746,121777517,178827386,0,30701819,10202019,11400509,31410319,0,4141171,40900209,40511009,0,21510609,3041040,20901509,10710419,3071021,10311219,20411809,4011120,-4121141,3010030,0,40410909,41511609,0,21312019,0,11411809,0,0,30312009,1201000,41001319,21400509,4101111,40211219,40600219
10,260,1416.10034037149,0,0,289128.278042787,289129.325095025,0,4,11,1,0,25,20,96675826,168267344,78975090,179188754,0,0,0,3041180,20310419,20711309,41101509,0,11511409,30601519,0,2121150,30610719,40501209,11911109,42011119,10510519,0,4170120,3081200,3001171,31100309,0,10000209,-3151031,4071041,20400009,30000809,21401419,3171061,31800809,20301509,41401219,20010319,0,11101609
10,261,794.408791116439,0,0,289131.79571442,289132.842780132,0,4,11,0,0,20,20,68254819,158220115,150886595,159898055,0,31801019,1150061,11512019,0,0,21610619,0,2181101,41211509,12010409,11212009,3000170,4131051,20111419,4021020,42011719,20510809,11510009,-4160121,40801509,32011219,10601619,0,0,40500509,11301609,1181140,0,31301219,41611609,31310309,0,4171050,10311009,40011719
10,262,549.051227804739,0,0,289134.78397465,289135.831044212,0,4,11,0,0,26,20,117166327,103546226,124255996,111554866,0,20011409,0,0,40811119,4031181,0,11410709,40901909,2171041,0,4070181,31801519,11600819,10200709,11600119,12001819,20100019,21411809,11400109,30600219,31501009,2180010,0,22000619,-1001130,4161091,11001109,21501419,21500909,0,0,30710109,21610109,2121181,3110030
10,263,1233.74587291619,1,0,289137.466363379,289138.513426396,0,4,11,1,1,2,10,68762768,43792818,146627274,11511493,40400819,-3190140,0,21010619,4161190,0,0,0,0,0,0,31701619,1191180,0,0,10900019,0,0,41501309,10100109,0,41701709,0,11911819,10011019,31401309,0,0,0,3070071,3061020,2060070,0,1140151,2180181,0
10,264,1047.88325622212,1,0,289140.784105152,289141.83110773,0,4,11,1,1,12,0,5231240,1070150,10370482,3191370,4071160,0,0,1160080,0,0,0,0,0,0,0,-1070150,0,0,0,0,0,0,0,4120131,0,0,0,0,4060181,2190170,0,0,1101170,0,0,2090200,0,0,0,0
10,265,1069.53577051172,0,0,289147.078229185,289148.125306061,0,4,12,1,0,32,10,97653909,47812021,128003497,77504249,2111001,40901009,11200409,40311209,0,0,0,1010131,2120150,0,0,2110091,0,4191111,0,0,41510819,0,0,41310719,0,0,0,0,40700919,4181050,41810809,20200209,0,0,2081111,-4111001,0,0,40901619,10210309
10,266,854.44922739407,1,0,289150.266498962,289151.313573143,0,4,12,1,1,27,20,137234584,206608325,136996636,85904576,0,31210109,0,10301619,21710219,11301109,21511519,41200009,0,30900809,40301409,4101040,41511319,42011119,10800909,30811609,2160000,4010111,11600919,40012009,0,40801519,0,40411109,0,0,-4171080,2080170,10001609,20311309,4090200,0,21110019,4090060,4020100,20201109
10,267,768.043199845124,1,0,289153.254773051,289154.301839148,0,4,12,1,1,14,10,95302157,90226528,83964178,48803231,31110709,0,31210219,0,0,0,30810209,0,2171020,0,21501519,0,1151151,-4170000,40101119,0,20111619,3191120,0,1040041,0,0,10600709,32011919,0,40311509,0,0,0,0,41612019,0,0,1100001,2011041,4080170
10,268,1253.82620655,0,0,289156.254801923,289157.301868021,0,4,12,0,0,18,20,102114178,117151185,180532795,140774856,1200080,4031021,10800019,0,30201209,0,4071131,40300409,11510309,40400319,0,20910209,0,0,11510109,30400419,10800019,-3130110,31700009,10310109,31510809,41710019,3060161,40610219,1030150,0,20601319,30910419,30911109,30602009,0,3181030,10700119,0,3170151,31300019
10,269,646.391301532276,1,0,289159.725423243,289160.772497809,0,4,12,1,1,17,0,5061160,4190081,0,8673202,0,0,0,2010040,0,0,0,0,3051120,0,0,0,3080051,0,0,0,-1110030,0,0,0,0,0,0,0,0,0,0,3151011,0,0,1151070,0,1201111,0,3170010,0
10,270,700.799758953508,0,0,289162.607814204,289163.654892235,0,4,12,0,0,5,5,29122901,88007198,40700509,4261050,0,0,0,21001409,-3000171,0,0,1001160,4120161,11101719,1041150,0,40711209,2001090,31111019,0,0,2041011,0,0,0,0,0,0,0,0,40700509,1110000,0,0,0,0,0,0,0,3151050
10,271,1165.53117561853,1,0,289165.443132525,289166.490208246,0,4,12,0,1,26,5,38193822,28691258,34712230,47742781,0,1101051,31810419,0,1101161,0,0,4181191,0,0,10500319,0,0,0,4030150,0,3050070,11110719,0,0,0,0,30711109,0,0,-4001121,0,0,2061161,0,0,0,4081111,41600509,0,0
10,272,1400.27382533299,0,0,289168.678467245,289169.725535266,0,4,12,0,0,7,10,7361402,89123839,116506176,55533418,1060110,0,2060201,0,2201021,0,-2040070,0,0,41610209,0,2181101,0,4120201,30701209,0,0,10511119,4061021,21110109,21111009,0,20211509,10010509,0,40002019,0,41311509,0,0,0,4020090,10201819,0,0,0
10,273,1072.52499234164,1,0,289172.278511284,289173.325571222,0,4,12,0,1,31,20,109213446,135153989,231969393,105885058,3100081,0,11701009,41310119,0,11301009,20601219,21200009,0,4170031,11701619,2001011,0,3060181,41710219,40800419,31710509,0,31512019,11501709,21410009,2110001,40300109,40912009,31501419,11612009,41110109,4041020,31500609,0,-4131061,0,0,3200040,42001219,21011109
10,274,1518.66394939134,1,0,289175.607950481,289176.655025817,0,4,12,1,1,12,0,5231240,1070150,10370482,3191370,4071160,0,0,1160080,0,0,0,0,0,0,0,-1070150,0,0,0,0,0,0,0,4120131,0,0,0,0,4060181,2190170,0,0,1101170,0,0,2090200,0,0,0,0
10,275,574.96218016604,0,0,289179.278584042,289180.325650909,0,4,12,1,0,4,0,5271311,1040050,5111321,6233270,0,0,0,-3120201,0,0,2151110,0,0,0,0,0,0,0,0,0,0,1040050,0,4031150,0,0,0,1080171,0,0,0,1111010,0,4021110,0,0,1101150,0,0,0
10,276,529.660359199625,0,0,289181.913903209,289182.960974311,0,4,12,1,0,2,10,68762768,43792818,146627274,11511493,40400819,-3190140,0,21010619,4161190,0,0,0,0,0,0,31701619,1191180,0,0,10900019,0,0,41501309,10100109,0,41701709,0,11911819,10011019,31401309,0,0,0,3070071,3061020,2060070,0,1140151,2180181,0
10,277,1100.4188786028,0,0,289184.513942244,289185.560999872,0,4,12,0,0,6,5,47823039,2171301,58974190,32851099,30011709,0,0,0,4060181,-3150040,0,0,10601109,0,0,0,1061110,0,0,1110191,0,0,0,1070001,3070150,0,0,4131001,40501219,10201819,0,0,0,30810919,0,0,0,2040180,0,0
10,278,773.214380431455,1,0,289187.796321503,289188.843391065,0,4,12,0,1,20,20,101435886,66253717,140619315,140939595,1041141,20700809,21310209,20900309,0,21110619,2120100,3051180,11201519,11300309,0,0,2031190,0,11911909,0,0,41010309,10211809,-4201160,20901609,2070181,20911419,30701609,30411109,0,21210419,10011509,0,11200019,30301609,31601609,11601619,40911119,3121110,2191001
10,279,401.740526605863,0,0,289190.737528725,289191.784605601,0,4,12,1,0,10,5,45231659,26991840,90555560,1151100,30400119,4030031,0,0,0,0,0,0,10801509,-2190001,0,0,20700809,0,0,0,0,4101030,40301219,0,1091200,1010090,3180051,3071191,41901809,0,0,0,0,0,0,0,1151100,0,0,0
10,280,678.472408209927,1,0,289193.219915221,289194.266983243,0,4,12,1,1,28,5,21512009,13691989,7341362,106505591,21512009,0,0,0,0,0,0,0,0,0,0,0,0,0,3191170,0,0,10500819,0,0,2060201,0,1161111,0,4120050,0,0,-2130161,0,3020101,21711819,31700009,40911319,3021121,4011061,0
10,281,1624.62945841253,0,0,289196.137600559,289197.184656647,0,4,12,1,0,25,20,96675826,168267344,78975090,179188754,0,0,0,3041180,20310419,20711309,41101509,0,11511409,30601519,0,2121150,30610719,40501209,11911109,42011119,10510519,0,4170120,3081200,3001171,31100309,0,10000209,-3151031,4071041,20400009,30000809,21401419,3171061,31800809,20301509,41401219,20010319,0,11101609
10,282,828.939789324068,0,0,289199.902331283,289200.949399689,0,4,12,1,0,30,20,137403456,159914764,191928696,60265420,21711019,40200009,21510819,0,41300419,2181071,10500119,0,0,0,3110061,30600119,32000619,10800509,40100309,11301809,21201219,10800119,4101061,2081071,40700619,11000809,40911009,41611609,0,30212009,21310509,20702009,0,-3021171,0,3050170,1161181,0,31200709,1130180
10,283,974.755302129779,0,0,289202.843610107,289203.890613841,0,4,12,0,0,19,0,13363394,7161331,7242040,0,0,0,4120041,0,4061041,0,0,1081181,4101131,4071171,0,0,3090160,0,0,0,0,0,-4121020,0,0,0,0,3121020,0,0,0,0,0,0,0,0,0,0,0,0
10,284,1172.01083846157,1,0,289205.914168447,289206.961234544,0,4,12,0,1,24,10,73184257,63891449,93517658,26042009,4040120,0,10600419,11700509,0,40511109,0,3191080,3141020,0,30100209,0,0,30611119,0,3180121,0,0,4091011,0,0,10011519,40901419,-3110080,3201101,21401719,10800809,4131100,0,0,21910909,0,0,0,0,0
10,285,518.500340986066,0,0,289209.1377326,289210.184800237,0,4,12,0,0,11,10,46693860,15621591,115803668,52222367,2200031,0,0,0,31811709,0,0,1080201,11601919,1100011,-3180030,0,0,10301409,0,0,1040141,0,0,2001161,10310709,0,0,3081161,30100109,30300219,40010309,0,0,1000020,0,0,10410119,0,10811809,30000419
10,286,1447.55858014105,1,0,289211.78481348,289212.831886121,0,4,12,0,1,1,0,4121101,1200150,2191370,7453292,-1051031,3070070,0,0,0,0,0,0,0,0,0,0,0,0,1200150,0,0,0,1191200,0,0,0,0,0,1000170,0,0,0,0,0,0,0,4121171,0,1171101,2161020
10,287,592.619569564704,0,0,289215.408390183,289216.455493236,0,4,12,0,0,3,0,3201180,4170132,10392291,4262131,0,0,-3201180,0,0,0,0,0,0,0,1150011,0,0,0,0,0,3020121,0,0,4200091,0,0,0,0,4151070,2041130,0,0,0,0,3091131,0,0,1171000,0,0
10,288,569.357533531729,1,0,289218.231949871,289219.279017508,0,4,12,1,1,21,5,71356319,32062530,62780669,5141261,21411819,0,1021150,3181030,0,40611109,3041101,0,2090110,0,0,0,31001519,0,1061011,0,0,0,0,0,-1060151,0,40910009,0,0,20810509,0,0,1070111,4071150,0,0,0,0,0,0
10,289,1199.42390854703,0,0,289224.102599523,289225.14966485,0,4,13,0,0,1,5,68662889,32233140,19582720,38384371,-1170111,0,41710619,0,0,21611009,0,4171150,0,0,0,2021131,0,0,30212009,0,0,0,0,0,0,4051080,0,4130031,0,0,11401609,0,4200070,31001909,1131201,0,0,2051191,0,0
10,290,727.081043820363,1,0,289227.537932626,289228.585004113,0,4,13,1,1,27,20,137234584,206608325,136996636,85904576,0,31210109,0,10301619,21710219,11301109,21511519,41200009,0,30900809,40301409,4101040,41511319,42011119,10800909,30811609,2160000,4010111,11600919,40012009,0,40801519,0,40411109,0,0,-4171080,2080170,10001609,20311309,4090200,0,21110019,4090060,4020100,20201109
10,291,1332.83212955575,1,0,289230.43208222,289231.479152167,0,4,13,0,1,6,10,105635326,65013377,59054710,16911359,0,21200809,0,0,20511019,-1100100,31010709,30811519,1001170,0,20411019,20101319,21410019,0,0,0,0,3091020,0,0,30901519,2001120,0,0,2070131,3071121,21010819,0,0,11800119,3060080,0,0,2051160,0,0
10,292,1058.27912699897,0,0,289233.843879195,289234.890953376,0,4,13,0,0,31,20,141495215,178598764,104249677,137652957,0,0,31301709,4130070,30510519,11300709,20610609,40601519,3040080,3141160,30611219,21112009,41311419,0,10000309,40400619,2020020,30002009,31301709,21310609,0,11601909,20111019,2101080,4081061,10601109,3141181,0,31510719,41011409,-3120101,21210109,0,0,40800619,0
10,293,739.307788899168,0,0,289237.008625163,289238.05569357,0,4,13,1,0,28,5,21512009,13691989,7341362,106505591,21512009,0,0,0,0,0,0,0,0,0,0,0,0,0,3191170,0,0,10500819,0,0,2060201,0,1161111,0,4120050,0,0,-2130161,0,3020101,21711819,31700009,40911319,3021121,4011061,0
10,294,1236.64231918519,0,0,289239.820414285,289240.867485771,0,4,13,1,0,32,10,97653909,47812021,128003497,77504249,2111001,40901009,11200409,40311209,0,0,0,1010131,2120150,0,0,2110091,0,4191111,0,0,41510819,0,0,41310719,0,0,0,0,40700919,4181050,41810809,20200209,0,0,2081111,-4111001,0,0,40901619,10210309
10,295,852.104430203326,1,0,289243.196929202,289244.24399145,0,4,13,0,1,18,5,86414967,37373970,1040200,48381350,0,0,41401009,30601909,0,4000030,0,0,10412019,0,1131180,0,0,30201509,0,0,2021191,-4020090,0,0,0,1040200,0,0,0,0,0,3020080,0,0,0,2141060,0,0,2010001,41210209
10,296,734.477683727164,1,0,289246.126374712,289247.17343388,0,4,13,1,1,21,5,71356319,32062530,62780669,5141261,21411819,0,1021150,3181030,0,40611109,3041101,0,2090110,0,0,0,31001519,0,1061011,0,0,0,0,0,-1060151,0,40910009,0,0,20810509,0,0,1070111,4071150,0,0,0,0,0,0
10,297,889.12574085407,0,0,289249.008752585,289250.055817527,0,4,13,1,0,30,20,137403456,159914764,191928696,60265420,21711019,40200009,21510819,0,41300419,2181071,10500119,0,0,0,3110061,30600119,32000619,10800509,40100309,11301809,21201219,10800119,4101061,2081071,40700619,11000809,40911009,41611609,0,30212009,21310509,20702009,0,-3021171,0,3050170,1161181,0,31200709,1130180
10,298,929.875398403965,0,0,289252.055851019,289253.102910957,0,4,13,0,0,3,10,8242262,99356057,14971140,107656485,0,0,-2071171,0,0,4021061,0,2150030,0,11311709,40600819,0,0,3151051,21011109,21201319,2080050,0,0,0,2020091,0,0,0,0,10900009,2051040,10101019,0,0,10401609,0,40710909,11711619,30610209,4121120
10,299,456.2702467083,1,0,289255.126462868,289256.173536665,0,4,13,1,1,10,5,45231659,26991840,90555560,1151100,30400119,4030031,0,0,0,0,0,0,10801509,-2190001,0,0,20700809,0,0,0,0,4101030,40301219,0,1091200,1010090,3180051,3071191,41901809,0,0,0,0,0,0,0,1151100,0,0,0
10,300,1020.8928733482,1,0,289257.655948183,289258.702980019,0,4,13,1,1,25,20,96675826,168267344,78975090,179188754,0,0,0,3041180,20310419,20711309,41101509,0,11511409,30601519,0,2121150,30610719,40501209,11911109,42011119,10510519,0,4170120,3081200,3001171,31100309,0,10000209,-3151031,4071041,20400009,30000809,21401419,3171061,31800809,20301509,41401219,20010319,0,11101609
10,301,513.633279537316,0,0,289260.903052314,289261.950070676,0,4,13,0,0,19,5,2080050,67743460,17060210,79622478,0,0,0,0,0,0,0,0,2080050,41501809,0,0,3190141,0,22011419,0,1040091,0,-3100091,11610019,0,1180090,0,0,0,1170010,0,41010419,4050180,4050060,0,0,0,0,0,30511819
10,302,496.258836472407,0,0,289263.526563959,289264.573623512,0,4,13,0,0,20,20,118425966,127405565,171627785,138455737,20011819,2181000,0,30410119,0,41111209,4111100,0,20600719,11511009,0,10900719,2170000,40611619,0,20600509,0,41611709,11300719,-4021140,10610309,41001709,0,31210219,40011019,30411519,3061151,30311019,4080050,30601609,10411119,20300709,1171121,40400009,1180101,0
10,303,983.654444688,0,0,289266.150116795,289267.197186356,0,4,13,1,0,12,0,5231240,1070150,10370482,3191370,4071160,0,0,1160080,0,0,0,0,0,0,0,-1070150,0,0,0,0,0,0,0,4120131,0,0,0,0,4060181,2190170,0,0,1101170,0,0,2090200,0,0,0,0
10,304,635.431078029796,0,0,289269.244272086,289270.291333179,0,4,13,0,0,26,0,3110111,2000071,8423282,7271131,0,0,0,0,0,0,0,3110111,0,0,0,0,0,0,0,0,2000071,0,3061031,0,4161050,0,0,0,0,-1201201,0,3160080,0,0,0,2110041,0,0,2001010,0
10,305,492.5254851114,1,0,289271.9501827,289272.997244562,0,4,13,0,1,11,10,63364337,70893819,88845847,26182439,0,10201709,0,0,0,11011109,40111519,2040000,0,10110309,-2060141,40312019,0,4060050,4140081,10211219,0,0,31411619,0,3201160,3111140,0,0,31010209,20111719,0,0,1091060,21000309,0,4091070,0,0,0,0
10,306,552.912386250682,1,0,289274.526673673,289275.573789045,0,4,13,1,1,17,0,5061160,4190081,0,8673202,0,0,0,2010040,0,0,0,0,3051120,0,0,0,3080051,0,0,0,-1110030,0,0,0,0,0,0,0,0,0,0,3151011,0,0,1151070,0,1201111,0,3170010,0
10,307,1318.57202074025,1,0,289277.209062017,289278.256126189,0,4,13,1,1,4,0,5271311,1040050,5111321,6233270,0,0,0,-3120201,0,0,2151110,0,0,0,0,0,0,0,0,0,0,1040050,0,4031150,0,0,0,1080171,0,0,0,1111010,0,4021110,0,0,1101150,0,0,0
10,308,917.59206407005,0,0,289280.609097664,289281.656165686,0,4,13,0,0,24,0,0,4262100,9351411,6560292,0,0,0,0,0,0,0,0,0,0,2131040,0,0,0,0,0,0,2131060,0,1181130,0,0,0,-4090121,0,0,4080160,0,0,1200071,0,0,3200140,0,0,2160081
10,309,807.591394288465,1,0,289283.72682604,289284.773845172,0,4,13,1,1,14,10,95302157,90226528,83964178,48803231,31110709,0,31210219,0,0,0,30810209,0,2171020,0,21501519,0,1151151,-4170000,40101119,0,20111619,3191120,0,1040041,0,0,10600709,32011919,0,40311509,0,0,0,0,41612019,0,0,1100001,2011041,4080170
10,310,856.911437702365,0,0,289286.785678102,289287.832710708,0,4,13,0,0,5,0,2140081,2150180,12443192,7170201,0,0,0,1110011,-1030070,0,0,0,0,0,0,0,0,0,0,0,0,2150180,0,4141131,4191041,4111020,0,0,0,0,0,0,0,0,0,0,3040111,0,4130090,0
10,311,1202.24644226255,1,0,289289.715082421,289290.762148903,0,4,13,0,1,7,20,118503938,114597156,186674354,180349316,0,40810609,0,31101109,20300219,21110719,-3001171,2180111,0,11410219,41611719,4110040,0,10511209,4191020,20301009,1050021,21411919,0,0,41901019,20610909,10001019,40110309,2040170,30410209,41600719,41601919,0,40411619,3021121,2001100,41812019,20900019,30601519,0
10,312,581.788307928946,1,0,289293.138655352,289294.185710285,0,4,13,1,1,2,10,68762768,43792818,146627274,11511493,40400819,-3190140,0,21010619,4161190,0,0,0,0,0,0,31701619,1191180,0,0,10900019,0,0,41501309,10100109,0,41701709,0,11911819,10011019,31401309,0,0,0,3070071,3061020,2060070,0,1140151,2180181,0
10,313,728.617807966657,0,0,289299.079886057,289300.126956388,0,4,14,1,0,12,0,5231240,1070150,10370482,3191370,4071160,0,0,1160080,0,0,0,0,0,0,0,-1070150,0,0,0,0,0,0,0,4120131,0,0,0,0,4060181,2190170,0,0,1101170,0,0,2090200,0,0,0,0
10,314,638.084228965454,0,0,289301.915217081,289302.962282023,0,4,14,0,0,24,20,171706297,150715625,128876507,96094777,41310809,3000151,41201919,0,30501209,4080091,11310809,0,40301309,0,4180051,31600219,11510509,30301409,21511509,11100019,40511909,0,31210309,1011180,30810019,10400109,10011919,-1140131,4191021,0,40101819,21100719,0,20201709,31400909,21200319,0,1060101,0,1131020
10,315,939.859745907597,1,0,289304.65642438,289305.703487397,0,4,14,0,1,6,5,42310269,16482691,38691620,70543809,0,40200119,0,0,0,-2110150,0,0,0,0,3041201,0,0,3030181,0,0,0,10411309,0,30411419,0,0,4130120,4150081,0,0,0,3071071,0,0,31610519,0,0,31612019,1170160,3080040
10,316,430.223788076546,1,0,289307.774108101,289308.821163804,0,4,14,1,1,4,0,5271311,1040050,5111321,6233270,0,0,0,-3120201,0,0,2151110,0,0,0,0,0,0,0,0,0,0,1040050,0,4031150,0,0,0,1080171,0,0,0,1111010,0,4021110,0,0,1101150,0,0,0
10,317,698.145068192389,1,0,289310.280017251,289311.327082194,0,4,14,1,1,28,5,21512009,13691989,7341362,106505591,21512009,0,0,0,0,0,0,0,0,0,0,0,0,0,3191170,0,0,10500819,0,0,2060201,0,1161111,0,4120050,0,0,-2130161,0,3020101,21711819,31700009,40911319,3021121,4011061,0
10,318,698.260941484477,0,0,289313.138864771,289314.185932023,0,4,14,0,0,11,5,36994240,35941759,83202049,46242820,0,1111010,3201111,0,0,1071010,0,0,31611109,30811519,-2100130,0,0,0,0,0,0,3030110,2190111,0,40101119,0,40910819,0,0,0,0,0,3201051,42001709,0,0,0,1040060,0,0
10,319,955.112284165807,1,0,289315.974193485,289317.021249958,0,4,14,0,1,26,10,24703760,188097876,10460352,109714286,0,2131011,0,0,0,0,1161130,0,21411619,41211209,21411909,0,1061201,0,41501519,41110519,41801519,0,3150061,0,0,4120091,0,0,0,-3190200,0,0,0,1131000,40110319,30910509,4050120,0,12001419,21510919
10,320,750.957477488555,1,0,289319.021287684,289320.068352241,0,4,14,1,1,14,10,95302157,90226528,83964178,48803231,31110709,0,31210219,0,0,0,30810209,0,2171020,0,21501519,0,1151151,-4170000,40101119,0,20111619,3191120,0,1040041,0,0,10600709,32011919,0,40311509,0,0,0,0,41612019,0,0,1100001,2011041,4080170
10,321,697.30854802765,0,0,289321.938961858,289322.9860268,0,4,14,0,0,7,0,7252372,4140301,4210201,1010010,3011090,0,1151191,0,0,0,-3090091,0,0,0,3120151,0,0,0,1020150,0,0,0,0,0,0,0,2100121,0,0,0,2110080,0,0,0,0,1010010,0,0,0,0
10,322,1172.08244121866,0,0,289324.880175239,289325.927237487,0,4,14,0,0,5,0,7442341,2061131,1130090,5181311,0,0,2030100,0,-1081101,2130010,0,0,2201130,0,0,0,2061131,0,0,0,0,0,0,0,0,0,0,0,0,1130090,0,0,0,0,0,2040170,0,0,0,3141141
10,323,852.538666164037,1,0,289328.268446865,289329.315506802,0,4,14,0,1,20,0,6211371,3171031,10490291,3151100,0,0,2000100,0,1200151,3011120,0,0,0,0,0,3171031,0,0,0,0,0,0,0,-3170000,0,0,0,0,4120171,0,3200120,0,0,0,0,0,0,0,3151100,0
10,324,1027.95536711346,0,0,289331.186128353,289332.233227941,0,4,14,0,0,18,20,126743916,114134976,193637026,109129094,0,31811019,0,11011219,0,40210309,3201150,0,40510219,30101019,0,0,10100809,30510919,2011140,0,40300009,-1111080,2080201,21110119,21410219,2190031,41201919,31410819,30600519,40502019,3131180,0,21301209,10001909,11211719,11701509,40900709,10711919,1150120,2150000
10,325,606.762650306337,1,0,289334.43321901,289335.480315134,0,4,14,1,1,27,20,137234584,206608325,136996636,85904576,0,31210109,0,10301619,21710219,11301109,21511519,41200009,0,30900809,40301409,4101040,41511319,42011119,10800909,30811609,2160000,4010111,11600919,40012009,0,40801519,0,40411109,0,0,-4171080,2080170,10001609,20311309,4090200,0,21110019,4090060,4020100,20201109
10,326,1243.91461670166,0,0,289337.186187637,289338.233251039,0,4,14,1,0,2,10,68762768,43792818,146627274,11511493,40400819,-3190140,0,21010619,4161190,0,0,0,0,0,0,31701619,1191180,0,0,10900019,0,0,41501309,10100109,0,41701709,0,11911819,10011019,31401309,0,0,0,3070071,3061020,2060070,0,1140151,2180181,0
10,327,1416.16193408845,1,0,289340.515639922,289341.562706789,0,4,14,0,1,1,5,51595580,4323442,33340710,91052729,-4021151,0,0,0,0,0,11711319,4161091,31702019,1181101,0,0,1051140,2091201,0,0,0,0,0,0,0,30300709,0,0,3040001,0,0,4131120,0,4121181,40800109,0,0,0,42000319,0
10,328,858.342337596696,1,0,289344.174498297,289345.221570938,0,4,14,1,1,25,20,96675826,168267344,78975090,179188754,0,0,0,3041180,20310419,20711309,41101509,0,11511409,30601519,0,2121150,30610719,40501209,11911109,42011119,10510519,0,4170120,3081200,3001171,31100309,0,10000209,-3151031,4071041,20400009,30000809,21401419,3171061,31800809,20301509,41401219,20010319,0,11101609
10,329,1223.28725352418,0,0,289347.221589801,289348.268661673,0,4,14,1,0,32,10,97653909,47812021,128003497,77504249,2111001,40901009,11200409,40311209,0,0,0,1010131,2120150,0,0,2110091,0,4191111,0,0,41510819,0,0,41310719,0,0,0,0,40700919,4181050,41810809,20200209,0,0,2081111,-4111001,0,0,40901619,10210309
10,330,1101.72351129586,1,0,289350.69221728,289351.739288767,0,4,14,0,1,3,20,122902926,101115718,197626513,181065875,31410719,2190140,-3090040,11710609,41300819,0,0,32000409,1200190,0,2080151,32001409,1161170,31111709,0,0,4050160,30711119,10410009,21701519,40802019,40110819,3190100,30210019,0,40701719,10500309,0,20011519,21510619,31711109,40610509,4011181,21910319,0,41300619
10,331,993.661119951867,0,0,289353.892255699,289354.939316792,0,4,14,1,0,30,20,137403456,159914764,191928696,60265420,21711019,40200009,21510819,0,41300419,2181071,10500119,0,0,0,3110061,30600119,32000619,10800509,40100309,11301809,21201219,10800119,4101061,2081071,40700619,11000809,40911009,41611609,0,30212009,21310509,20702009,0,-3021171,0,3050170,1161181,0,31200709,1130180
10,332,730.148027767427,1,0,289357.021699207,289358.068762995,0,4,14,0,1,19,10,78534788,65903358,42443261,35564129,0,3180081,1130041,0,12011509,0,20201119,11002019,31010019,0,2190021,0,0,31111209,22001309,10600819,0,0,-4011151,0,0,0,0,4111100,0,30300909,4020101,0,0,0,11401319,3041050,0,1110051,0,20011709
10,333,546.509715553839,0,0,289359.90408324,289360.951151262,0,4,14,1,0,17,0,5061160,4190081,0,8673202,0,0,0,2010040,0,0,0,0,3051120,0,0,0,3080051,0,0,0,-1110030,0,0,0,0,0,0,0,0,0,0,3151011,0,0,1151070,0,1201111,0,3170010,0
10,334,866.040401917417,0,0,289362.574701787,289363.62176288,0,4,14,0,0,31,10,61102438,76392208,101322796,35264729,0,4201020,0,0,4090190,41710509,0,11100719,0,2010040,2060030,0,0,30611819,41710319,0,0,0,0,11500919,30810209,0,2170010,0,4021140,41610309,11210209,0,1110091,0,-3051000,20502019,0,10601619,0,0
10,335,1001.02080358192,0,0,289365.621797141,289366.668880177,0,4,14,1,0,10,5,45231659,26991840,90555560,1151100,30400119,4030031,0,0,0,0,0,0,10801509,-2190001,0,0,20700809,0,0,0,0,4101030,40301219,0,1091200,1010090,3180051,3071191,41901809,0,0,0,0,0,0,0,1151100,0,0,0
10,336,549.113206507172,0,0,289368.880656056,289369.927714838,0,4,14,1,0,21,5,71356319,32062530,62780669,5141261,21411819,0,1021150,3181030,0,40611109,3041101,0,2090110,0,0,0,31001519,0,1061011,0,0,0,0,0,-1060151,0,40910009,0,0,20810509,0,0,1070111,4071150,0,0,0,0,0,0
10,337,517.191088758409,1,0,289379.445469238,289380.4925388,0,4,15,0,1,20,0,4271361,2041110,4120161,10632411,3200160,1071201,0,0,0,0,0,0,0,0,0,0,2041110,0,0,0,0,0,0,-4120161,0,0,0,0,0,0,0,0,3160171,0,4190050,0,0,1121030,2161160,0
10,338,445.417427283246,1,0,289382.069036317,289383.116097794,0,4,15,0,1,26,0,3271232,9363181,2200021,7291351,0,0,0,1141121,0,2130111,0,0,0,4201050,0,0,0,0,2081070,0,0,3081061,0,0,0,0,0,0,0,-2200021,0,0,3120181,0,0,0,4171170,0,0,0
10,339,983.225983160082,0,0,289384.751406953,289385.798480749,0,4,15,1,0,12,0,5231240,1070150,10370482,3191370,4071160,0,0,1160080,0,0,0,0,0,0,0,-1070150,0,0,0,0,0,0,0,4120131,0,0,0,0,4060181,2190170,0,0,1101170,0,0,2090200,0,0,0,0
