sub_id,Trial,RT,Resp,Error,Fix_onset,Disp_onset,q1,q2,block,repeat,tid,tloc,d_setsize,quad1,quad2,quad3,quad4,loc1,loc2,loc3,loc4,loc5,loc6,loc7,loc8,loc9,loc10,loc11,loc12,loc13,loc14,loc15,loc16,loc17,loc18,loc19,loc20,loc21,loc22,loc23,loc24,loc25,loc26,loc27,loc28,loc29,loc30,loc31,loc32,loc33,loc34,loc35,loc36
1,1,1047.88935827673,0,0,115490.530608801,115491.577692606,0,50,1,0,0,9,10,84272477,72826155,11244532,36463549,0,21400919,0,40110609,0,20610819,0,0,-2150130,0,30211419,0,0,10300909,2101090,10100909,10000209,10111619,1021091,3001131,4161120,0,0,0,0,0,3061190,0,11901219,0,0,1060041,0,0,21501219,2001070
1,2,1226.20751002978,0,1,115493.801117404,115494.848139615,0,50,1,1,1,26,20,160787076,153348397,146546154,108515627,2170151,21601219,0,41011909,0,30611109,4171170,40910609,20310909,30401709,3190161,30411519,30401509,4021131,0,30601009,3020050,21301309,21200119,0,11111109,20311909,20700619,30800519,41301809,-1120070,0,21611109,40301509,0,1011070,30400809,3190021,0,0,12001109
1,3,884.685928729596,0,0,115497.765774908,115498.812755159,0,50,1,1,0,1,0,10341392,5261351,1001010,4180170,-4010081,0,1100000,4111130,0,0,0,0,1120181,0,1111181,0,0,0,0,0,4150170,0,0,0,0,0,1001010,0,0,0,0,0,0,0,0,0,0,0,4180170,0
1,4,676.169129437767,1,0,115500.789160132,115501.836184653,0,50,1,1,1,3,20,115220983,107805278,105627988,166844984,10410209,12001509,-4051030,11901909,4031060,11811319,20101609,10210619,30701719,20110919,0,0,42012019,0,2031200,0,40510019,3141121,20712019,22001819,2090040,1151011,4171000,3181061,31110819,21210219,0,41910619,20111009,22001719,0,0,0,30210609,11000219,41610809
1,5,1029.29381905415,1,1,115503.647906406,115504.694933622,0,50,1,0,0,11,5,59602857,40013941,7051251,21200719,0,3200160,21610219,0,11410019,0,21311309,2071150,0,0,-3200181,0,3201050,30511609,0,0,1010050,2091051,3031140,4020111,0,0,0,0,0,0,0,0,0,0,21200719,0,0,0,0,0
1,6,1280.3973096452,0,0,115506.847820868,115507.894843079,0,50,1,1,0,30,0,8402211,6212231,8261200,2010131,0,0,0,3150001,0,0,0,2061040,3191170,0,0,0,2131100,0,4081131,0,0,0,0,0,0,4151180,0,4110020,0,0,0,0,0,-2010131,0,0,0,0,0,0
1,7,601.34118773567,1,0,115510.341852048,115511.3888681,0,50,1,0,1,21,20,122025685,132244107,142876817,152046767,40210819,0,10800309,0,0,0,20502019,40000819,10511719,41411309,3150121,10300119,31700709,1070001,2040130,1071190,11500219,30000309,0,31900019,-2181191,0,4060161,21111009,11411719,30201209,42011509,41000619,31001219,30111409,30101809,0,0,4130001,11601709,4100001
1,8,554.835593851749,0,0,115513.165296248,115514.212316534,0,50,1,0,0,14,10,45111188,74700368,156943597,63347849,0,0,0,0,0,0,21300209,21810809,2000170,0,0,0,0,-1200140,41800209,0,0,31700019,0,0,2031041,30910009,41900709,0,41801419,40300419,0,11101609,1161020,0,0,3050110,1171120,2111201,41611709,3141080
1,9,1441.00071284629,1,0,115515.871104847,115516.918125903,0,50,1,0,1,16,5,44500100,31052632,10001409,39913891,40400009,1080020,3020071,0,0,0,0,0,0,0,4090011,21711319,0,0,0,-3110181,0,2141121,0,0,0,0,0,10001409,0,0,0,4061201,1070051,0,0,11800909,0,20810609,0,2171121
1,10,928.792060934938,0,0,115519.553414274,115520.600413387,0,50,1,1,0,28,10,94893716,14431869,88883217,63503819,20010319,0,0,3171040,40200819,10311119,0,0,21200419,0,10400709,0,0,0,0,0,4031160,0,0,0,0,0,40511619,1190180,4171190,31200119,11810109,-4020171,3161150,2151020,0,4160150,10010709,0,40000619,0
1,11,1387.98273440625,1,0,115522.706216828,115523.75323365,0,50,1,0,1,6,20,149905257,130504916,173854906,148746935,41611709,41610519,41501809,0,0,-4071011,0,21110209,0,2120010,10000519,2200161,0,3160060,40910409,20500219,30202019,21411519,10910119,0,0,41510609,3010071,41511809,41912019,3200070,31800209,20811509,20001319,31210819,0,1200021,31910219,20111019,2100010,21402019
1,12,965.932324543246,1,0,115526.259056184,115527.306079551,0,50,1,0,1,32,5,53123038,37625840,24822899,46393229,31611319,0,21511719,0,0,0,0,0,0,21101309,4151130,4041180,0,0,3121160,0,2020010,3191051,0,0,3121080,0,0,0,0,0,21701819,0,0,0,2001060,-3081160,41311009,0,0,0
1,13,1194.0717389225,1,0,115529.364854235,115530.411884531,0,50,1,1,1,23,20,78352670,160664445,128975376,118737844,30400409,30601809,3200071,0,1090161,2050001,0,11010219,0,0,30400119,21600419,20800009,31711519,1030170,10200109,40900909,4021191,0,20110409,41500109,20411609,-3151010,30310709,0,10401409,3090121,20100119,22001909,31101619,20811619,10011819,0,4010140,10700619,0
1,14,745.817806353443,1,0,115532.78828627,115533.835317336,0,50,1,1,1,25,10,90044398,69505350,74993718,83512877,41811119,0,31910519,0,2181151,4131090,10010519,0,0,0,1091171,2040181,3010150,0,0,20711919,2040120,40611809,0,30802019,40000509,0,0,0,-4191190,0,0,0,20200619,0,20211109,0,2090140,0,41011009,0
1,15,1243.17735910881,1,0,115535.752917597,115536.799940193,0,50,1,1,1,13,5,6211332,33302920,50753050,43532209,0,0,2090201,0,4121131,0,0,0,0,0,0,31211819,-2091101,0,0,0,0,0,1141151,11500319,1060040,0,0,0,3071090,30910319,3070131,0,0,0,21100609,2130181,0,20301419,0,0
1,16,1629.65737617924,1,0,115539.235175131,115540.28221967,0,50,1,1,1,29,10,112303659,91011997,50601418,47493518,31910609,0,0,3101021,31511919,0,41610009,0,4170101,1110070,31700109,41610119,2060140,1200030,0,0,10210409,3121120,0,0,0,0,0,0,40001109,10600309,0,0,-1050180,3141110,11800209,0,0,0,0,31502019
1,17,1912.69992283196,0,0,115543.02331995,115544.070330998,0,50,1,1,0,34,5,43363141,12510300,94124876,2051051,3090090,0,4061150,4121041,0,1080041,31010819,0,0,0,4190060,0,4160200,0,0,4160040,0,0,0,0,31700519,0,30211619,0,0,21201919,11010819,0,0,0,0,0,0,-2051051,0,0
1,18,788.565796276089,1,0,115547.070277873,115548.117281607,0,50,1,0,1,8,20,138266256,96546907,106852966,180577335,42001819,1011090,41600409,0,0,21101219,0,-1140010,31411709,21110319,31301719,1031071,10811419,11900419,4020010,4040130,2031001,10300819,0,41210119,10100609,0,3130101,20310219,21701909,10400009,0,31510709,21700419,30201719,11501509,3060151,42001109,0,0,40601719
1,19,1641.24123645888,0,0,115549.952526785,115550.99955631,0,50,1,0,0,7,0,9353312,0,8232491,3040221,0,0,1131081,4061071,0,0,-4161160,0,0,0,0,0,0,0,0,0,0,0,3151131,0,0,3011170,0,2070190,0,0,0,0,0,2020200,0,0,1020021,0,0,0
1,20,1685.99679780891,0,0,115553.681836865,115554.728858692,0,50,1,1,0,10,0,7531180,8282231,4190202,0,0,4181140,0,0,0,1190000,0,2160040,0,-4111120,0,0,1110091,0,0,0,0,3061020,0,0,0,0,0,0,0,2170001,2020201,0,0,0,0,0,0,0,0,0
1,21,745.897108310601,0,0,115557.575846334,115558.62287124,0,50,1,0,0,19,0,9291371,0,9321141,8280122,0,0,0,0,3031140,2090081,4170150,0,0,0,0,0,0,0,0,0,0,0,-2151031,3120050,0,4050060,0,0,0,0,0,0,0,0,0,4130011,0,0,0,4150111
1,22,752.348284091568,1,0,115560.493419263,115561.540447249,0,50,1,0,1,33,0,2031190,6221121,9351371,7130321,2031190,0,0,0,0,0,0,0,0,0,0,2091021,0,0,0,4130100,0,0,0,0,4111140,4060131,0,1180100,0,0,0,4130131,0,0,0,0,-3000190,0,0,0
1,23,917.208585611661,0,0,115563.340392276,115564.387417182,0,50,1,0,0,5,10,67271637,124635775,19273372,31291500,0,41201019,10810009,0,-3110180,1140110,0,11010319,0,20401519,20311719,42010409,11201609,0,0,0,30710519,0,10911219,4151071,2070061,0,2141021,0,0,0,0,4151021,0,0,4180130,1160040,0,21800309,0,0
1,24,1019.04076882056,1,0,115566.422671522,115567.469695658,0,50,1,1,1,36,5,4280300,60734459,23132840,59102888,0,0,2140180,0,0,2140120,0,0,0,3171201,0,0,0,32012009,4041030,0,21510219,0,0,0,1041051,0,0,1081070,0,0,21010719,0,0,21510519,2191150,0,0,0,31400109,-4001110
1,25,1103.3822507452,1,0,115578.281161413,115579.328186704,0,50,2,1,1,30,0,8402211,6212231,8261200,2010131,0,0,0,3150001,0,0,0,2061040,3191170,0,0,0,2131100,0,4081131,0,0,0,0,0,0,4151180,0,4110020,0,0,0,0,0,-2010131,0,0,0,0,0,0
1,26,799.599932317506,0,0,115581.492848366,115582.539918697,0,50,2,1,0,26,20,160787076,153348397,146546154,108515627,2170151,21601219,0,41011909,0,30611109,4171170,40910609,20310909,30401709,3190161,30411519,30401509,4021131,0,30601009,3020050,21301309,21200119,0,11111109,20311909,20700619,30800519,41301809,-1120070,0,21611109,40301509,0,1011070,30400809,3190021,0,0,12001109
1,27,1035.29305066331,0,0,115584.516290563,115585.563312775,0,50,2,1,0,13,5,6211332,33302920,50753050,43532209,0,0,2090201,0,4121131,0,0,0,0,0,0,31211819,-2091101,0,0,0,0,0,1141151,11500319,1060040,0,0,0,3071090,30910319,3070131,0,0,0,21100609,2130181,0,20301419,0,0
1,28,832.68270737608,0,0,115587.786800321,115588.833824072,0,50,2,1,0,34,5,43363141,12510300,94124876,2051051,3090090,0,4061150,4121041,0,1080041,31010819,0,0,0,4190060,0,4160200,0,0,4160040,0,0,0,0,31700519,0,30211619,0,0,21201919,11010819,0,0,0,0,0,0,-2051051,0,0
1,29,773.632390671992,0,0,115590.786712935,115591.833726677,0,50,2,1,0,23,20,78352670,160664445,128975376,118737844,30400409,30601809,3200071,0,1090161,2050001,0,11010219,0,0,30400119,21600419,20800009,31711519,1030170,10200109,40900909,4021191,0,20110409,41500109,20411609,-3151010,30310709,0,10401409,3090121,20100119,22001909,31101619,20811619,10011819,0,4010140,10700619,0
1,30,611.202732659876,0,0,115593.810158982,115594.857180424,0,50,2,0,0,21,20,152158466,45464018,117328369,189658612,20501019,1201120,11801109,4031000,2020081,0,40200409,41402019,31001709,0,0,21701009,0,21711819,0,0,2051190,0,10300909,31611209,-2141021,1000131,12002009,4111181,41300309,11810419,3051181,0,31811819,31210909,21411009,10810409,10101219,21001509,31710219,31601519
1,31,601.265735385823,0,0,115596.56301674,115597.610043956,0,50,2,0,0,14,10,51312628,127306525,71544400,40464372,30711109,0,0,0,0,20601519,0,0,0,11512009,0,11500309,41402009,-1191070,31400719,30300409,0,0,40711619,4190041,0,0,0,0,4201131,20300509,2141100,0,0,4070111,0,30101819,0,1160090,1091191,4041161
1,32,860.584292880958,1,0,115599.421759165,115600.468790615,0,50,2,1,1,36,5,4280300,60734459,23132840,59102888,0,0,2140180,0,0,2140120,0,0,0,3171201,0,0,0,32012009,4041030,0,21510219,0,0,0,1041051,0,0,1081070,0,0,21010719,0,0,21510519,2191150,0,0,0,31400109,-4001110
1,33,483.581629727269,0,0,115602.421730293,115603.468704769,0,50,2,0,0,16,20,133514997,166083925,131154446,166538315,4160201,30400219,40501219,0,4051030,30700019,0,3201190,20501119,40800609,40300409,0,40510019,0,30501809,-3071060,0,10900019,11811109,1030170,3010100,0,20500419,30700919,30911709,2080001,31110019,20412019,0,0,12000709,40211609,10400809,40500619,2001031,41011519
1,34,1384.1285052622,1,0,115605.045144927,115606.092163289,0,50,2,0,1,6,10,23874700,46634501,45612518,123617965,3091011,0,3161080,0,0,-3081190,10500409,0,4041010,0,0,0,22010509,21301609,1101071,0,1140181,1081131,0,10401809,0,0,0,4200190,0,31010519,0,0,11401509,20301919,0,10111809,0,0,40301619,41501109
1,35,672.13550847373,0,0,115608.539163789,115609.58618754,0,50,2,0,0,33,0,5253201,5211101,0,9381483,0,0,0,0,1061120,0,1191051,0,3001030,0,2031080,0,3180021,0,0,0,0,0,0,0,0,0,0,0,0,0,0,0,0,2150121,0,0,-3080171,0,4151191,0
1,36,1060.46603286813,0,0,115611.350848586,115612.397871567,0,50,2,0,0,7,5,53712229,61265290,43060739,3180041,1051200,21310709,0,0,0,0,-1050101,30300219,0,4151050,0,0,0,0,2021051,11100319,3081161,40911709,0,0,0,0,0,0,1160120,0,41900619,0,0,0,0,0,2080031,0,1100010,0
1,37,900.82233735302,0,1,115614.515485225,115615.562498582,0,50,2,0,1,8,20,166765436,160248065,86097555,94212897,11300809,4060200,41310709,32001519,31411619,21500109,21910219,-2100131,1170121,21900609,41210209,30112009,0,21001619,10101009,0,4011201,31911409,21000209,4030180,0,11601909,4010130,11201319,22001419,1141180,11111209,0,41210309,2081050,30711219,0,0,20210319,0,0
1,38,919.862506474601,1,0,115617.621266338,115618.66828316,0,50,2,0,1,19,0,8351421,1041071,4341182,5161082,0,0,4170130,0,0,0,0,1100171,3081120,0,0,0,0,0,0,0,0,1041071,-3140021,1201161,0,0,0,0,0,0,0,0,0,3051011,0,0,0,0,2110071,0
1,39,979.875610544696,1,0,115620.668243894,115621.715261871,0,50,2,1,1,10,0,7531180,8282231,4190202,0,0,4181140,0,0,0,1190000,0,2160040,0,-4111120,0,0,1110091,0,0,0,0,3061020,0,0,0,0,0,0,0,2170001,2020201,0,0,0,0,0,0,0,0,0
1,40,937.737013824517,0,0,115623.75051775,115624.797533032,0,50,2,0,0,32,10,99735517,26952510,106003758,51393219,21601319,0,20711019,21400809,31901309,0,0,4121061,0,0,0,0,20600309,2081031,1160120,0,3111050,0,0,41212019,0,41100109,0,3190121,0,0,20501509,1061131,20700619,4090090,0,-4031170,0,0,21510209,0
1,41,1222.18697775679,0,0,115626.821014881,115627.868037093,0,50,2,0,0,5,0,7361141,5190261,2101150,4361281,0,0,0,0,-3181021,0,0,0,4180120,0,0,1020180,0,0,4170081,0,0,0,0,0,0,0,0,0,0,0,2101150,1181081,0,0,0,0,0,0,2130020,1050180
1,42,1348.16275755293,0,0,115630.220924646,115631.267944548,0,50,2,1,0,29,10,112303659,91011997,50601418,47493518,31910609,0,0,3101021,31511919,0,41610009,0,4170101,1110070,31700109,41610119,2060140,1200030,0,0,10210409,3121120,0,0,0,0,0,0,40001109,10600309,0,0,-1050180,3141110,11800209,0,0,0,0,31502019
1,43,778.576059339684,1,0,115633.644364765,115634.691379277,0,50,2,1,1,25,10,90044398,69505350,74993718,83512877,41811119,0,31910519,0,2181151,4131090,10010519,0,0,0,1091171,2040181,3010150,0,0,20711919,2040120,40611809,0,30802019,40000509,0,0,0,-4191190,0,0,0,20200619,0,20211109,0,2090140,0,41011009,0
1,44,768.328398567974,1,0,115636.679567905,115637.726592811,0,50,2,0,1,9,5,14811440,57232399,57451828,8390283,0,0,0,0,0,11810419,0,0,-3001021,2080181,20311509,4140190,30700519,0,0,0,0,0,0,0,31400809,0,1190110,0,0,20810709,4050200,0,0,0,0,0,3080041,4170041,0,1140201
1,45,1025.77489090618,0,0,115639.644240808,115640.691225293,0,50,2,1,0,1,0,10341392,5261351,1001010,4180170,-4010081,0,1100000,4111130,0,0,0,0,1120181,0,1111181,0,0,0,0,0,4150170,0,0,0,0,0,1001010,0,0,0,0,0,0,0,0,0,0,0,4180170,0
1,46,1143.31771589059,1,0,115642.773518013,115643.820542919,0,50,2,0,1,11,5,4370410,39323202,97983587,23341320,1140140,0,1100170,0,0,0,0,2130100,0,0,-4011121,30110909,0,4050161,0,0,1151011,0,31800609,0,3080140,0,0,41901719,21201119,0,0,0,3131001,0,20210319,0,0,0,0,0
1,47,1122.18682377716,1,0,115646.161662216,115647.208692127,0,50,2,1,1,28,10,94893716,14431869,88883217,63503819,20010319,0,0,3171040,40200819,10311119,0,0,21200419,0,10400709,0,0,0,0,0,4031160,0,0,0,0,0,40511619,1190180,4171190,31200119,11810109,-4020171,3161150,2151020,0,4160150,10010709,0,40000619,0
1,48,633.843441668432,1,0,115649.338042089,115650.38507508,0,50,2,1,1,3,20,115220983,107805278,105627988,166844984,10410209,12001509,-4051030,11901909,4031060,11811319,20101609,10210619,30701719,20110919,0,0,42012019,0,2031200,0,40510019,3141121,20712019,22001819,2090040,1151011,4171000,3181061,31110819,21210219,0,41910619,20111009,22001719,0,0,0,30210609,11000219,41610809
1,49,957.89972912462,0,0,115664.278809686,115665.325835362,0,50,3,1,0,1,0,10341392,5261351,1001010,4180170,-4010081,0,1100000,4111130,0,0,0,0,1120181,0,1111181,0,0,0,0,0,4150170,0,0,0,0,0,1001010,0,0,0,0,0,0,0,0,0,0,0,4180170,0
1,50,729.565139539773,0,0,115667.455197644,115668.502219855,0,50,3,1,0,3,20,115220983,107805278,105627988,166844984,10410209,12001509,-4051030,11901909,4031060,11811319,20101609,10210619,30701719,20110919,0,0,42012019,0,2031200,0,40510019,3141121,20712019,22001819,2090040,1151011,4171000,3181061,31110819,21210219,0,41910619,20111009,22001719,0,0,0,30210609,11000219,41610809
1,51,1190.56628442195,1,0,115670.255122268,115671.302147559,0,50,3,1,1,34,5,43363141,12510300,94124876,2051051,3090090,0,4061150,4121041,0,1080041,31010819,0,0,0,4190060,0,4160200,0,0,4160040,0,0,0,0,31700519,0,30211619,0,0,21201919,11010819,0,0,0,0,0,0,-2051051,0,0
1,52,830.868771328824,0,0,115673.619736888,115674.66675217,0,50,3,1,0,23,20,78352670,160664445,128975376,118737844,30400409,30601809,3200071,0,1090161,2050001,0,11010219,0,0,30400119,21600419,20800009,31711519,1030170,10200109,40900909,4021191,0,20110409,41500109,20411609,-3151010,30310709,0,10401409,3090121,20100119,22001909,31101619,20811619,10011819,0,4010140,10700619,0
1,53,941.08578923624,1,0,115676.631415448,115677.67843766,0,50,3,0,1,11,0,10342191,12512351,3161030,0,0,3131051,4090010,0,0,0,3121130,0,0,0,-4200020,3111170,0,0,3140100,0,0,2061061,0,0,0,0,0,0,3161030,0,0,0,0,0,0,0,0,0,0,0
1,54,1520.91976326483,1,0,115679.713683531,115680.760703432,0,50,3,1,1,10,0,7531180,8282231,4190202,0,0,4181140,0,0,0,1190000,0,2160040,0,-4111120,0,0,1110091,0,0,0,0,3061020,0,0,0,0,0,0,0,2170001,2020201,0,0,0,0,0,0,0,0,0
1,55,739.626094262348,0,0,115683.34892994,115684.395952152,0,50,3,1,0,28,10,94893716,14431869,88883217,63503819,20010319,0,0,3171040,40200819,10311119,0,0,21200419,0,10400709,0,0,0,0,0,4031160,0,0,0,0,0,40511619,1190180,4171190,31200119,11810109,-4020171,3161150,2151020,0,4160150,10010709,0,40000619,0
1,56,851.873396255542,1,0,115686.160567772,115687.207591138,0,50,3,1,1,29,10,112303659,91011997,50601418,47493518,31910609,0,0,3101021,31511919,0,41610009,0,4170101,1110070,31700109,41610119,2060140,1200030,0,0,10210409,3121120,0,0,0,0,0,0,40001109,10600309,0,0,-1050180,3141110,11800209,0,0,0,0,31502019
1,57,783.688725859975,0,0,115689.195783231,115690.242852023,0,50,3,1,0,25,10,90044398,69505350,74993718,83512877,41811119,0,31910519,0,2181151,4131090,10010519,0,0,0,1091171,2040181,3010150,0,0,20711919,2040120,40611809,0,30802019,40000509,0,0,0,-4191190,0,0,0,20200619,0,20211109,0,2090140,0,41011009,0
1,58,1613.31424354285,1,0,115692.125100934,115693.172137774,0,50,3,1,1,36,5,4280300,60734459,23132840,59102888,0,0,2140180,0,0,2140120,0,0,0,3171201,0,0,0,32012009,4041030,0,21510219,0,0,0,1041051,0,0,1081070,0,0,21010719,0,0,21510519,2191150,0,0,0,31400109,-4001110
1,59,1380.00903802458,0,0,115695.960301071,115697.007324437,0,50,3,1,0,30,0,8402211,6212231,8261200,2010131,0,0,0,3150001,0,0,0,2061040,3191170,0,0,0,2131100,0,4081131,0,0,0,0,0,0,4151180,0,4110020,0,0,0,0,0,-2010131,0,0,0,0,0,0
1,60,586.376215331256,1,0,115699.466076255,115700.513111171,0,50,3,0,1,16,0,7102200,6101160,9511372,2080051,0,0,0,4061110,0,3041090,0,0,0,0,0,0,0,2071140,0,-4030020,0,0,4201121,0,0,0,0,4170071,0,0,1140180,0,0,0,0,0,2080051,0,0,0
1,61,598.181813111296,1,0,115702.113070134,115703.160095425,0,50,3,0,1,14,0,7352181,10343313,3120120,0,0,3201130,0,0,0,0,2010001,2141050,0,3171011,0,3041111,0,-3071161,1060030,0,0,0,0,3120120,0,0,0,0,0,0,0,0,0,0,0,0,0,0,0,0
1,62,1312.42336687865,0,0,115704.818877963,115705.865900944,0,50,3,0,0,7,5,29774090,37943360,45532498,40911219,1161171,0,0,3111080,21301809,0,-4200030,0,0,2191070,3021171,0,31701009,0,1030110,0,0,0,10701019,0,0,2140030,0,0,31500309,0,1191140,0,0,0,0,40911219,0,0,0,0
1,63,671.690878574736,0,0,115708.383548325,115709.430547823,0,50,3,0,0,32,5,9222302,78884379,34614399,34811489,0,2150061,0,0,2001000,3051111,2020130,0,0,4151071,0,0,0,0,0,41101309,3031080,30600919,0,20511609,2201171,0,0,0,0,0,11901619,0,0,0,0,-3011180,0,0,31800309,0
1,64,1019.02036588581,0,0,115711.242236085,115712.289257142,0,50,3,0,0,9,10,22524249,48395629,137334697,53192347,0,1131090,0,20212009,0,0,0,0,-1181150,0,1140131,0,0,31611619,11511709,2031080,2101090,0,30111719,3080081,0,31400309,0,0,30200009,1131070,41411509,0,11010409,0,20401519,0,0,1170100,0,20610319
1,65,1103.15666362294,1,0,115714.500968347,115715.547993253,0,50,3,0,1,19,20,140776326,113155137,208978063,116097317,0,2040201,0,4201060,30110309,11511509,40411319,41200119,11301809,1021200,0,0,0,0,30511809,41511909,40110219,0,-1040170,41700419,40810919,21611009,40710709,41401919,10702009,11000909,0,11811409,4080000,3010161,20401619,30500819,1191181,11801009,3091000,30210119
1,66,924.835817146231,1,0,115717.677347835,115718.724373127,0,50,3,1,1,13,5,6211332,33302920,50753050,43532209,0,0,2090201,0,4121131,0,0,0,0,0,0,31211819,-2091101,0,0,0,0,0,1141151,11500319,1060040,0,0,0,3071090,30910319,3070131,0,0,0,21100609,2130181,0,20301419,0,0
1,67,731.316326957312,0,0,115720.700795423,115721.747819559,0,50,3,0,0,21,20,200408883,137154115,92084710,113044748,41311419,32001319,21210809,0,31100909,10811809,21510019,40301409,2161190,0,21701209,3021141,40110219,20400709,11200319,10610109,0,30110409,11800419,0,-3100191,0,4140081,30411319,0,41501609,1131091,0,1140011,11111819,4060090,31312009,31210109,30200509,4010201,0
1,68,1159.79250519013,0,0,115723.5713011,115724.618385675,0,50,3,0,0,5,5,13672620,21505640,56313730,32000009,0,0,1031020,0,-1041181,0,0,11600419,0,0,1071200,0,3191201,2060170,0,12011919,0,3171150,0,0,3200191,20200819,0,31901709,0,0,1011011,0,0,0,32000009,0,0,0,0,0
1,69,724.389339418849,1,0,115726.900618649,115727.947653564,0,50,3,0,1,8,10,18711541,134612566,55092888,79295610,0,0,0,4110081,0,11301309,1170151,-2130000,0,21300619,0,0,0,40410519,41200919,31700509,0,0,0,0,20010219,0,0,4181060,0,0,30901609,10801119,40200519,21911719,2050041,1051020,1130171,0,0,2151021
1,70,1618.81456575065,1,0,115729.865253055,115730.912279116,0,50,3,0,1,6,10,126877966,73225247,68253348,9551402,40311909,0,2021090,21511119,20911219,-2121010,0,0,40001619,10911609,21801919,40511719,0,0,0,0,0,0,10710609,0,0,0,31400609,3171071,0,20900009,2071050,1180091,0,3101000,0,0,0,1120121,4150190,0
1,71,1031.37915256957,0,0,115733.641615759,115734.688642205,0,50,3,1,0,26,20,160787076,153348397,146546154,108515627,2170151,21601219,0,41011909,0,30611109,4171170,40910609,20310909,30401709,3190161,30411519,30401509,4021131,0,30601009,3020050,21301309,21200119,0,11111109,20311909,20700619,30800519,41301809,-1120070,0,21611109,40301509,0,1011070,30400809,3190021,0,0,12001109
1,72,700.670739723137,1,0,115736.747413425,115737.794437561,0,50,3,0,1,33,20,141778943,83056128,136956337,151714336,10911809,21511319,0,30700119,11801619,4041040,31401219,10410609,21001209,0,31811919,11901209,0,0,1131020,32010809,4050011,2151160,0,21000909,2121071,30300919,41012019,1020091,0,20701109,20800219,20900009,2010010,21610419,0,0,-3170051,40011619,22010519,42001709
1,73,1243.61044020043,1,0,115742.641368999,115743.688392365,0,50,4,0,1,5,5,6151181,31184700,93644787,26941590,0,2011151,0,0,-4140030,0,0,0,0,0,0,0,0,0,21901409,2071131,3051160,4161000,0,0,2031030,10011219,40500619,0,41101919,0,0,0,0,0,21900409,0,0,3030010,0,2011171
1,74,1045.75705950265,1,0,115745.947187376,115746.994181485,0,50,4,1,1,23,20,78352670,160664445,128975376,118737844,30400409,30601809,3200071,0,1090161,2050001,0,11010219,0,0,30400119,21600419,20800009,31711519,1030170,10200109,40900909,4021191,0,20110409,41500109,20411609,-3151010,30310709,0,10401409,3090121,20100119,22001909,31101619,20811619,10011819,0,4010140,10700619,0
1,75,669.9804970267,0,0,115749.158842377,115750.205858429,0,50,4,1,0,26,20,160787076,153348397,146546154,108515627,2170151,21601219,0,41011909,0,30611109,4171170,40910609,20310909,30401709,3190161,30411519,30401509,4021131,0,30601009,3020050,21301309,21200119,0,11111109,20311909,20700619,30800519,41301809,-1120070,0,21611109,40301509,0,1011070,30400809,3190021,0,0,12001109
1,76,970.435597861069,1,0,115752.076405682,115753.123427893,0,50,4,0,1,11,0,3061191,9402343,6272261,5162280,3061191,0,0,0,0,0,0,0,0,0,-3071011,4180201,0,2151131,0,0,0,0,0,0,0,0,2091140,0,0,4181121,0,0,4001170,1161110,0,0,0,0,0,0
1,77,1005.02549510566,0,0,115755.146912822,115756.193929644,0,50,4,1,0,25,10,90044398,69505350,74993718,83512877,41811119,0,31910519,0,2181151,4131090,10010519,0,0,0,1091171,2040181,3010150,0,0,20711919,2040120,40611809,0,30802019,40000509,0,0,0,-4191190,0,0,0,20200619,0,20211109,0,2090140,0,41011009,0
1,78,1154.22365991981,0,0,115758.311530983,115759.358549345,0,50,4,1,0,1,0,10341392,5261351,1001010,4180170,-4010081,0,1100000,4111130,0,0,0,0,1120181,0,1111181,0,0,0,0,0,4150170,0,0,0,0,0,1001010,0,0,0,0,0,0,0,0,0,0,0,4180170,0
1,79,877.671170106623,1,0,115761.582028037,115762.629044859,0,50,4,1,1,34,5,43363141,12510300,94124876,2051051,3090090,0,4061150,4121041,0,1080041,31010819,0,0,0,4190060,0,4160200,0,0,4160040,0,0,0,0,31700519,0,30211619,0,0,21201919,11010819,0,0,0,0,0,0,-2051051,0,0
1,80,913.710830325726,0,0,115764.67612366,115765.723082737,0,50,4,0,0,21,20,161434856,122805956,120436958,128235074,21900419,2161001,2001060,0,20410119,40700819,41411409,30810019,2040010,10001509,41100109,0,41001219,0,11900119,4011100,11700819,3091081,0,0,-1061141,4100090,30700919,20400419,21411519,41701809,1061061,10401509,11501809,10910219,0,0,0,41710119,31700609,22010809
1,81,615.035019043717,1,0,115767.840677532,115768.887699744,0,50,4,1,1,28,10,94893716,14431869,88883217,63503819,20010319,0,0,3171040,40200819,10311119,0,0,21200419,0,10400709,0,0,0,0,0,4031160,0,0,0,0,0,40511619,1190180,4171190,31200119,11810109,-4020171,3161150,2151020,0,4160150,10010709,0,40000619,0
1,82,808.05521486036,0,0,115770.687664019,115771.734686616,0,50,4,0,0,8,10,70154748,54214378,98945976,34361889,10401319,11210519,41111419,0,1201090,3020100,2030100,-1180201,0,0,30311819,3101150,0,0,0,0,0,20801409,0,0,3121010,12000109,0,21701319,0,41611819,20511719,0,0,0,30100709,0,0,2121120,2140060,0
1,83,880.607267346932,1,0,115773.711101213,115774.758126504,0,50,4,0,1,33,5,76692099,11292402,52612608,37521840,0,0,0,4190061,0,0,0,40700819,31801219,0,0,0,4051151,4051071,3190180,0,0,0,1011180,0,0,30400509,21200919,0,0,0,0,0,0,3080030,31210619,0,-2121071,0,0,1110120
1,84,597.252132400172,0,0,115776.746316286,115777.793344272,0,50,4,0,0,19,10,161437977,53163429,12872810,85692727,41402009,4041131,0,41001219,0,3070180,0,40211719,31711719,10210719,0,0,4191141,0,31611309,0,3130160,4020100,-1040150,0,0,0,0,0,0,10701509,1131151,1180180,0,41700519,10900819,0,0,0,31911209,0
1,85,1063.35324008251,1,0,115779.452125655,115780.499150176,0,50,4,1,1,13,5,6211332,33302920,50753050,43532209,0,0,2090201,0,4121131,0,0,0,0,0,0,31211819,-2091101,0,0,0,0,0,1141151,11500319,1060040,0,0,0,3071090,30910319,3070131,0,0,0,21100609,2130181,0,20301419,0,0
1,86,630.227503366768,1,0,115782.687329103,115783.734359014,0,50,4,0,1,7,20,127147685,167617375,145324407,98305639,0,0,10311709,31701019,11701809,31301509,-1120101,10400519,30611019,40100719,30211809,30310919,40811119,0,0,4171000,22011809,0,3041190,31000809,2080161,4070011,21710709,11500109,31211209,40710209,0,3051001,0,20300509,0,11101619,40500709,2081071,20100709,1170021
1,87,977.466139898752,0,0,115785.393138472,115786.440159144,0,50,4,1,0,36,5,4280300,60734459,23132840,59102888,0,0,2140180,0,0,2140120,0,0,0,3171201,0,0,0,32012009,4041030,0,21510219,0,0,0,1041051,0,0,1081070,0,0,21010719,0,0,21510519,2191150,0,0,0,31400109,-4001110
1,88,653.237774895388,0,0,115788.534228204,115789.581248876,0,50,4,0,0,9,20,82398478,101705755,196925473,59795198,0,10412019,2141010,32010919,20511409,10111009,3021031,0,-4191081,21411019,11201209,0,21010719,21210609,2100020,21702019,1010000,2060160,11011609,41600409,30810409,0,0,20301209,41300619,41100909,10800309,0,11300509,20210409,11801519,11311619,0,1061001,4110141,0
1,89,1178.75529716548,1,0,115791.251807369,115792.298821112,0,50,4,1,1,30,0,8402211,6212231,8261200,2010131,0,0,0,3150001,0,0,0,2061040,3191170,0,0,0,2131100,0,4081131,0,0,0,0,0,0,4151180,0,4110020,0,0,0,0,0,-2010131,0,0,0,0,0,0
1,90,1517.27187319193,1,0,115794.675239019,115795.722262386,0,50,4,1,1,29,10,112303659,91011997,50601418,47493518,31910609,0,0,3101021,31511919,0,41610009,0,4170101,1110070,31700109,41610119,2060140,1200030,0,0,10210409,3121120,0,0,0,0,0,0,40001109,10600309,0,0,-1050180,3141110,11800209,0,0,0,0,31502019
1,91,1074.33810111252,0,0,115798.275134464,115799.32216245,0,50,4,0,0,14,10,28944658,68833469,55730809,115077107,0,0,10202009,0,3130080,0,4030010,10501519,1081040,0,0,0,41001209,-4021200,3001051,0,0,20810009,0,0,40300219,0,0,0,4030071,0,11400519,0,10201409,2030121,0,31001319,30511519,0,1121130,40211609
1,92,668.230849449174,0,0,115801.475048541,115802.522074987,0,50,4,1,0,3,20,115220983,107805278,105627988,166844984,10410209,12001509,-4051030,11901909,4031060,11811319,20101609,10210619,30701719,20110919,0,0,42012019,0,2031200,0,40510019,3141121,20712019,22001819,2090040,1151011,4171000,3181061,31110819,21210219,0,41910619,20111009,22001719,0,0,0,30210609,11000219,41610809
1,93,906.453546296689,0,0,115804.227918232,115805.274939289,0,50,4,1,0,10,0,7531180,8282231,4190202,0,0,4181140,0,0,0,1190000,0,2160040,0,-4111120,0,0,1110091,0,0,0,0,3061020,0,0,0,0,0,0,0,2170001,2020201,0,0,0,0,0,0,0,0,0
1,94,1542.91219801235,0,0,115807.298423832,115808.345436035,0,50,4,0,0,6,5,21232761,4080080,9463612,66824546,0,0,0,0,3190131,-3160200,3081121,11801309,0,0,0,0,0,0,0,4080080,0,0,3161191,0,2181140,0,3031191,1090090,0,0,0,12001809,31410409,12001519,0,0,0,11410809,0,0
1,95,793.918293493334,1,0,115811.09831304,115812.145334482,0,50,4,0,1,32,0,6350232,7292511,4081161,2000151,0,0,1160041,0,1140130,0,4050061,0,0,2071120,0,4151200,1070191,0,0,0,0,0,4081161,0,0,0,0,0,0,0,0,0,0,0,0,-2000151,0,0,0,0
1,96,592.410478391685,0,0,115814.015884429,115815.062908181,0,50,4,0,0,16,0,3051111,8281310,8090072,8320221,0,0,0,0,0,0,3051111,0,0,0,4190140,0,0,0,0,-3041080,1050090,0,0,0,0,0,0,0,4050031,0,4040041,0,0,0,0,0,0,4180150,4140071,0
1,97,562.466290022712,1,0,115822.556815789,115823.603845314,0,50,5,0,1,16,5,2190031,130436867,30811509,23781602,0,0,0,0,2190031,0,0,0,0,40211819,42010009,0,41901909,0,0,-3191030,2101070,1021030,0,30811509,0,0,0,0,0,0,0,3160181,3031010,3170121,0,10310219,0,4110071,0,0
1,98,843.74764029053,0,0,115825.227401614,115826.274399573,0,50,5,1,0,13,5,6211332,33302920,50753050,43532209,0,0,2090201,0,4121131,0,0,0,0,0,0,31211819,-2091101,0,0,0,0,0,1141151,11500319,1060040,0,0,0,3071090,30910319,3070131,0,0,0,21100609,2130181,0,20301419,0,0
1,99,1471.38606647786,1,0,115828.297841771,115829.344862443,0,50,5,0,1,6,20,130967949,112753936,145516146,157996444,20811519,40601409,1151171,41010909,0,-2130121,1061171,3000040,21201609,0,2010170,11911219,0,11610819,31700119,41201309,11200209,3120091,0,20211009,1181181,40901019,0,40510809,31801119,0,10911009,10501409,0,30401119,4171050,40510219,40100419,0,11110209,21202019
1,100,960.775772473426,0,0,115831.874211097,115832.921232538,0,50,5,1,0,25,10,90044398,69505350,74993718,83512877,41811119,0,31910519,0,2181151,4131090,10010519,0,0,0,1091171,2040181,3010150,0,0,20711919,2040120,40611809,0,30802019,40000509,0,0,0,-4191190,0,0,0,20200619,0,20211109,0,2090140,0,41011009,0
1,101,1158.98909165116,1,0,115834.93295229,115835.979974501,0,50,5,0,1,8,10,14762840,88016516,98442217,58195761,0,0,0,0,10701719,0,2060110,-2001011,0,3091080,0,20811909,21100309,21701609,0,21311609,0,0,21901019,4120070,0,0,30711019,0,0,41710109,0,0,11901719,3181091,4030131,3101121,31811509,4170190,0,0
1,102,1100.1682116912,0,0,115838.285804427,115839.332826253,0,50,5,0,0,11,10,123427168,77172959,1040120,113916626,1181111,0,30700219,40201909,0,3151170,42011419,2181140,4000200,0,-2010091,30811319,0,40211509,0,0,0,4140040,0,0,0,0,0,0,0,0,1040120,1200171,10100009,0,0,30101819,0,10001009,20912009,41601609
1,103,1354.39874014992,1,0,115841.497473671,115842.544502427,0,50,5,0,1,33,10,14143830,115883766,91103308,16540790,11101709,0,0,0,0,0,2041010,0,1001111,10100419,1050071,31811619,0,21611319,41310219,0,0,10000119,30611709,3200041,41900909,0,0,4090130,0,11300519,0,0,0,0,0,2010150,-2070120,2060101,10400419,0
1,104,791.581580444472,1,0,115845.097394523,115846.144400182,0,50,5,1,1,29,10,112303659,91011997,50601418,47493518,31910609,0,0,3101021,31511919,0,41610009,0,4170101,1110070,31700109,41610119,2060140,1200030,0,0,10210409,3121120,0,0,0,0,0,0,40001109,10600309,0,0,-1050180,3141110,11800209,0,0,0,0,31502019
1,105,736.415134873823,1,0,115848.038534378,115849.08550154,0,50,5,0,1,32,0,9110361,4271201,1021041,8112321,0,0,0,0,0,3000100,4000190,2110071,0,0,0,2080121,0,0,0,0,2191080,0,0,0,0,0,0,0,0,1021041,0,0,0,0,0,-4001160,0,0,4111161,0
1,106,879.56209834374,0,0,115850.838399718,115851.885425009,0,50,5,0,0,21,0,3071130,1051070,7332322,7261202,0,0,1031070,2040060,0,0,0,0,0,0,0,0,0,0,1051070,0,0,0,0,0,-4161121,0,3171201,0,0,0,0,0,0,0,1090001,4010171,2161030,0,0,0
1,107,910.765878972597,1,0,115853.803022576,115854.850101376,0,50,5,0,1,7,5,9322343,50654730,74892548,20111109,0,0,0,2161021,0,0,-3111191,4050131,0,3070071,0,0,31701609,11701809,3121041,1060200,0,0,0,0,30911009,0,0,1170080,1110140,0,41701319,0,0,0,20111109,0,0,0,0,0
1,108,1054.17808053608,0,0,115856.920586574,115857.96760763,0,50,5,1,0,3,20,115220983,107805278,105627988,166844984,10410209,12001509,-4051030,11901909,4031060,11811319,20101609,10210619,30701719,20110919,0,0,42012019,0,2031200,0,40510019,3141121,20712019,22001819,2090040,1151011,4171000,3181061,31110819,21210219,0,41910619,20111009,22001719,0,0,0,30210609,11000219,41610809
1,109,984.686082723783,0,0,115860.0852952,115861.132229256,0,50,5,1,0,36,5,4280300,60734459,23132840,59102888,0,0,2140180,0,0,2140120,0,0,0,3171201,0,0,0,32012009,4041030,0,21510219,0,0,0,1041051,0,0,1081070,0,0,21010719,0,0,21510519,2191150,0,0,0,31400109,-4001110
1,110,671.01989161165,0,0,115863.155699171,115864.202728697,0,50,5,0,0,14,0,7131280,10422301,0,9323190,0,0,0,4090160,0,3041120,0,0,0,0,4181200,3090061,0,-3151040,0,0,0,0,0,0,0,0,0,0,0,0,0,0,2081040,0,0,4161010,3081140,0,0,0
1,111,1051.73627316253,1,0,115866.038078969,115867.08500032,0,50,5,1,1,28,10,94893716,14431869,88883217,63503819,20010319,0,0,3171040,40200819,10311119,0,0,21200419,0,10400709,0,0,0,0,0,4031160,0,0,0,0,0,40511619,1190180,4171190,31200119,11810109,-4020171,3161150,2151020,0,4160150,10010709,0,40000619,0
1,112,681.466192239895,0,0,115869.226132783,115870.27315615,0,50,5,0,0,9,20,65515268,169128164,178055876,134412777,0,2180000,11201919,2070061,31211209,0,4160140,10511809,-4180130,10402019,2071151,31610719,10810719,32011209,0,30200219,21411519,30610609,0,40900719,21001319,21100509,1170111,3170181,20010309,30101019,40601709,0,30310109,0,0,41910509,0,20310219,1180131,40701809
1,113,632.852167196688,1,0,115872.037818735,115873.084835557,0,50,5,1,1,10,0,7531180,8282231,4190202,0,0,4181140,0,0,0,1190000,0,2160040,0,-4111120,0,0,1110091,0,0,0,0,3061020,0,0,0,0,0,0,0,2170001,2020201,0,0,0,0,0,0,0,0,0
1,114,1052.45230054425,1,0,115874.814207232,115875.861238297,0,50,5,1,1,30,0,8402211,6212231,8261200,2010131,0,0,0,3150001,0,0,0,2061040,3191170,0,0,0,2131100,0,4081131,0,0,0,0,0,0,4151180,0,4110020,0,0,0,0,0,-2010131,0,0,0,0,0,0
1,115,1275.31082046335,0,0,115878.108264666,115879.155257236,0,50,5,0,0,19,20,114326497,149397015,87834046,123583907,11101409,30010119,21410309,30411809,0,3071030,4041041,4180161,10100619,40511419,0,0,30200019,10801819,21801409,10200919,4070011,31811419,-3061180,0,20300019,0,0,20600809,30010619,11800409,2061010,0,4030131,11000609,0,40211419,4031091,10910019,42000119,11400519
1,116,1234.11229842168,1,0,115881.637552881,115882.684577787,0,50,5,0,1,5,5,66712449,10523282,4151071,98384247,41811419,0,0,0,-3101011,21800019,0,0,0,0,3061031,0,1201130,2081121,0,0,4180000,0,0,0,0,0,0,3150040,0,1001031,0,0,0,41511519,0,0,4170000,21902009,30800719,0
1,117,879.455464149942,1,0,115885.060987995,115886.108012902,0,50,5,1,1,26,20,160787076,153348397,146546154,108515627,2170151,21601219,0,41011909,0,30611109,4171170,40910609,20310909,30401709,3190161,30411519,30401509,4021131,0,30601009,3020050,21301309,21200119,0,11111109,20311909,20700619,30800519,41301809,-1120070,0,21611109,40301509,0,1011070,30400809,3190021,0,0,12001109
1,118,706.120632035891,0,0,115888.037379495,115889.084402861,0,50,5,1,0,34,5,43363141,12510300,94124876,2051051,3090090,0,4061150,4121041,0,1080041,31010819,0,0,0,4190060,0,4160200,0,0,4160040,0,0,0,0,31700519,0,30211619,0,0,21201919,11010819,0,0,0,0,0,0,-2051051,0,0
1,119,888.033549257671,0,0,115890.884354048,115891.931380109,0,50,5,1,0,23,20,78352670,160664445,128975376,118737844,30400409,30601809,3200071,0,1090161,2050001,0,11010219,0,0,30400119,21600419,20800009,31711519,1030170,10200109,40900909,4021191,0,20110409,41500109,20411609,-3151010,30310709,0,10401409,3090121,20100119,22001909,31101619,20811619,10011819,0,4010140,10700619,0
1,120,1238.64636861254,1,0,115893.907812029,115894.954825771,0,50,5,1,1,1,0,10341392,5261351,1001010,4180170,-4010081,0,1100000,4111130,0,0,0,0,1120181,0,1111181,0,0,0,0,0,4150170,0,0,0,0,0,1001010,0,0,0,0,0,0,0,0,0,0,0,4180170,0
1,121,854.430306964787,0,0,115906.083932439,115907.13096004,0,50,6,1,0,3,20,115220983,107805278,105627988,166844984,10410209,12001509,-4051030,11901909,4031060,11811319,20101609,10210619,30701719,20110919,0,0,42012019,0,2031200,0,40510019,3141121,20712019,22001819,2090040,1151011,4171000,3181061,31110819,21210219,0,41910619,20111009,22001719,0,0,0,30210609,11000219,41610809
1,122,682.279999717139,1,0,115909.072093349,115910.119114021,0,50,6,0,1,14,0,1090150,6341441,6181041,4290161,0,0,0,0,0,1090150,0,0,0,0,0,0,1200080,-1040201,0,0,0,4101160,0,0,0,0,0,2100001,0,0,4081040,0,0,1090080,0,3200081,0,0,0,0
1,123,1732.16439594398,0,0,115911.966132845,115913.013154671,0,50,6,0,0,6,10,53453630,71725599,105472147,43064007,0,4040200,2031121,0,21901509,-4170181,0,21310619,0,0,0,0,21000509,3111091,3191010,40311919,4111070,0,32001319,0,30300509,0,0,0,3170100,40000219,0,10410319,1051060,0,0,0,0,0,10101819,21500809
1,124,1159.84024034697,1,0,115915.848373672,115916.895395498,0,50,6,1,1,10,0,7531180,8282231,4190202,0,0,4181140,0,0,0,1190000,0,2160040,0,-4111120,0,0,1110091,0,0,0,0,3061020,0,0,0,0,0,0,0,2170001,2020201,0,0,0,0,0,0,0,0,0
1,125,1335.16878527007,0,0,115919.165931818,115920.212954415,0,50,6,1,0,25,10,90044398,69505350,74993718,83512877,41811119,0,31910519,0,2181151,4131090,10010519,0,0,0,1091171,2040181,3010150,0,0,20711919,2040120,40611809,0,30802019,40000509,0,0,0,-4191190,0,0,0,20200619,0,20211109,0,2090140,0,41011009,0
1,126,609.983176342212,1,0,115922.648188967,115923.695211564,0,50,6,0,1,33,20,114355445,98687285,122226627,71654097,0,40911809,10301119,20300719,10211209,0,30610419,2020170,0,3151090,20801819,10100409,0,22000219,21401819,20110809,0,1121120,4180031,1021130,3181181,40611619,11300019,20511119,30011109,11410419,0,10511719,10000219,0,11010309,3090061,-4031061,11610009,21400719,0
1,127,634.841645442066,1,0,115925.389285398,115926.436311459,0,50,6,1,1,23,20,78352670,160664445,128975376,118737844,30400409,30601809,3200071,0,1090161,2050001,0,11010219,0,0,30400119,21600419,20800009,31711519,1030170,10200109,40900909,4021191,0,20110409,41500109,20411609,-3151010,30310709,0,10401409,3090121,20100119,22001909,31101619,20811619,10011819,0,4010140,10700619,0
1,128,1096.54996360769,0,0,115928.177510289,115929.224473986,0,50,6,1,0,13,5,6211332,33302920,50753050,43532209,0,0,2090201,0,4121131,0,0,0,0,0,0,31211819,-2091101,0,0,0,0,0,1141151,11500319,1060040,0,0,0,3071090,30910319,3070131,0,0,0,21100609,2130181,0,20301419,0,0
1,129,803.428754021297,1,0,115931.365595285,115932.412623656,0,50,6,1,1,1,0,10341392,5261351,1001010,4180170,-4010081,0,1100000,4111130,0,0,0,0,1120181,0,1111181,0,0,0,0,0,4150170,0,0,0,0,0,1001010,0,0,0,0,0,0,0,0,0,0,0,4180170,0
1,130,843.620603176532,1,0,115934.271404577,115935.318424094,0,50,6,1,1,29,10,112303659,91011997,50601418,47493518,31910609,0,0,3101021,31511919,0,41610009,0,4170101,1110070,31700109,41610119,2060140,1200030,0,0,10210409,3121120,0,0,0,0,0,0,40001109,10600309,0,0,-1050180,3141110,11800209,0,0,0,0,31502019
1,131,889.088727257331,0,0,115937.23602089,115938.283042717,0,50,6,1,0,30,0,8402211,6212231,8261200,2010131,0,0,0,3150001,0,0,0,2061040,3191170,0,0,0,2131100,0,4081131,0,0,0,0,0,0,4151180,0,4110020,0,0,0,0,0,-2010131,0,0,0,0,0,0
1,132,788.473405642435,1,0,115940.259461933,115941.306493384,0,50,6,0,1,16,5,44201729,2181150,86904219,33892740,2140051,0,0,1150150,0,0,30411019,0,10500509,0,0,0,1031150,0,0,-1150000,0,0,0,41301319,3161010,40411719,0,2030171,0,0,0,0,0,31711509,0,1161121,0,1020110,0,0
1,133,1040.18397968321,0,0,115943.294681627,115944.341704608,0,50,6,0,0,9,5,15243510,5361402,1050141,86485036,0,0,0,0,0,0,10211309,4011101,-1021100,0,0,1130181,0,0,0,0,2170130,2061091,0,0,0,0,1050141,0,0,0,0,10210909,1160000,10811209,0,0,0,40701209,20401519,3200190
1,134,970.348596689291,1,0,115946.494591854,115947.541618685,0,50,6,1,1,34,5,43363141,12510300,94124876,2051051,3090090,0,4061150,4121041,0,1080041,31010819,0,0,0,4190060,0,4160200,0,0,4160040,0,0,0,0,31700519,0,30211619,0,0,21201919,11010819,0,0,0,0,0,0,-2051051,0,0
1,135,896.184712648392,1,0,115949.635684281,115950.682707262,0,50,6,0,1,19,0,3301130,9371130,6051241,1090140,0,1150120,2151010,0,0,0,0,0,0,2190080,4150020,0,0,3031030,0,0,0,0,-4041040,0,0,0,0,0,0,0,2010201,0,0,0,1090140,0,0,0,0,0
1,136,1081.07799761638,0,0,115952.670886651,115953.717918871,0,50,6,1,0,36,5,4280300,60734459,23132840,59102888,0,0,2140180,0,0,2140120,0,0,0,3171201,0,0,0,32012009,4041030,0,21510219,0,0,0,1041051,0,0,1081070,0,0,21010719,0,0,21510519,2191150,0,0,0,31400109,-4001110
1,137,1499.80580942065,1,0,115956.011972841,115957.058993513,0,50,6,0,1,5,20,141798284,117518706,122636806,90655139,31610619,11201219,11500509,0,-4181161,20401319,21501219,20200919,21201319,0,40401519,41000919,0,10901909,10000819,10011509,2091020,3111011,3200151,30911609,41900719,20801009,0,11811519,2011180,12000619,0,2131171,10411109,3181130,0,0,41300509,30611109,0,3020111
1,138,1843.87737214274,0,0,115959.706078627,115960.753013452,0,50,6,0,0,32,5,114762078,46121472,1131180,37023791,0,0,1160041,30500219,0,41200809,41901009,0,0,0,3020041,0,1100001,0,41001319,1000111,0,0,0,0,0,0,0,0,1131180,0,0,0,0,1111180,0,-2200161,2011031,0,0,31701419
1,139,828.913169651059,1,0,115963.752938,115964.799963676,0,50,6,0,1,8,20,72454698,157507045,142358346,138253725,4031171,12010409,40510409,1080200,0,10811419,0,-4011090,0,4170190,0,0,41011409,41000409,40101709,20512009,10711319,0,10611609,2110130,21201119,20900609,30311319,10600209,41412009,4011201,1200141,10811419,11300409,21400119,1020131,0,30600419,42010019,21111209,0
1,140,876.005059064482,0,0,115966.658737668,115967.705762189,0,50,6,1,0,28,10,94893716,14431869,88883217,63503819,20010319,0,0,3171040,40200819,10311119,0,0,21200419,0,10400709,0,0,0,0,0,4031160,0,0,0,0,0,40511619,1190180,4171190,31200119,11810109,-4020171,3161150,2151020,0,4160150,10010709,0,40000619,0
1,141,1010.41841320693,1,0,115969.729239033,115970.776266249,0,50,6,0,1,7,10,48804439,21370340,42193430,147976347,31601319,0,0,0,12011919,4161111,-1030090,0,0,0,0,1060031,0,0,0,0,0,20310309,0,0,0,0,3080151,4071040,11601219,20310819,3130201,41310219,1011011,10900409,2141071,0,41802009,30210609,20601019,0
1,142,1706.34968380909,1,0,115972.823275757,115973.870303743,0,50,6,0,1,21,0,3110101,4171011,6331312,12382273,0,0,0,3110101,0,0,0,0,0,0,0,0,0,0,0,0,0,4171011,0,1190001,-2110121,0,0,0,3031190,0,0,0,4130101,4181081,0,0,0,0,0,4071091
1,143,793.696171007468,0,0,115976.681994314,115977.729019605,0,50,6,1,0,26,20,160787076,153348397,146546154,108515627,2170151,21601219,0,41011909,0,30611109,4171170,40910609,20310909,30401709,3190161,30411519,30401509,4021131,0,30601009,3020050,21301309,21200119,0,11111109,20311909,20700619,30800519,41301809,-1120070,0,21611109,40301509,0,1011070,30400809,3190021,0,0,12001109
1,144,1109.52160814486,0,0,115979.681911163,115980.728986114,0,50,6,0,0,11,10,91873380,66164008,64604028,69614638,4151121,0,40210309,3140141,0,41300609,0,3071200,0,0,-1161020,22000319,31600809,0,0,0,1190041,10211819,30711009,2190091,0,0,10200909,0,0,0,21502019,0,0,20501909,41001509,0,4070050,4041170,0,0
1,145,977.75524557801,1,0,115988.328732578,115989.375781737,0,50,7,1,1,1,0,10341392,5261351,1001010,4180170,-4010081,0,1100000,4111130,0,0,0,0,1120181,0,1111181,0,0,0,0,0,4150170,0,0,0,0,0,1001010,0,0,0,0,0,0,0,0,0,0,0,4180170,0
1,146,759.35341870354,0,0,115991.55216931,115992.59920153,0,50,7,0,0,21,20,136436486,148398557,196476305,87604345,30110619,20610909,20600409,21502009,41511409,1040100,0,1061031,0,31800619,40800619,3141180,42002009,0,2001080,4031181,20501719,4120150,20300219,40100919,-3051101,20211419,30810609,41601519,0,0,40400519,0,10400819,31100019,0,21401309,11510509,10111609,3080080,0
1,147,740.93765624275,0,0,115994.528563504,115995.575583405,0,50,7,1,0,3,20,115220983,107805278,105627988,166844984,10410209,12001509,-4051030,11901909,4031060,11811319,20101609,10210619,30701719,20110919,0,0,42012019,0,2031200,0,40510019,3141121,20712019,22001819,2090040,1151011,4171000,3181061,31110819,21210219,0,41910619,20111009,22001719,0,0,0,30210609,11000219,41610809
1,148,1062.40700604394,1,0,115997.504950768,115998.551978754,0,50,7,1,1,34,5,43363141,12510300,94124876,2051051,3090090,0,4061150,4121041,0,1080041,31010819,0,0,0,4190060,0,4160200,0,0,4160040,0,0,0,0,31700519,0,30211619,0,0,21201919,11010819,0,0,0,0,0,0,-2051051,0,0
1,149,1073.77759795054,0,0,116000.716678142,116001.763649924,0,50,7,1,0,29,10,112303659,91011997,50601418,47493518,31910609,0,0,3101021,31511919,0,41610009,0,4170101,1110070,31700109,41610119,2060140,1200030,0,0,10210409,3121120,0,0,0,0,0,0,40001109,10600309,0,0,-1050180,3141110,11800209,0,0,0,0,31502019
1,150,762.975901350728,1,0,116003.975359974,116005.022387575,0,50,7,0,1,14,10,60695138,47713519,117075257,50143210,4001130,0,11201209,0,0,0,4181080,41311719,0,0,31901709,0,2020061,-2090040,0,0,0,11701709,1010061,0,10510909,41501919,0,3051140,30500209,30501019,0,11011309,0,4080071,3140121,31911709,0,0,0,0
1,151,779.227413280751,1,0,116006.787053625,116007.834070447,0,50,7,1,1,10,0,7531180,8282231,4190202,0,0,4181140,0,0,0,1190000,0,2160040,0,-4111120,0,0,1110091,0,0,0,0,3061020,0,0,0,0,0,0,0,2170001,2020201,0,0,0,0,0,0,0,0,0
1,152,753.1905786891,1,0,116009.775201062,116010.822225968,0,50,7,1,1,25,10,90044398,69505350,74993718,83512877,41811119,0,31910519,0,2181151,4131090,10010519,0,0,0,1091171,2040181,3010150,0,0,20711919,2040120,40611809,0,30802019,40000509,0,0,0,-4191190,0,0,0,20200619,0,20211109,0,2090140,0,41011009,0
1,153,856.306991641759,1,0,116012.633941947,116013.680974168,0,50,7,0,1,19,10,65723649,81754651,89515518,43961598,0,4011111,0,20900819,0,0,0,0,40811719,0,0,41111009,2020161,3201000,30301409,1090071,4031001,0,-2121151,0,41111619,11111019,20801409,4170001,0,0,10200319,31000319,0,11800109,0,0,0,1161170,0,0
1,154,1277.68833936716,1,0,116015.598575969,116016.64559741,0,50,7,0,1,11,5,11271300,68643248,35652489,45661830,3031080,4170110,4070110,0,0,0,0,0,0,31801309,-2150170,0,30600709,0,0,0,4091060,0,10701209,21800209,0,3151071,0,0,0,0,0,41510609,2031161,0,0,0,2120060,0,0,0
1,155,1356.09179847233,1,0,116019.069066016,116020.116092847,0,50,7,0,1,5,10,82895787,51403428,41822558,38033808,11611809,0,3000010,30200709,-3061040,4121010,0,30901209,0,41201919,0,0,0,0,0,10201509,0,0,21201219,0,4050190,10500019,0,3041070,3030060,0,0,10201019,0,3010090,10111609,10600009,0,0,0,4111081
1,156,1032.70226340101,0,0,116022.539579162,116023.58657712,0,50,7,1,0,36,5,4280300,60734459,23132840,59102888,0,0,2140180,0,0,2140120,0,0,0,3171201,0,0,0,32012009,4041030,0,21510219,0,0,0,1041051,0,0,1081070,0,0,21010719,0,0,21510519,2191150,0,0,0,31400109,-4001110
1,157,798.025441981736,0,0,116025.810050808,116026.857076869,0,50,7,0,0,33,0,0,6160240,5301171,11294492,0,0,0,0,0,0,0,0,0,4030130,0,2130110,0,0,0,0,0,0,1131160,0,0,4170011,0,0,0,0,0,0,0,1101170,4041101,0,-4141151,0,0,2011070
1,158,1012.36785551009,0,0,116028.668798237,116029.715820449,0,50,7,0,0,8,0,11563513,0,7182161,2080201,0,0,2061010,1030191,3121051,4170110,0,-1181151,0,0,0,0,0,0,0,0,0,0,3091110,0,0,0,0,0,0,4091051,0,0,0,0,0,0,0,2080201,0,0
1,159,816.962441575015,1,0,116031.90400746,116032.951031211,0,50,7,1,1,13,5,6211332,33302920,50753050,43532209,0,0,2090201,0,4121131,0,0,0,0,0,0,31211819,-2091101,0,0,0,0,0,1141151,11500319,1060040,0,0,0,3071090,30910319,3070131,0,0,0,21100609,2130181,0,20301419,0,0
1,160,641.321308343322,1,0,116034.809809822,116035.856835114,0,50,7,0,1,32,0,3122230,1081060,3190191,6202380,2021130,0,0,0,1101100,0,0,0,0,1081060,0,0,0,0,0,0,0,0,0,0,0,0,0,0,0,0,3190191,1051150,0,0,0,-1020100,3101110,0,0,1030020
1,161,808.711188336019,0,0,116037.527430949,116038.57440042,0,50,7,1,0,26,20,160787076,153348397,146546154,108515627,2170151,21601219,0,41011909,0,30611109,4171170,40910609,20310909,30401709,3190161,30411519,30401509,4021131,0,30601009,3020050,21301309,21200119,0,11111109,20311909,20700619,30800519,41301809,-1120070,0,21611109,40301509,0,1011070,30400809,3190021,0,0,12001109
1,162,1612.53123295319,0,0,116040.421415779,116041.468437606,0,50,7,0,0,7,5,37013220,84482327,6192221,40584490,0,0,0,3191180,31801019,0,-2021021,0,0,0,0,40410809,20900009,0,3071190,0,20100319,0,0,3041200,0,3151021,0,0,0,0,0,0,0,0,0,4171081,0,2161070,4141130,30111209
1,163,1363.87686399394,0,0,116044.186016386,116045.233042447,0,50,7,0,0,6,20,153414936,181629706,67341100,237440003,1021171,10700219,3180140,41900309,41811619,-3090150,10411309,0,41300019,3021121,30801919,0,21911519,1081091,30511109,31500619,21801319,41001009,1070001,1030121,0,0,31110419,0,0,2120050,32010509,40910109,30301719,41211919,0,40100709,41012019,31902009,12001519,0
1,164,1175.21057663544,0,0,116047.750623999,116048.797646981,0,50,7,0,0,9,20,150259364,109526956,126937696,95416857,10411909,10912019,0,0,20711309,22001719,41900309,41302019,-3020080,0,3141171,20900819,21410719,31012019,1150100,20211809,11700319,0,30401509,21611909,0,2111041,32000609,30701909,0,0,10110719,11500809,4041120,2061010,3061091,1040180,11710709,20901519,41100419,0
1,165,831.969374718028,0,0,116051.032889695,116052.079909982,0,50,7,1,0,23,20,78352670,160664445,128975376,118737844,30400409,30601809,3200071,0,1090161,2050001,0,11010219,0,0,30400119,21600419,20800009,31711519,1030170,10200109,40900909,4021191,0,20110409,41500109,20411609,-3151010,30310709,0,10401409,3090121,20100119,22001909,31101619,20811619,10011819,0,4010140,10700619,0
1,166,499.97673209873,1,0,116054.032806158,116055.07983145,0,50,7,0,1,16,5,56733649,67084469,0,13451201,0,3181181,0,0,1040030,0,41510919,0,11001519,22011609,21900709,1081021,0,0,0,-2090111,20001019,0,0,0,0,0,0,0,0,0,0,3200020,0,0,2110000,0,4081051,0,0,4060130
1,167,1108.66930459451,1,0,116056.668021771,116057.715100572,0,50,7,1,1,30,0,8402211,6212231,8261200,2010131,0,0,0,3150001,0,0,0,2061040,3191170,0,0,0,2131100,0,4081131,0,0,0,0,0,0,4151180,0,4110020,0,0,0,0,0,-2010131,0,0,0,0,0,0
1,168,732.906600678689,0,0,116059.914993091,116060.962019922,0,50,7,1,0,28,10,94893716,14431869,88883217,63503819,20010319,0,0,3171040,40200819,10311119,0,0,21200419,0,10400709,0,0,0,0,0,4031160,0,0,0,0,0,40511619,1190180,4171190,31200119,11810109,-4020171,3161150,2151020,0,4160150,10010709,0,40000619,0
1,169,1104.89129771304,1,0,116065.961884416,116067.008907012,0,50,8,1,1,25,10,90044398,69505350,74993718,83512877,41811119,0,31910519,0,2181151,4131090,10010519,0,0,0,1091171,2040181,3010150,0,0,20711919,2040120,40611809,0,30802019,40000509,0,0,0,-4191190,0,0,0,20200619,0,20211109,0,2090140,0,41011009,0
1,170,912.749967756099,1,0,116069.15003832,116070.197105572,0,50,8,1,1,1,0,10341392,5261351,1001010,4180170,-4010081,0,1100000,4111130,0,0,0,0,1120181,0,1111181,0,0,0,0,0,4150170,0,0,0,0,0,1001010,0,0,0,0,0,0,0,0,0,0,0,4180170,0
1,171,1214.21212649147,0,0,116072.173481288,116073.220496185,0,50,8,0,0,9,0,4331061,7341102,9271281,4140060,0,0,0,1151051,0,0,0,0,-3180010,0,0,3190071,0,0,0,0,0,4151031,0,2171150,0,0,4100020,0,0,3000111,0,0,0,0,0,0,0,0,0,4140060
1,172,728.185054496862,1,0,116075.514565938,116076.561586995,0,50,8,1,1,28,10,94893716,14431869,88883217,63503819,20010319,0,0,3171040,40200819,10311119,0,0,21200419,0,10400709,0,0,0,0,0,4031160,0,0,0,0,0,40511619,1190180,4171190,31200119,11810109,-4020171,3161150,2151020,0,4160150,10010709,0,40000619,0
1,173,622.103672212688,0,0,116078.314487483,116079.361514314,0,50,8,0,0,14,20,112360828,56383579,158520044,152015885,21711619,0,2151010,30201819,2151161,20212009,2071131,30701909,3160170,0,0,2010151,0,-2160191,10111219,31802009,0,10300009,40000809,10001609,20611609,3070061,31311509,11200819,0,31011609,11312019,40911119,31501209,11411809,21010019,12000419,0,0,32011309,3170001
1,174,718.387798027834,1,0,116081.079113882,116082.126149952,0,50,8,1,1,30,0,8402211,6212231,8261200,2010131,0,0,0,3150001,0,0,0,2061040,3191170,0,0,0,2131100,0,4081131,0,0,0,0,0,0,4151180,0,4110020,0,0,0,0,0,-2010131,0,0,0,0,0,0
1,175,934.867899777601,0,0,116083.996689121,116085.043706713,0,50,8,0,0,19,10,145515975,67073239,15372422,80663348,41310409,31200919,10701819,31801819,0,0,30501009,0,0,2101071,0,0,0,41501009,2170150,0,0,21301009,-4200150,0,0,0,0,4041131,0,3021101,4110040,0,4070171,0,0,10610909,21001009,0,40800109,4181150
1,176,795.186739851488,0,0,116087.161306512,116088.208326029,0,50,8,1,0,23,20,78352670,160664445,128975376,118737844,30400409,30601809,3200071,0,1090161,2050001,0,11010219,0,0,30400119,21600419,20800009,31711519,1030170,10200109,40900909,4021191,0,20110409,41500109,20411609,-3151010,30310709,0,10401409,3090121,20100119,22001909,31101619,20811619,10011819,0,4010140,10700619,0
1,177,1051.08414929418,1,0,116090.102396706,116091.149426617,0,50,8,1,1,13,5,6211332,33302920,50753050,43532209,0,0,2090201,0,4121131,0,0,0,0,0,0,31211819,-2091101,0,0,0,0,0,1141151,11500319,1060040,0,0,0,3071090,30910319,3070131,0,0,0,21100609,2130181,0,20301419,0,0
1,178,662.197356301476,1,0,116093.408186981,116094.455221896,0,50,8,0,1,33,5,18214050,64323299,17093159,49213770,0,0,0,11911909,2161111,4141030,0,0,0,0,0,40911409,2110181,0,0,0,0,21301709,4180200,0,0,11711809,0,0,0,1201150,0,0,0,1130120,3111041,0,-4061100,40911509,0,0
1,179,977.342567435699,1,0,116096.313988574,116097.361021949,0,50,8,1,1,36,5,4280300,60734459,23132840,59102888,0,0,2140180,0,0,2140120,0,0,0,3171201,0,0,0,32012009,4041030,0,21510219,0,0,0,1041051,0,0,1081070,0,0,21010719,0,0,21510519,2191150,0,0,0,31400109,-4001110
1,180,877.557991581853,1,0,116099.372735926,116100.419767762,0,50,8,1,1,26,20,160787076,153348397,146546154,108515627,2170151,21601219,0,41011909,0,30611109,4171170,40910609,20310909,30401709,3190161,30411519,30401509,4021131,0,30601009,3020050,21301309,21200119,0,11111109,20311909,20700619,30800519,41301809,-1120070,0,21611109,40301509,0,1011070,30400809,3190021,0,0,12001109
1,181,464.254279708257,1,0,116102.302060173,116103.349088929,0,50,8,0,1,16,5,79703388,6052241,75914030,5231071,4001120,11211109,30100019,30201109,0,0,4190031,0,0,0,0,0,0,0,0,-2021151,4031090,0,0,40911519,0,0,1111171,30710319,0,3181021,0,0,0,0,0,0,0,0,3040010,2191061
1,182,1488.76166441187,0,0,116104.972578631,116106.019629715,0,50,8,0,0,6,10,43011979,54093779,117789278,26544729,0,20211209,0,0,0,-1100061,0,21700709,0,0,0,0,30201109,0,1190061,21611419,1091190,0,21912019,0,31001719,11511209,41000019,1021180,4141091,3051040,4151001,0,0,11411709,4031011,11102009,0,0,0,0
1,183,746.472239989089,1,0,116108.654829929,116109.70185676,0,50,8,0,1,21,0,5161190,6181241,6331231,4111100,0,0,0,1030140,0,0,0,0,4131050,0,0,2001160,2070070,0,0,0,2110011,0,0,0,-2160200,0,0,4171031,0,0,0,0,0,0,0,0,4111100,0,0,0
1,184,1014.71727226453,0,0,116111.560693885,116112.607656428,0,50,8,0,0,11,20,195048832,82694929,69544206,155259165,0,11211819,11301319,20410119,20611119,40700009,40101119,40112019,10601309,4151160,-2000080,3030081,2100181,0,30501109,10402009,0,30510309,0,0,4051180,10710209,20511909,0,11410109,20700619,2160180,2091120,40401819,30301319,10211519,0,30710919,0,1031060,40511409
1,185,608.773629006464,0,0,116114.713486046,116115.760532125,0,50,8,1,0,34,5,43363141,12510300,94124876,2051051,3090090,0,4061150,4121041,0,1080041,31010819,0,0,0,4190060,0,4160200,0,0,4160040,0,0,0,0,31700519,0,30211619,0,0,21201919,11010819,0,0,0,0,0,0,-2051051,0,0
1,186,796.484828213579,0,0,116117.501643569,116118.54867117,0,50,8,0,0,32,10,122614675,56982629,48512118,29942269,10000219,0,30201019,0,0,41111609,20500009,0,20801819,11300419,0,0,0,41501019,2070030,2111161,0,0,0,21410109,0,21910909,0,1190100,0,0,4001000,4130010,0,1070140,0,-2050130,0,0,21601809,1090180
1,187,1106.49658492184,1,0,116120.395676905,116121.442711435,0,50,8,1,1,29,10,112303659,91011997,50601418,47493518,31910609,0,0,3101021,31511919,0,41610009,0,4170101,1110070,31700109,41610119,2060140,1200030,0,0,10210409,3121120,0,0,0,0,0,0,40001109,10600309,0,0,-1050180,3141110,11800209,0,0,0,0,31502019
1,188,1342.59468220989,0,0,116123.701479883,116124.748555604,0,50,8,0,0,5,0,10212261,4161212,9231343,0,0,0,0,0,-3050061,0,3141030,4021170,0,0,0,0,0,0,0,0,2060081,2101131,3030051,0,0,0,3110171,0,0,3091121,0,0,0,0,0,0,0,0,0,0
1,189,863.144283284782,0,0,116127.266087496,116128.313105858,0,50,8,0,0,7,5,4101051,69626121,63011128,17163399,0,0,0,0,0,0,-4101051,0,0,0,3121121,0,32012019,2151091,0,2140071,0,30201819,0,0,0,0,31310219,0,31700909,0,0,1131160,0,1050030,11700909,1170140,0,0,2111160,0
1,190,554.753212214564,1,0,116130.195424062,116131.242495934,0,50,8,1,1,10,0,7531180,8282231,4190202,0,0,4181140,0,0,0,1190000,0,2160040,0,-4111120,0,0,1110091,0,0,0,0,3061020,0,0,0,0,0,0,0,2170001,2020201,0,0,0,0,0,0,0,0,0
1,191,796.866709497408,0,0,116132.901213413,116133.948241014,0,50,8,0,0,8,20,130235866,129866745,186447494,110686098,0,31510219,21401519,30800519,0,3041110,0,-3071080,40411419,0,11511709,31410509,41310109,2030171,0,21001519,10901119,11701609,30600809,21901409,30201109,3150010,4180070,40800709,31502009,2110060,22001309,4181091,10311819,41110819,0,31201709,0,2080051,21800609,0
1,192,830.863766837865,0,0,116135.795262148,116136.842280895,0,50,8,1,0,3,20,115220983,107805278,105627988,166844984,10410209,12001509,-4051030,11901909,4031060,11811319,20101609,10210619,30701719,20110919,0,0,42012019,0,2031200,0,40510019,3141121,20712019,22001819,2090040,1151011,4171000,3181061,31110819,21210219,0,41910619,20111009,22001719,0,0,0,30210609,11000219,41610809
1,193,542.196940557915,0,0,116146.959655492,116148.006679243,0,50,9,0,0,21,10,15131100,112343556,85394822,119863458,0,2100111,0,11900919,1130070,0,0,0,0,0,12011509,30110919,30210509,40010619,0,0,0,0,2091171,0,-3080091,3021041,0,0,41301009,31810319,4091191,0,40111219,0,30801009,3151020,0,4190101,41610109,0
1,194,766.731965442887,1,0,116149.630205131,116150.677196161,0,50,9,0,1,14,0,7350382,2201200,4061222,2371220,0,0,0,3160081,2120121,0,0,0,2070180,0,0,0,0,-2201200,0,0,0,0,0,3021161,0,1040061,0,0,0,0,0,1200020,0,0,0,1171200,0,0,0,0
1,195,1124.41844245768,0,0,116152.465384096,116153.512409002,0,50,9,1,0,25,10,90044398,69505350,74993718,83512877,41811119,0,31910519,0,2181151,4131090,10010519,0,0,0,1091171,2040181,3010150,0,0,20711919,2040120,40611809,0,30802019,40000509,0,0,0,-4191190,0,0,0,20200619,0,20211109,0,2090140,0,41011009,0
1,196,1007.27636185184,1,0,116155.747649021,116156.794673927,0,50,9,0,1,5,0,2220262,8252242,6091283,0,0,0,0,0,-1150071,0,0,1070191,0,0,0,3021130,0,0,0,3171091,0,2060021,0,1000171,0,0,0,0,3070001,2021111,0,0,0,0,0,0,0,0,0,0
1,197,593.274330793065,1,0,116158.900502005,116159.947533456,0,50,9,0,1,8,20,208735665,139676356,80175009,185246944,42010309,0,30900309,0,40711309,41011309,31811019,-2091101,20200309,41900519,20811109,31310419,0,1111020,20901919,0,2140161,21501209,0,11010719,20900909,42002009,0,0,2091131,1160191,3010050,20411219,4190040,4140030,0,41601709,30201809,21800309,21500619,41401209
1,198,1280.60980809096,0,0,116161.712203741,116162.759219793,0,50,9,1,0,34,5,43363141,12510300,94124876,2051051,3090090,0,4061150,4121041,0,1080041,31010819,0,0,0,4190060,0,4160200,0,0,4160040,0,0,0,0,31700519,0,30211619,0,0,21201919,11010819,0,0,0,0,0,0,-2051051,0,0
1,199,989.654388889903,0,0,116165.21797546,116166.265040787,0,50,9,0,0,19,5,5241352,33602600,29863651,38042998,0,0,0,0,0,0,1081151,4160201,0,0,0,2101191,0,0,0,31501409,0,0,-2150151,2180120,2001181,0,0,21401019,0,0,2131180,0,11501919,11810419,0,0,0,0,10700509,4030151
1,200,803.453006563359,0,0,116168.347300016,116169.394330311,0,50,9,0,0,7,5,3211172,44870778,48921160,55754659,1101141,0,0,0,0,0,-2110031,0,0,20400519,21410119,0,0,2060070,0,0,0,1000070,0,4101001,0,0,40800019,0,0,0,4020140,20611709,30001619,0,0,0,0,2040161,3101170,0
1,201,1002.0127906173,1,0,116171.276630037,116172.323656483,0,50,9,1,1,10,0,7531180,8282231,4190202,0,0,4181140,0,0,0,1190000,0,2160040,0,-4111120,0,0,1110091,0,0,0,0,3061020,0,0,0,0,0,0,0,2170001,2020201,0,0,0,0,0,0,0,0,0
1,202,554.015627014451,1,0,116174.523597122,116175.570629343,0,50,9,1,1,26,20,160787076,153348397,146546154,108515627,2170151,21601219,0,41011909,0,30611109,4171170,40910609,20310909,30401709,3190161,30411519,30401509,4021131,0,30601009,3020050,21301309,21200119,0,11111109,20311909,20700619,30800519,41301809,-1120070,0,21611109,40301509,0,1011070,30400809,3190021,0,0,12001109
1,203,707.685498346109,1,0,116177.205931187,116178.252894884,0,50,9,0,1,32,5,78713781,84951869,17052709,4212171,31010219,0,0,41510209,3001031,2021161,1171161,0,0,41810419,0,41011419,0,0,2130031,0,0,0,0,0,0,0,0,0,2011020,3141180,11900509,0,0,0,0,-2161070,0,0,2051101,0
1,204,770.05437281332,1,0,116180.111681965,116181.158505342,0,50,9,1,1,13,5,6211332,33302920,50753050,43532209,0,0,2090201,0,4121131,0,0,0,0,0,0,31211819,-2091101,0,0,0,0,0,1141151,11500319,1060040,0,0,0,3071090,30910319,3070131,0,0,0,21100609,2130181,0,20301419,0,0
1,205,1288.17429098126,1,0,116183.017480478,116184.064511928,0,50,9,1,1,29,10,112303659,91011997,50601418,47493518,31910609,0,0,3101021,31511919,0,41610009,0,4170101,1110070,31700109,41610119,2060140,1200030,0,0,10210409,3121120,0,0,0,0,0,0,40001109,10600309,0,0,-1050180,3141110,11800209,0,0,0,0,31502019
1,206,1077.26919386187,0,0,116186.417391783,116187.464412454,0,50,9,1,0,36,5,4280300,60734459,23132840,59102888,0,0,2140180,0,0,2140120,0,0,0,3171201,0,0,0,32012009,4041030,0,21510219,0,0,0,1041051,0,0,1081070,0,0,21010719,0,0,21510519,2191150,0,0,0,31400109,-4001110
1,207,792.308386735385,0,0,116189.723180518,116190.770205039,0,50,9,0,0,16,20,209665924,148777288,97164836,131016176,42001219,0,4040030,21410819,40200819,30901619,30910209,0,40201209,10210519,31710019,4000031,21501709,2141001,31611309,-3090200,4101191,40411309,41801609,0,0,0,2050190,11800919,0,31100509,10411609,0,30910919,30500609,11111819,40411419,4150140,0,11811109,2120161
1,208,993.291885009967,1,0,116192.57016508,116193.617184982,0,50,9,0,1,11,10,112115816,45783319,89214468,15951709,41500409,20910419,30711709,11902019,0,3090070,0,4001190,0,0,-2041200,0,0,30510709,0,3131091,0,10100319,4180201,1120020,31701309,11101619,0,41111319,0,0,0,4141200,0,0,0,0,1100190,0,0,10710319
1,209,567.61629776156,0,0,116195.73478863,116196.781852418,0,50,9,0,0,9,10,40214513,93801137,76374598,43882368,4101081,1121091,0,4180131,4051040,0,4031060,20700009,-2030101,0,0,0,0,21600119,41800909,30400109,0,0,41400819,20501809,0,10400909,4071061,0,0,0,0,0,10611609,1060131,0,0,20200019,0,0,12010609
1,210,1583.16756572458,1,0,116198.511171737,116199.558198183,0,50,9,1,1,1,0,10341392,5261351,1001010,4180170,-4010081,0,1100000,4111130,0,0,0,0,1120181,0,1111181,0,0,0,0,0,4150170,0,0,0,0,0,1001010,0,0,0,0,0,0,0,0,0,0,0,4180170,0
1,211,670.480561311706,0,0,116202.322833822,116203.369854493,0,50,9,1,0,30,0,8402211,6212231,8261200,2010131,0,0,0,3150001,0,0,0,2061040,3191170,0,0,0,2131100,0,4081131,0,0,0,0,0,0,4151180,0,4110020,0,0,0,0,0,-2010131,0,0,0,0,0,0
1,212,591.57742287789,1,0,116205.16985996,116206.216840595,0,50,9,1,1,28,10,94893716,14431869,88883217,63503819,20010319,0,0,3171040,40200819,10311119,0,0,21200419,0,10400709,0,0,0,0,0,4031160,0,0,0,0,0,40511619,1190180,4171190,31200119,11810109,-4020171,3161150,2151020,0,4160150,10010709,0,40000619,0
1,213,943.73855520098,0,0,116207.828565505,116208.875611969,0,50,9,0,0,6,0,8312372,2141230,0,6331322,0,0,0,4201140,0,-3030121,0,1081111,0,0,1061170,0,0,0,0,1080060,0,0,0,0,0,0,0,0,0,0,0,4130111,1150130,0,1051081,0,0,0,0,0
1,214,816.006968467264,1,0,116210.934363556,116211.981378069,0,50,9,0,1,33,20,126066277,160416333,159996826,115787588,3161181,11710019,2081060,2030070,3080020,20601209,41901709,41501009,0,21000019,21900909,31900109,12011609,0,2180160,20101209,10710609,40611709,0,41701919,3170061,21711009,0,0,42000919,41000909,10412009,0,1061051,42002009,40710509,10001009,-1001191,0,21011819,0
1,215,641.074548359029,0,0,116213.840162839,116214.887183511,0,50,9,1,0,23,20,78352670,160664445,128975376,118737844,30400409,30601809,3200071,0,1090161,2050001,0,11010219,0,0,30400119,21600419,20800009,31711519,1030170,10200109,40900909,4021191,0,20110409,41500109,20411609,-3151010,30310709,0,10401409,3090121,20100119,22001909,31101619,20811619,10011819,0,4010140,10700619,0
1,216,789.671404156252,1,0,116216.722435233,116217.769516344,0,50,9,1,1,3,20,115220983,107805278,105627988,166844984,10410209,12001509,-4051030,11901909,4031060,11811319,20101609,10210619,30701719,20110919,0,0,42012019,0,2031200,0,40510019,3141121,20712019,22001819,2090040,1151011,4171000,3181061,31110819,21210219,0,41910619,20111009,22001719,0,0,0,30210609,11000219,41610809
1,217,435.547355882591,1,0,116226.992730567,116228.039762403,0,50,10,0,1,16,10,104444448,60455548,87062520,48915700,0,1021201,0,0,0,41200109,21311919,40911219,0,11001109,20911809,0,0,21400409,0,-3101180,0,4041041,0,0,0,41700809,0,1020021,4131171,0,40210519,0,10401919,0,0,31101319,1200111,0,2031171,4181180
1,218,1199.65174805839,0,0,116229.557418252,116230.604403123,0,50,10,1,0,13,5,6211332,33302920,50753050,43532209,0,0,2090201,0,4121131,0,0,0,0,0,0,31211819,-2091101,0,0,0,0,0,1141151,11500319,1060040,0,0,0,3071090,30910319,3070131,0,0,0,21100609,2130181,0,20301419,0,0
1,219,1151.23443804623,0,0,116232.827876425,116233.874901332,0,50,10,0,0,33,10,63311528,59494588,53184169,117740078,0,0,0,41510919,0,0,21800609,0,0,0,30801419,0,0,4110110,0,0,20501919,4081140,40311209,0,1161151,0,0,11711809,0,0,0,4171040,3021151,10301509,30301809,3111111,-3020160,31311109,31411009,1091180
1,220,2088.58358148427,1,0,116236.098378869,116237.1454492,0,50,10,0,1,6,5,28712789,62901718,44261830,12634573,10201009,4090201,11410519,0,0,-3011060,0,0,0,30901509,0,0,0,0,32000209,0,0,0,0,0,0,40100709,1151071,0,0,0,3010050,0,4111161,0,3191191,3171061,0,0,0,2161160
1,221,969.740743326838,0,0,116240.298255219,116241.345282435,0,50,10,0,0,11,0,8132110,3140080,5151132,9422211,0,0,0,4131070,0,0,0,4001040,0,0,-3140080,0,0,0,0,0,0,0,0,0,2090041,0,0,3061091,0,0,0,4101110,4150091,0,0,1171010,0,0,0,0
1,222,631.435125891585,1,0,116243.427580544,116244.47461238,0,50,10,1,1,23,20,78352670,160664445,128975376,118737844,30400409,30601809,3200071,0,1090161,2050001,0,11010219,0,0,30400119,21600419,20800009,31711519,1030170,10200109,40900909,4021191,0,20110409,41500109,20411609,-3151010,30310709,0,10401409,3090121,20100119,22001909,31101619,20811619,10011819,0,4010140,10700619,0
1,223,706.545628941967,1,0,116246.227506709,116247.27453354,0,50,10,0,1,9,0,3090040,2202200,10312382,4190191,0,0,0,0,0,0,0,0,-3090040,0,0,0,1071060,0,0,1131140,0,0,0,0,0,4091201,3101120,3120061,0,0,0,0,0,0,0,0,2160031,2030160,0,0
1,224,566.323983817711,0,0,116249.1215412,116250.168559562,0,50,10,1,0,28,10,94893716,14431869,88883217,63503819,20010319,0,0,3171040,40200819,10311119,0,0,21200419,0,10400709,0,0,0,0,0,4031160,0,0,0,0,0,40511619,1190180,4171190,31200119,11810109,-4020171,3161150,2151020,0,4160150,10010709,0,40000619,0
1,225,958.273526222911,0,0,116251.756761432,116252.803787878,0,50,10,1,0,30,0,8402211,6212231,8261200,2010131,0,0,0,3150001,0,0,0,2061040,3191170,0,0,0,2131100,0,4081131,0,0,0,0,0,0,4151180,0,4110020,0,0,0,0,0,-2010131,0,0,0,0,0,0
1,226,747.442726569716,1,0,116254.87432312,116255.921346102,0,50,10,1,1,3,20,115220983,107805278,105627988,166844984,10410209,12001509,-4051030,11901909,4031060,11811319,20101609,10210619,30701719,20110919,0,0,42012019,0,2031200,0,40510019,3141121,20712019,22001819,2090040,1151011,4171000,3181061,31110819,21210219,0,41910619,20111009,22001719,0,0,0,30210609,11000219,41610809
1,227,822.635611257283,1,0,116257.674244665,116258.721268031,0,50,10,1,1,26,20,160787076,153348397,146546154,108515627,2170151,21601219,0,41011909,0,30611109,4171170,40910609,20310909,30401709,3190161,30411519,30401509,4021131,0,30601009,3020050,21301309,21200119,0,11111109,20311909,20700619,30800519,41301809,-1120070,0,21611109,40301509,0,1011070,30400809,3190021,0,0,12001109
1,228,579.515826044371,1,0,116260.721217602,116261.768247897,0,50,10,0,1,8,20,77987080,135737174,159509164,110915635,10911619,1081040,20610419,3081121,1120061,40001809,0,-1181011,0,0,21411019,10811509,11100709,0,40111619,20401809,31900509,0,11401819,2070190,10410909,1201080,0,31001209,41311919,40102019,22010019,0,11601319,0,2121170,31810019,11900119,2170190,40000809,11312009
1,229,892.90715502284,1,0,116263.438796767,116264.485817823,0,50,10,0,1,19,5,55984198,15372780,14644353,22471389,0,0,0,3151151,11411309,0,20111519,21310219,0,0,0,0,0,4071161,0,0,0,11301619,-3161021,4011150,0,4200040,0,0,1161071,2111071,0,20410209,0,0,0,0,0,2061180,0,0
1,230,918.880086101126,0,0,116266.532824637,116267.579842998,0,50,10,1,0,1,0,10341392,5261351,1001010,4180170,-4010081,0,1100000,4111130,0,0,0,0,1120181,0,1111181,0,0,0,0,0,4150170,0,0,0,0,0,1001010,0,0,0,0,0,0,0,0,0,0,0,4180170,0
1,231,1257.70270610519,0,0,116269.521014034,116270.568007374,0,50,10,0,0,5,20,127176054,149687135,141795619,96524155,40811819,10600219,10900309,10112019,-1110040,20500019,30001509,0,3140120,0,20401509,32011309,21800409,2191170,0,2161110,30310509,40811119,40810009,0,40511619,1051061,2071161,21100509,1180191,3061060,32010009,20810309,21301209,0,0,11410309,0,0,31600309,11402019
1,232,588.410734009813,1,0,116272.850298476,116273.897321073,0,50,10,0,1,14,20,59957056,139544977,118288394,129316158,2061190,0,3051170,0,3011150,11310109,10211209,10211709,20100519,41211809,30500419,21511209,21700209,-1160201,21311109,0,0,2150021,20601919,20110509,1041191,21301019,11000309,11411209,11010219,21812019,0,22011519,0,0,20900719,41201619,40900109,3201161,1101031,0
1,233,743.19160268351,0,0,116275.591396062,116276.638420198,0,50,10,0,0,32,0,2021171,4081292,9120222,3182191,0,0,0,0,0,0,2021171,0,0,1070111,0,0,0,0,3011181,0,0,0,0,3060050,0,0,0,4000161,2060011,0,0,0,0,0,0,-2041110,1141081,0,0,0
1,234,704.57578371861,1,0,116278.50897207,116279.555995822,0,50,10,0,1,7,5,28792960,49422469,36182480,35441579,21511809,0,0,0,3160021,0,-4121130,0,0,0,0,0,2121070,41010319,0,2101010,0,4190070,0,0,0,2191140,0,0,0,3080131,30911209,0,4020041,0,0,0,11011219,0,0,20410319
1,235,1083.2676555583,0,0,116281.391242539,116282.438259361,0,50,10,1,0,36,5,4280300,60734459,23132840,59102888,0,0,2140180,0,0,2140120,0,0,0,3171201,0,0,0,32012009,4041030,0,21510219,0,0,0,1041051,0,0,1081070,0,0,21010719,0,0,21510519,2191150,0,0,0,31400109,-4001110
1,236,921.131337803672,0,0,116284.626437518,116285.673463579,0,50,10,1,0,29,10,112303659,91011997,50601418,47493518,31910609,0,0,3101021,31511919,0,41610009,0,4170101,1110070,31700109,41610119,2060140,1200030,0,0,10210409,3121120,0,0,0,0,0,0,40001109,10600309,0,0,-1050180,3141110,11800209,0,0,0,0,31502019
1,237,583.964819874382,1,0,116287.70871176,116288.755730892,0,50,10,1,1,34,5,43363141,12510300,94124876,2051051,3090090,0,4061150,4121041,0,1080041,31010819,0,0,0,4190060,0,4160200,0,0,4160040,0,0,0,0,31700519,0,30211619,0,0,21201919,11010819,0,0,0,0,0,0,-2051051,0,0
1,238,529.352718076552,0,0,116290.379229063,116291.426245115,0,50,10,1,0,10,0,7531180,8282231,4190202,0,0,4181140,0,0,0,1190000,0,2160040,0,-4111120,0,0,1110091,0,0,0,0,3061020,0,0,0,0,0,0,0,2170001,2020201,0,0,0,0,0,0,0,0,0
1,239,466.124035097891,0,0,116293.120318949,116294.167351939,0,50,10,0,0,21,10,44463298,61672288,69663801,103193207,2020130,0,0,0,0,10301819,30100309,0,2041040,0,4190040,0,0,11810019,0,30311119,11310019,4051091,3060061,31211619,-1070061,31301019,0,0,0,3021041,0,0,0,0,30400209,0,30001209,41710719,0,1081070
1,240,669.518928829348,1,0,116295.684962748,116296.731981495,0,50,10,1,1,25,10,90044398,69505350,74993718,83512877,41811119,0,31910519,0,2181151,4131090,10010519,0,0,0,1091171,2040181,3010150,0,0,20711919,2040120,40611809,0,30802019,40000509,0,0,0,-4191190,0,0,0,20200619,0,20211109,0,2090140,0,41011009,0
1,241,478.100940512377,1,0,116301.602439052,116302.649461263,0,50,11,0,1,21,10,34942820,85944338,66123899,101685520,2020010,0,31901709,0,1021101,0,0,0,0,0,0,22012019,0,0,0,2111181,30510719,31310419,21611019,41401709,-3111171,0,0,0,0,0,0,31310719,30210719,21311319,10410309,2080131,1181131,4060031,0,1121161
1,242,553.055149415741,1,0,116304.155379653,116305.202339501,0,50,11,0,1,14,5,79532438,45522569,16451411,26492039,0,41510609,2011200,32000519,0,0,0,4010110,0,0,1131100,0,0,-3180150,0,41211319,0,0,10310309,0,0,0,0,0,2030051,0,4111051,0,0,0,0,1201010,4091020,0,0,21200009
1,243,901.299688935978,1,0,116306.967002472,116308.014028533,0,50,11,1,1,23,20,78352670,160664445,128975376,118737844,30400409,30601809,3200071,0,1090161,2050001,0,11010219,0,0,30400119,21600419,20800009,31711519,1030170,10200109,40900909,4021191,0,20110409,41500109,20411609,-3151010,30310709,0,10401409,3090121,20100119,22001909,31101619,20811619,10011819,0,4010140,10700619,0
1,244,1501.04846341128,0,0,116310.002211771,116311.049237447,0,50,11,0,0,5,20,139935705,178436794,122325915,111966357,0,20511109,3130030,31200109,-2171130,21400909,21111709,0,40410709,30411209,31700709,20110209,0,21811409,0,40411609,3091030,30900619,0,10710819,41400319,20611819,30301719,4031090,0,4060040,11210109,3120190,20001919,1131021,11710009,31201319,0,3090090,0,41711809
1,245,1036.6569673497,0,0,116313.578590335,116314.625611392,0,50,11,1,0,36,5,4280300,60734459,23132840,59102888,0,0,2140180,0,0,2140120,0,0,0,3171201,0,0,0,32012009,4041030,0,21510219,0,0,0,1041051,0,0,1081070,0,0,21010719,0,0,21510519,2191150,0,0,0,31400109,-4001110
1,246,576.194382854737,0,0,116316.802024372,116317.849050818,0,50,11,1,0,10,0,7531180,8282231,4190202,0,0,4181140,0,0,0,1190000,0,2160040,0,-4111120,0,0,1110091,0,0,0,0,3061020,0,0,0,0,0,0,0,2170001,2020201,0,0,0,0,0,0,0,0,0
1,247,552.772203096538,0,0,116319.625519386,116320.672506566,0,50,11,0,0,9,0,5372261,4090010,4200121,6433310,0,0,2141080,1190110,0,0,0,0,-2041071,0,0,0,0,0,0,0,0,4090010,0,0,0,4200121,0,0,0,0,0,0,0,0,0,0,1181060,0,3141190,2111060
1,248,804.872357635759,0,0,116322.425398586,116323.472472767,0,50,11,1,0,29,10,112303659,91011997,50601418,47493518,31910609,0,0,3101021,31511919,0,41610009,0,4170101,1110070,31700109,41610119,2060140,1200030,0,0,10210409,3121120,0,0,0,0,0,0,40001109,10600309,0,0,-1050180,3141110,11800209,0,0,0,0,31502019
1,249,1241.50162405567,1,0,116325.354728607,116326.401753898,0,50,11,0,1,7,10,40984881,96282927,62972178,56743868,2041041,0,4060181,30601519,0,0,-3081010,1201130,0,0,0,30800409,20910009,11610609,0,30810819,0,2151081,0,0,20100509,0,0,0,0,1061150,41810519,11701409,0,10210009,2111091,30700209,0,2021150,0,0
1,250,1783.43811628292,1,0,116328.754641067,116329.801670593,0,50,11,0,1,6,20,163466647,63724317,131677515,220175965,31100609,2160000,3081191,0,30011509,-3200191,41900819,30210419,21801909,0,0,11111719,1100160,41511219,0,10001219,0,0,10001019,1191071,3001180,4141070,31110319,21310809,30110409,10001419,20810219,41410409,40112019,41610619,30100019,41010309,4031071,0,0,21901519
1,251,744.726442033425,1,0,116332.660416482,116333.707437539,0,50,11,0,1,33,0,0,1140031,6181330,8393472,0,0,0,0,0,0,0,0,0,0,0,0,0,1140031,0,0,0,0,2160100,0,2021170,0,0,0,0,0,2000060,0,1151070,0,0,0,-2051181,1161021,4030200,0
1,252,951.886638911674,0,0,116335.566208836,116336.613229508,0,50,11,0,0,11,0,5141131,6131100,7311322,8061241,0,0,4011111,0,1130020,0,0,0,0,0,-2021060,0,0,0,0,0,0,4110040,3200131,0,0,0,0,0,0,4111191,0,0,4021050,0,4040191,0,0,0,0,0
1,253,1139.95623678784,1,0,116338.613187162,116339.660208219,0,50,11,0,1,19,5,29375212,86003089,24161229,47402790,0,0,1071071,0,4060101,3111031,0,1121100,20011909,0,0,0,3100161,0,0,0,40901309,42001619,-4050010,0,0,0,0,20111219,0,0,0,0,0,41111709,3151001,0,0,3140080,0,0
1,254,2127.38880123652,0,0,116341.989561184,116343.036588015,0,50,11,1,0,1,0,10341392,5261351,1001010,4180170,-4010081,0,1100000,4111130,0,0,0,0,1120181,0,1111181,0,0,0,0,0,4150170,0,0,0,0,0,1001010,0,0,0,0,0,0,0,0,0,0,0,4180170,0
1,255,1483.11582696624,0,0,116346.318851786,116347.365882851,0,50,11,0,0,8,20,163585047,174037137,163967685,179416935,0,20610619,4140181,31011209,40510619,41900509,21410719,-4001191,0,0,40600409,3141161,3151111,3041010,31001409,40900419,41000109,11201509,4010150,32001109,0,0,30101909,4030080,10400609,41711909,41711919,0,0,41001719,30112009,4181150,41311219,0,22010719,40800119
1,256,876.058183683199,1,0,116349.859938284,116350.906954721,0,50,11,0,1,32,10,77221209,9311381,98043217,88005756,31500919,2000030,0,0,0,0,40610209,0,3110051,0,0,0,3070180,4150031,0,0,0,2091170,11800609,31711219,22010419,0,2020061,0,30500909,0,0,21110509,11510619,11511909,0,-2010140,0,0,40711419,1151160
1,257,816.137855203124,0,1,116352.859850898,116353.906874264,0,50,11,1,1,13,5,6211332,33302920,50753050,43532209,0,0,2090201,0,4121131,0,0,0,0,0,0,31211819,-2091101,0,0,0,0,0,1141151,11500319,1060040,0,0,0,3071090,30910319,3070131,0,0,0,21100609,2130181,0,20301419,0,0
1,258,699.651748043834,0,0,116355.789189004,116356.836266649,0,50,11,1,0,25,10,90044398,69505350,74993718,83512877,41811119,0,31910519,0,2181151,4131090,10010519,0,0,0,1091171,2040181,3010150,0,0,20711919,2040120,40611809,0,30802019,40000509,0,0,0,-4191190,0,0,0,20200619,0,20211109,0,2090140,0,41011009,0
1,259,623.680857257568,1,0,116358.6832208,116359.730242626,0,50,11,1,1,3,20,115220983,107805278,105627988,166844984,10410209,12001509,-4051030,11901909,4031060,11811319,20101609,10210619,30701719,20110919,0,0,42012019,0,2031200,0,40510019,3141121,20712019,22001819,2090040,1151011,4171000,3181061,31110819,21210219,0,41910619,20111009,22001719,0,0,0,30210609,11000219,41610809
1,260,1140.45206648007,0,0,116361.471376398,116362.518402074,0,50,11,1,0,34,5,43363141,12510300,94124876,2051051,3090090,0,4061150,4121041,0,1080041,31010819,0,0,0,4190060,0,4160200,0,0,4160040,0,0,0,0,31700519,0,30211619,0,0,21201919,11010819,0,0,0,0,0,0,-2051051,0,0
1,261,693.093938083621,1,0,116364.800692407,116365.847725012,0,50,11,1,1,30,0,8402211,6212231,8261200,2010131,0,0,0,3150001,0,0,0,2061040,3191170,0,0,0,2131100,0,4081131,0,0,0,0,0,0,4151180,0,4110020,0,0,0,0,0,-2010131,0,0,0,0,0,0
1,262,645.764912711456,0,0,116367.635914487,116368.682934004,0,50,11,1,0,28,10,94893716,14431869,88883217,63503819,20010319,0,0,3171040,40200819,10311119,0,0,21200419,0,10400709,0,0,0,0,0,4031160,0,0,0,0,0,40511619,1190180,4171190,31200119,11810109,-4020171,3161150,2151020,0,4160150,10010709,0,40000619,0
1,263,605.68354735733,0,0,116370.424133219,116371.471093067,0,50,11,1,0,26,20,160787076,153348397,146546154,108515627,2170151,21601219,0,41011909,0,30611109,4171170,40910609,20310909,30401709,3190161,30411519,30401509,4021131,0,30601009,3020050,21301309,21200119,0,11111109,20311909,20700619,30800519,41301809,-1120070,0,21611109,40301509,0,1011070,30400809,3190021,0,0,12001109
1,264,1115.5766590964,1,0,116373.165218485,116374.212192192,0,50,11,0,1,16,5,43241199,81433911,5371321,44672788,0,0,41210109,2031090,0,0,0,0,0,2170110,2181181,0,0,0,31501519,-1131071,3050011,41400019,0,0,0,1181160,4190161,0,0,0,0,0,0,0,31901219,11710419,0,0,1061150,0
1,265,881.618559811614,1,0,116387.858886186,116388.905954207,0,50,12,1,1,13,5,6211332,33302920,50753050,43532209,0,0,2090201,0,4121131,0,0,0,0,0,0,31211819,-2091101,0,0,0,0,0,1141151,11500319,1060040,0,0,0,3071090,30910319,3070131,0,0,0,21100609,2130181,0,20301419,0,0
1,266,646.349283459131,0,0,116390.83527345,116391.882298356,0,50,12,0,0,19,10,104702107,60073200,16752340,95005268,1170051,11800519,0,40710209,31010809,0,0,0,20010519,3081110,0,0,11311619,2200131,0,40300309,0,3180031,-1180180,0,0,2170181,10400819,0,3001160,0,0,0,0,1071121,41911919,0,0,40210419,0,11811809
1,267,628.187210269971,1,0,116393.682251468,116394.729280994,0,50,12,0,1,21,5,41101319,36443420,15052949,38944671,0,0,0,0,0,0,0,0,41101319,0,2091110,2131031,2011160,0,0,0,30210119,0,0,10801719,-1130170,0,0,0,0,0,3121060,3141071,0,0,20111409,2140171,11411819,0,0,2140201
1,268,837.695669019013,1,0,116396.458642274,116397.505731854,0,50,12,1,1,1,0,10341392,5261351,1001010,4180170,-4010081,0,1100000,4111130,0,0,0,0,1120181,0,1111181,0,0,0,0,0,4150170,0,0,0,0,0,1001010,0,0,0,0,0,0,0,0,0,0,0,4180170,0
1,269,654.526624188293,0,0,116399.493855423,116400.540886489,0,50,12,0,0,32,5,6290232,36591419,79971519,44390770,0,0,0,0,4190121,0,2100111,0,0,20610109,1130040,0,0,11710009,1031080,0,2110181,0,0,0,0,0,4010110,4050081,30610609,0,41300719,0,0,0,41300719,-3090051,0,0,0,0
1,270,877.776649416774,0,0,116402.199710603,116403.246685849,0,50,12,1,0,3,20,115220983,107805278,105627988,166844984,10410209,12001509,-4051030,11901909,4031060,11811319,20101609,10210619,30701719,20110919,0,0,42012019,0,2031200,0,40510019,3141121,20712019,22001819,2090040,1151011,4171000,3181061,31110819,21210219,0,41910619,20111009,22001719,0,0,0,30210609,11000219,41610809
1,271,1213.57386121235,0,0,116405.293693047,116406.340777237,0,50,12,0,0,5,5,45191280,118043197,6191262,43383679,0,0,40810819,1100100,-2130201,0,0,1150160,0,41511209,0,4120160,0,30910909,0,41500919,0,0,0,0,0,0,0,0,0,2030071,4161191,40211309,0,0,2051190,0,0,0,0,1121180
1,272,771.863110086997,1,0,116408.752431006,116409.799442824,0,50,12,1,1,28,10,94893716,14431869,88883217,63503819,20010319,0,0,3171040,40200819,10311119,0,0,21200419,0,10400709,0,0,0,0,0,4031160,0,0,0,0,0,40511619,1190180,4171190,31200119,11810109,-4020171,3161150,2151020,0,4160150,10010709,0,40000619,0
1,273,597.508131439099,1,0,116411.681749864,116412.728775925,0,50,12,0,1,33,0,8260060,3030111,3242311,6301360,1130060,0,0,3120000,4010000,0,0,0,0,3030111,0,0,0,0,0,0,0,0,2091111,0,0,0,0,0,0,0,1151200,0,0,0,0,0,-3120160,3181200,0,0
1,274,976.549162893207,0,0,116414.375796366,116415.422822042,0,50,12,1,0,36,5,4280300,60734459,23132840,59102888,0,0,2140180,0,0,2140120,0,0,0,3171201,0,0,0,32012009,4041030,0,21510219,0,0,0,1041051,0,0,1081070,0,0,21010719,0,0,21510519,2191150,0,0,0,31400109,-4001110
1,275,657.939688069746,1,0,116417.493357669,116418.540380265,0,50,12,0,1,7,0,9102333,1191051,6292232,1051110,0,4031161,0,0,0,0,-3050051,2021121,0,0,0,0,0,0,1191051,0,0,0,0,3071001,0,0,1190111,2031120,0,0,0,1051110,0,0,0,0,0,0,0,0
1,276,682.675739590195,1,0,116420.234517618,116421.281500563,0,50,12,1,1,23,20,78352670,160664445,128975376,118737844,30400409,30601809,3200071,0,1090161,2050001,0,11010219,0,0,30400119,21600419,20800009,31711519,1030170,10200109,40900909,4021191,0,20110409,41500109,20411609,-3151010,30310709,0,10401409,3090121,20100119,22001909,31101619,20811619,10011819,0,4010140,10700619,0
1,277,847.321232882678,0,0,116423.104964781,116424.152000081,0,50,12,1,0,29,10,112303659,91011997,50601418,47493518,31910609,0,0,3101021,31511919,0,41610009,0,4170101,1110070,31700109,41610119,2060140,1200030,0,0,10210409,3121120,0,0,0,0,0,0,40001109,10600309,0,0,-1050180,3141110,11800209,0,0,0,0,31502019
1,278,624.443849883392,1,0,116426.057828621,116427.104847753,0,50,12,1,1,34,5,43363141,12510300,94124876,2051051,3090090,0,4061150,4121041,0,1080041,31010819,0,0,0,4190060,0,4160200,0,0,4160040,0,0,0,0,31700519,0,30211619,0,0,21201919,11010819,0,0,0,0,0,0,-2051051,0,0
1,279,780.280666484032,0,0,116428.904805484,116429.951835395,0,50,12,1,0,25,10,90044398,69505350,74993718,83512877,41811119,0,31910519,0,2181151,4131090,10010519,0,0,0,1091171,2040181,3010150,0,0,20711919,2040120,40611809,0,30802019,40000509,0,0,0,-4191190,0,0,0,20200619,0,20211109,0,2090140,0,41011009,0
1,280,702.013098591124,1,0,116431.834146669,116432.881155407,0,50,12,0,1,16,10,101785458,66273369,20371152,105213856,3201151,4061070,0,0,0,41011209,11800119,41711909,0,41910519,3001070,0,0,0,20311709,-1050071,0,0,11100609,0,0,0,0,1030141,3160131,3050111,2030160,0,0,41201909,30901219,0,21310109,0,11800619,0
1,281,781.228055406245,0,0,116434.598766139,116435.645792585,0,50,12,1,0,26,20,160787076,153348397,146546154,108515627,2170151,21601219,0,41011909,0,30611109,4171170,40910609,20310909,30401709,3190161,30411519,30401509,4021131,0,30601009,3020050,21301309,21200119,0,11111109,20311909,20700619,30800519,41301809,-1120070,0,21611109,40301509,0,1011070,30400809,3190021,0,0,12001109
1,282,820.409382024081,1,0,116437.551628825,116438.598647956,0,50,12,0,1,9,20,94934696,71788237,159195795,112105617,3150150,21300209,11600809,3020071,21201709,0,21900309,10601319,-2160120,3201081,11602009,10400709,0,20811419,10111619,4061091,0,11600309,4051121,0,10010619,0,40901709,40411509,20210309,22010309,21600219,3161101,31300709,21211119,41611319,0,11700209,0,0,3121160
1,283,727.127181758988,1,0,116440.586839664,116441.63386688,0,50,12,0,1,8,10,108555886,36153598,74662390,59542989,21610719,0,41600819,0,11301409,31001909,0,-3041030,0,0,0,0,0,11210319,0,1041200,2001070,21901009,40511019,3050181,30001019,0,1100171,0,0,0,0,0,0,1030140,11210109,3120020,0,2171011,0,42011709
1,284,1493.49629928474,1,0,116443.504399889,116444.55142826,0,50,12,0,1,6,20,101235358,52537318,129668435,168568322,0,4051071,10010909,41301509,0,-3170150,0,1190000,41511719,10101709,4181161,11611719,0,0,11010119,3201021,1031080,11400509,2011100,3120150,21211519,0,11811519,0,40901809,10300819,40311519,21711009,21410719,31100219,11001319,31611019,30211219,10111409,0,11411409
1,285,830.654348086682,0,0,116447.257252257,116448.30426677,0,50,12,1,0,10,0,7531180,8282231,4190202,0,0,4181140,0,0,0,1190000,0,2160040,0,-4111120,0,0,1110091,0,0,0,0,3061020,0,0,0,0,0,0,0,2170001,2020201,0,0,0,0,0,0,0,0,0
1,286,756.689103902318,1,0,116450.257157942,116451.30421711,0,50,12,0,1,11,20,119455395,79763888,155156925,128273145,11310619,0,30911219,0,30611819,11200219,2120091,11301319,22000109,31600509,-1030011,2101000,0,10110219,21911319,2110111,10900719,0,0,4010200,21801009,30701419,11901509,41101319,2031000,41600409,2010060,4160070,11200409,0,0,0,30100919,30600609,21500319,30710819
1,287,617.38597562362,0,0,116453.233550596,116454.280560104,0,50,12,0,0,14,0,5281142,5241040,5062121,3132220,0,0,0,0,3080011,0,0,2201131,0,0,0,0,3080020,-2161020,0,0,0,0,0,1001061,0,0,0,4061060,0,0,0,1131020,0,0,0,2001200,0,0,0,0
1,288,1190.73759202729,0,0,116456.104050883,116457.151136998,0,50,12,1,0,30,0,8402211,6212231,8261200,2010131,0,0,0,3150001,0,0,0,2061040,3191170,0,0,0,2131100,0,4081131,0,0,0,0,0,0,4151180,0,4110020,0,0,0,0,0,-2010131,0,0,0,0,0,0
1,289,751.982956149732,0,0,116462.503872493,116463.550899324,0,50,13,0,0,14,10,51381831,79406037,42842010,114621266,40001509,0,0,0,0,4160090,0,3140131,4080101,10710519,0,41211809,10901319,-4101130,0,11311119,0,1170141,4071131,0,0,0,0,4140070,3030000,0,31600809,0,30710419,0,12000309,0,41810019,0,30100519,0
1,290,842.426454270026,0,0,116465.480269381,116466.527295827,0,50,13,1,0,26,20,160787076,153348397,146546154,108515627,2170151,21601219,0,41011909,0,30611109,4171170,40910609,20310909,30401709,3190161,30411519,30401509,4021131,0,30601009,3020050,21301309,21200119,0,11111109,20311909,20700619,30800519,41301809,-1120070,0,21611109,40301509,0,1011070,30400809,3190021,0,0,12001109
1,291,1094.96623421728,1,0,116468.444883385,116469.491910986,0,50,13,1,1,30,0,8402211,6212231,8261200,2010131,0,0,0,3150001,0,0,0,2061040,3191170,0,0,0,2131100,0,4081131,0,0,0,0,0,0,4151180,0,4110020,0,0,0,0,0,-2010131,0,0,0,0,0,0
1,292,1202.17940172006,1,0,116471.762440761,116472.809472597,0,50,13,1,1,1,0,10341392,5261351,1001010,4180170,-4010081,0,1100000,4111130,0,0,0,0,1120181,0,1111181,0,0,0,0,0,4150170,0,0,0,0,0,1001010,0,0,0,0,0,0,0,0,0,0,0,4180170,0
1,293,1160.6036179146,0,0,116475.174134181,116476.221139455,0,50,13,1,0,23,20,78352670,160664445,128975376,118737844,30400409,30601809,3200071,0,1090161,2050001,0,11010219,0,0,30400119,21600419,20800009,31711519,1030170,10200109,40900909,4021191,0,20110409,41500109,20411609,-3151010,30310709,0,10401409,3090121,20100119,22001909,31101619,20811619,10011819,0,4010140,10700619,0
1,294,905.951557200751,0,0,116478.538733017,116479.585745605,0,50,13,0,0,21,0,10112311,5191220,5222310,0,4060010,0,1040090,4001081,0,0,0,1011130,0,0,0,4171080,0,0,1020140,0,0,0,3121160,0,-2101150,0,0,0,0,0,0,0,0,0,0,0,0,0,0,0
1,295,734.628146106843,1,0,116481.621003794,116482.668031395,0,50,13,0,1,32,5,72525117,3281091,7282221,45251708,11201809,0,1011190,20110409,0,40201709,0,0,0,2120090,0,0,0,0,0,0,1161001,0,0,0,2061050,4191140,0,0,1030031,0,0,20310219,0,21700309,0,-1110060,0,2131120,0,0
1,296,632.589623826789,1,0,116484.609148537,116485.656169593,0,50,13,1,1,34,5,43363141,12510300,94124876,2051051,3090090,0,4061150,4121041,0,1080041,31010819,0,0,0,4190060,0,4160200,0,0,4160040,0,0,0,0,31700519,0,30211619,0,0,21201919,11010819,0,0,0,0,0,0,-2051051,0,0
1,297,1538.65491473698,0,0,116487.467895581,116488.514918562,0,50,13,0,0,5,20,89125507,146948966,192767724,152726788,3110140,0,31000719,20801219,-4091001,10011419,0,20111009,0,40401319,0,1011021,41210709,0,10811809,2201180,10102019,41210909,41801409,11401909,31911709,30101419,30800319,10700209,4050131,32000619,0,1011130,4170201,41701219,3031001,0,41412009,31400809,30000419,0
1,298,965.630900100223,0,0,116491.114855968,116492.161929764,0,50,13,1,0,29,10,112303659,91011997,50601418,47493518,31910609,0,0,3101021,31511919,0,41610009,0,4170101,1110070,31700109,41610119,2060140,1200030,0,0,10210409,3121120,0,0,0,0,0,0,40001109,10600309,0,0,-1050180,3141110,11800209,0,0,0,0,31502019
1,299,618.489273736486,0,0,116494.150059878,116495.197080164,0,50,13,0,0,16,10,27014078,61273018,55207459,73113908,0,3111130,3091120,0,10500019,10311809,0,0,0,0,0,20001509,40200309,0,0,-1071200,0,0,4150061,1101181,0,10101109,21311519,0,3091010,11301409,4151170,0,30201419,11501919,0,30310519,1100051,0,0,0
1,300,623.433712331462,1,0,116496.997044055,116498.044065882,0,50,13,1,1,10,0,7531180,8282231,4190202,0,0,4181140,0,0,0,1190000,0,2160040,0,-4111120,0,0,1110091,0,0,0,0,3061020,0,0,0,0,0,0,0,2170001,2020201,0,0,0,0,0,0,0,0,0
1,301,1121.85036788287,1,0,116499.761672379,116500.808735011,0,50,13,1,1,13,5,6211332,33302920,50753050,43532209,0,0,2090201,0,4121131,0,0,0,0,0,0,31211819,-2091101,0,0,0,0,0,1141151,11500319,1060040,0,0,0,3071090,30910319,3070131,0,0,0,21100609,2130181,0,20301419,0,0
1,302,1053.60718343582,0,0,116502.94981512,116503.996840796,0,50,13,1,0,25,10,90044398,69505350,74993718,83512877,41811119,0,31910519,0,2181151,4131090,10010519,0,0,0,1091171,2040181,3010150,0,0,20711919,2040120,40611809,0,30802019,40000509,0,0,0,-4191190,0,0,0,20200619,0,20211109,0,2090140,0,41011009,0
1,303,682.68305384845,1,0,116506.255670453,116507.302670721,0,50,13,1,1,3,20,115220983,107805278,105627988,166844984,10410209,12001509,-4051030,11901909,4031060,11811319,20101609,10210619,30701719,20110919,0,0,42012019,0,2031200,0,40510019,3141121,20712019,22001819,2090040,1151011,4171000,3181061,31110819,21210219,0,41910619,20111009,22001719,0,0,0,30210609,11000219,41610809
1,304,918.716092739487,1,0,116509.196708677,116510.243757451,0,50,13,0,1,6,0,4070141,2141131,4120080,5371342,0,0,0,0,0,-2000031,2070110,0,0,0,1120120,0,0,0,0,0,1021011,0,0,0,0,0,0,4120080,0,0,0,0,0,1140170,0,0,2050171,0,2181001,0
1,305,964.855588739738,0,0,116512.255437936,116513.302461688,0,50,13,0,0,33,5,23322149,72013128,47444290,43272950,0,0,3111040,0,0,0,0,0,20211109,31901519,0,0,0,40111609,0,0,0,0,41211909,0,0,4001190,1170171,0,0,1061020,0,31810609,0,0,0,4131010,-2140120,0,4010201,1181010
1,306,847.992989773047,1,0,116515.408286301,116516.455320446,0,50,13,0,1,8,0,4081131,5171152,9351311,4242041,0,0,0,0,0,0,0,-4081131,0,0,0,0,0,1060001,4111151,0,0,0,0,0,0,3150131,3051070,0,3150110,0,0,0,0,2191001,0,0,0,0,2051040,0
1,307,825.110910242074,1,0,116518.36115784,116519.408176202,0,50,13,0,1,11,5,7310151,54953577,55132359,9434411,4160030,0,0,3150121,0,0,0,0,0,20301419,-1050030,11702019,0,0,0,0,0,21900109,31001819,0,0,0,0,21010519,3120021,0,0,0,2141070,0,1041150,0,0,3091040,0,3161151
1,308,750.111660920084,1,0,116521.255188097,116522.302213388,0,50,13,0,1,9,10,36575009,111607208,27553799,82403257,0,0,2030140,1031131,1130200,10900719,0,20401709,-1081110,41301519,0,20412019,0,0,31811019,10901319,3091161,4090171,0,0,0,3141020,0,21401609,0,0,3011170,0,40701219,10101219,31600819,0,0,0,0,0
1,309,1110.27497674513,1,0,116524.113935526,116525.160963512,0,50,13,0,1,7,20,106205198,236945922,148585215,80607479,1111060,1181050,0,1130041,40001019,0,-1171100,30710109,30900819,0,40400809,21810019,21410419,41011509,30101719,40300209,11710319,30200919,0,31501619,31910019,31001019,2070030,21701209,0,0,30401319,10711109,10102019,3101181,31300919,4000131,20311119,0,0,1081001
1,310,1043.95351740823,0,0,116527.349137819,116528.396166575,0,50,13,0,0,19,20,109026216,143518076,64545068,189535876,0,20911919,0,21100219,30110509,10910909,1120171,20811319,4061170,2131131,11511409,20710919,31201319,31600019,0,12011609,30211619,4140051,-2121141,2011130,0,0,11410519,11110609,4190151,11800309,21901209,41901319,20901419,0,0,40711019,4020091,40500519,0,41501509
1,311,836.980796520947,0,0,116530.643167537,116531.690185899,0,50,13,1,0,28,10,94893716,14431869,88883217,63503819,20010319,0,0,3171040,40200819,10311119,0,0,21200419,0,10400709,0,0,0,0,0,4031160,0,0,0,0,0,40511619,1190180,4171190,31200119,11810109,-4020171,3161150,2151020,0,4160150,10010709,0,40000619,0
1,312,1104.14755313832,0,0,116533.596025987,116534.643047429,0,50,13,1,0,36,5,4280300,60734459,23132840,59102888,0,0,2140180,0,0,2140120,0,0,0,3171201,0,0,0,32012009,4041030,0,21510219,0,0,0,1041051,0,0,1081070,0,0,21010719,0,0,21510519,2191150,0,0,0,31400109,-4001110
1,313,817.744682251941,1,0,116540.466423875,116541.513448396,0,50,14,1,1,30,0,8402211,6212231,8261200,2010131,0,0,0,3150001,0,0,0,2061040,3191170,0,0,0,2131100,0,4081131,0,0,0,0,0,0,4151180,0,4110020,0,0,0,0,0,-2010131,0,0,0,0,0,0
1,314,1010.95042926318,0,0,116543.478108595,116544.525126957,0,50,14,0,0,33,20,52602348,139946214,133276436,193478156,0,11000009,20110509,0,0,1191111,0,0,20300719,40610409,10500909,0,2110140,41811409,1090010,11510819,11310709,21001809,10701019,10900409,11610619,30011219,3161131,0,32010119,4170001,30711919,41610819,3121010,4170021,0,41011119,-1040130,20311919,41901419,40311719
1,315,639.998197526438,0,0,116546.583903952,116547.630931168,0,50,14,1,0,3,20,115220983,107805278,105627988,166844984,10410209,12001509,-4051030,11901909,4031060,11811319,20101609,10210619,30701719,20110919,0,0,42012019,0,2031200,0,40510019,3141121,20712019,22001819,2090040,1151011,4171000,3181061,31110819,21210219,0,41910619,20111009,22001719,0,0,0,30210609,11000219,41610809
1,316,631.917097023688,0,0,116549.419118717,116550.466144779,0,50,14,0,0,9,0,9460162,4002250,8160303,0,0,3080020,0,3180141,0,0,0,0,-3200001,0,0,3001060,0,0,0,0,1001190,0,0,4060151,0,0,1010041,0,3090111,0,0,0,0,0,0,0,0,0,0,0
1,317,1173.04132161371,0,0,116552.23079928,116553.2778315,0,50,14,1,0,1,0,10341392,5261351,1001010,4180170,-4010081,0,1100000,4111130,0,0,0,0,1120181,0,1111181,0,0,0,0,0,4150170,0,0,0,0,0,1001010,0,0,0,0,0,0,0,0,0,0,0,4180170,0
1,318,1151.15205640905,1,0,116555.524832847,116556.571861603,0,50,14,0,1,5,10,87181970,40173161,108194506,67033567,41610309,2061121,0,0,-3100021,0,0,40410519,0,0,0,0,3201021,0,3040020,3031101,30901019,0,21801109,0,20611919,21200319,2111140,0,0,2060000,40410019,20010609,4121040,0,0,0,0,31400709,11501209,0
1,319,633.884247537935,1,0,116558.912968196,116559.959997337,0,50,14,0,1,8,10,75573797,63511549,153606849,51852620,20711419,0,0,0,20210709,0,31510609,-3141060,0,0,0,41000809,0,0,20510619,0,2000121,0,41800009,41210619,0,32001719,2130201,30311919,2131191,0,4021191,0,41410509,4201010,0,0,0,0,2131011,4110090
1,320,646.015137346694,0,0,116561.665834808,116562.712859714,0,50,14,1,0,28,10,94893716,14431869,88883217,63503819,20010319,0,0,3171040,40200819,10311119,0,0,21200419,0,10400709,0,0,0,0,0,4031160,0,0,0,0,0,40511619,1190180,4171190,31200119,11810109,-4020171,3161150,2151020,0,4160150,10010709,0,40000619,0
1,321,793.341237003915,1,0,116564.47752384,116565.524549901,0,50,14,1,1,26,20,160787076,153348397,146546154,108515627,2170151,21601219,0,41011909,0,30611109,4171170,40910609,20310909,30401709,3190161,30411519,30401509,4021131,0,30601009,3020050,21301309,21200119,0,11111109,20311909,20700619,30800519,41301809,-1120070,0,21611109,40301509,0,1011070,30400809,3190021,0,0,12001109
1,322,528.153949650005,1,0,116567.512736219,116568.55975997,0,50,14,0,1,19,0,10581532,2160081,6200292,0,0,0,2200120,0,3060190,1190171,3091040,1040011,0,0,0,2160081,0,0,0,0,0,0,-4110101,0,0,0,0,0,0,2090191,0,0,0,0,0,0,0,0,0,0
1,323,545.23967197747,1,0,116570.265599751,116571.312617343,0,50,14,0,1,16,5,29661210,32592600,14842090,43392799,0,0,4080201,0,21400809,0,4180200,0,0,4100061,3101070,0,21201219,0,0,-3100080,0,1090170,11700909,0,0,0,0,0,3141181,0,0,0,0,0,3080081,30001209,0,10311509,0,0
1,324,983.136999813723,0,0,116572.865529842,116573.912551668,0,50,14,0,0,7,20,150696708,151493786,179826356,186024984,30711019,2001001,2150170,0,1130180,31611719,-1190101,40001709,41900809,0,4001021,21300319,0,4070180,40110619,40710419,10000019,31301209,30510119,40010709,41711909,0,4090101,41611909,1181190,0,20710419,0,0,0,11300919,40810809,41510209,41701019,20000619,30701409
1,325,714.262556371978,1,0,116575.912506243,116576.959530379,0,50,14,0,1,32,5,51542838,15401881,47452631,31501941,0,0,0,0,0,20310609,0,1031020,30201209,0,0,0,0,0,11210709,3170171,1021001,0,3061121,41311309,0,0,0,0,3080201,0,0,0,4160071,0,0,-4091080,0,0,20200609,3050181
1,326,616.458219708875,1,0,116578.818306296,116579.865341596,0,50,14,1,1,10,0,7531180,8282231,4190202,0,0,4181140,0,0,0,1190000,0,2160040,0,-4111120,0,0,1110091,0,0,0,0,3061020,0,0,0,0,0,0,0,2170001,2020201,0,0,0,0,0,0,0,0,0
1,327,1109.50274506467,1,0,116581.571171368,116582.61818896,0,50,14,0,1,11,0,4021221,2110022,9372363,2190141,3011200,0,0,0,0,0,0,0,1010021,0,-1020011,0,0,0,0,1090011,0,0,0,0,0,4200101,2081071,0,0,0,3091191,0,0,0,2190141,0,0,0,0,0
1,328,668.795587174827,0,0,116584.82990055,116585.876932771,0,50,14,1,0,23,20,78352670,160664445,128975376,118737844,30400409,30601809,3200071,0,1090161,2050001,0,11010219,0,0,30400119,21600419,20800009,31711519,1030170,10200109,40900909,4021191,0,20110409,41500109,20411609,-3151010,30310709,0,10401409,3090121,20100119,22001909,31101619,20811619,10011819,0,4010140,10700619,0
1,329,906.716089666588,0,0,116587.582767932,116588.629849812,0,50,14,1,0,29,10,112303659,91011997,50601418,47493518,31910609,0,0,3101021,31511919,0,41610009,0,4170101,1110070,31700109,41610119,2060140,1200030,0,0,10210409,3121120,0,0,0,0,0,0,40001109,10600309,0,0,-1050180,3141110,11800209,0,0,0,0,31502019
1,330,1129.16193142883,0,0,116590.594449572,116591.641471784,0,50,14,0,0,6,10,50473570,117097479,53412558,65381138,10711409,2131171,0,0,4180171,-1050081,0,21900119,10500619,0,0,2091001,2081021,0,40401719,41811719,30712019,0,0,0,10401319,0,0,42010119,0,0,1001120,1190050,2091060,22000009,0,40100019,0,0,0,0
1,331,496.545190078905,1,0,116593.817898237,116594.864923143,0,50,14,1,1,34,5,43363141,12510300,94124876,2051051,3090090,0,4061150,4121041,0,1080041,31010819,0,0,0,4190060,0,4160200,0,0,4160040,0,0,0,0,31700519,0,30211619,0,0,21201919,11010819,0,0,0,0,0,0,-2051051,0,0
1,332,935.725592804374,0,0,116596.417824094,116597.464889806,0,50,14,1,0,25,10,90044398,69505350,74993718,83512877,41811119,0,31910519,0,2181151,4131090,10010519,0,0,0,1091171,2040181,3010150,0,0,20711919,2040120,40611809,0,30802019,40000509,0,0,0,-4191190,0,0,0,20200619,0,20211109,0,2090140,0,41011009,0
1,333,508.299588080263,1,0,116599.441263597,116600.488290813,0,50,14,0,1,14,20,152667226,115984596,137465325,145987866,31901909,31901609,1061140,2130161,30610409,2141070,41910719,0,11010209,21000309,1051180,0,0,-1110160,31001109,0,21710219,40111619,21100919,0,40811109,20610619,3131150,0,20611319,0,31200209,30111309,1001191,10210119,21411109,1030201,11211809,31010209,40001919,0
1,334,687.931611581007,1,0,116602.170603704,116603.217626301,0,50,14,1,1,36,5,4280300,60734459,23132840,59102888,0,0,2140180,0,0,2140120,0,0,0,3171201,0,0,0,32012009,4041030,0,21510219,0,0,0,1041051,0,0,1081070,0,0,21010719,0,0,21510519,2191150,0,0,0,31400109,-4001110
1,335,1098.71190435661,0,0,116605.005822705,116606.052835677,0,50,14,1,0,13,5,6211332,33302920,50753050,43532209,0,0,2090201,0,4121131,0,0,0,0,0,0,31211819,-2091101,0,0,0,0,0,1141151,11500319,1060040,0,0,0,3071090,30910319,3070131,0,0,0,21100609,2130181,0,20301419,0,0
1,336,471.675942084403,1,0,116608.31165802,116609.358654439,0,50,14,0,1,21,5,4141090,24013320,59582890,52211838,0,0,0,0,4141090,0,0,0,0,0,0,0,1031181,1171130,0,0,0,21811009,0,21910109,-4170101,1141021,0,2051140,30310519,0,0,0,30101319,20100219,0,1010160,0,0,1000140,0
1,337,780.878895806381,0,0,116614.464375498,116615.511398864,0,50,15,0,0,16,5,18273190,45012391,23533308,22782260,0,3200061,0,11802009,0,1130000,0,2141120,0,0,0,0,1111141,0,40710209,-3191041,0,0,10300919,1131110,2091160,0,0,0,0,0,10010119,0,0,0,0,0,0,20711109,0,2071151
1,338,503.119938337477,1,0,116617.417234718,116618.464261165,0,50,15,1,1,10,0,7531180,8282231,4190202,0,0,4181140,0,0,0,1190000,0,2160040,0,-4111120,0,0,1110091,0,0,0,0,3061020,0,0,0,0,0,0,0,2170001,2020201,0,0,0,0,0,0,0,0,0
1,339,1223.22021296714,0,0,116620.170098251,116621.217120847,0,50,15,0,0,5,0,6061301,6101170,2221192,7141270,0,0,0,4011160,-2050141,0,0,0,0,0,0,0,2090160,0,4011010,0,0,0,0,1060021,1161171,0,0,0,0,0,0,0,0,3130200,0,0,4011070,0,0,0
