sub_id,Trial,RT,Resp,Error,Fix_onset,Disp_onset,q1,q2,block,repeat,tid,tloc,d_setsize,quad1,quad2,quad3,quad4,loc1,loc2,loc3,loc4,loc5,loc6,loc7,loc8,loc9,loc10,loc11,loc12,loc13,loc14,loc15,loc16,loc17,loc18,loc19,loc20,loc21,loc22,loc23,loc24,loc25,loc26,loc27,loc28,loc29,loc30,loc31,loc32,loc33,loc34,loc35,loc36
13,1,1419.04950319804,0,0,32240.3584977257,32241.4056030888,0,15,1,1,0,30,5,4181020,38402748,19615001,80153320,0,0,0,0,0,0,4181020,0,0,4081020,0,0,11600219,0,0,20601419,2120090,0,0,0,11301709,2071160,0,0,0,3121041,3121091,0,3060041,-4181141,41811619,31100519,0,0,0,0
13,2,860.487316989747,1,0,32243.9939042792,32245.0409953986,0,15,1,1,1,29,0,6032361,2041110,4161192,7402050,3021161,0,0,0,0,0,0,3011200,0,2041110,0,0,0,0,0,0,0,0,0,0,0,0,3130031,0,0,1031161,0,0,-3081000,3161010,0,0,0,0,0,1160040
13,3,1117.61082709563,1,0,32247.0528310234,32248.0999086693,0,15,1,0,1,34,10,72111847,76532757,10272443,91009669,0,40400019,0,0,0,0,20901719,10810109,0,41710809,10010519,20611309,0,0,0,4200120,0,0,0,2171161,2061081,4010100,0,0,0,0,2030101,20511809,2011081,21802009,20111709,4020111,0,-2151131,20401819,0
13,4,753.829648143437,0,0,32250.3705778007,32251.4176596811,0,15,1,1,0,17,20,88185945,63673190,132898935,191597414,1100180,11200209,12000819,21702019,0,11100409,30011209,0,1071100,0,0,40410009,4171141,0,0,10810809,-4170100,4111131,0,20900419,4200180,11911809,21310719,20501019,3071061,40202019,10801709,10901909,30810719,21810309,4071001,10300719,0,41800319,41101819,30800619
13,5,1478.52866641551,0,0,32253.3706582575,32254.4177482221,0,15,1,0,0,7,5,68091980,3140100,44421569,82312740,0,0,0,31000919,0,4120061,-1160181,31810819,0,0,0,0,0,0,0,0,0,3140100,0,0,3011060,0,0,41410509,0,0,0,0,1000071,4171090,30110709,1060071,0,4070080,41900719,0
13,6,836.163173698878,1,0,32257.0531166644,32258.1002039343,0,15,1,0,1,4,0,6342351,2121150,3061051,6272180,3090090,0,1061171,-2191090,0,0,0,0,0,0,0,0,0,0,0,2121150,0,0,3061051,0,0,0,0,0,0,0,0,0,0,0,0,2181060,2021110,0,2070010,0
13,7,1103.02850588778,0,0,32260.1473300852,32261.1944196649,0,15,1,0,0,12,20,200397213,202478825,130507687,38465950,40201309,21000919,3170110,0,41801709,41600919,10301319,11610519,30710409,0,41900909,-3061200,42001309,1081041,30311719,41801319,20611219,21710109,10911519,3181111,42011109,20910909,0,1071001,21510019,30912019,0,0,0,4031011,1080031,0,2151180,0,20501919,10701809
13,8,512.149616912211,1,0,32263.3591829563,32264.4062756156,0,15,1,0,1,16,5,35080830,49712439,35433300,25281649,0,0,0,0,0,0,3080121,0,32000709,4150140,4030200,0,0,40510909,0,-1021190,0,0,0,0,0,0,1120131,11501619,2201031,20610519,0,0,0,0,0,2160180,3020150,0,0,20101319
13,9,1094.69641084434,1,0,32266.0533826725,32267.1004622431,0,15,1,0,1,21,10,35072569,115773927,67595556,6211341,21600109,0,0,0,0,10310419,0,2041030,1121011,0,3151081,40500409,10010119,0,41101709,0,0,21010609,10710909,20710019,-2081110,0,0,10510919,21511519,2071080,0,0,0,0,0,0,2080130,0,2020050,2111161
13,10,2151.3395666625,1,0,32269.382890777,32270.4299753522,0,15,1,1,1,31,20,174545793,78885528,111937266,100978608,30810619,31700419,0,21311509,30200419,20110509,10001709,0,30410609,0,41310419,0,11110009,11311019,10811709,0,2141201,2201171,0,11600809,11001809,0,41401719,22001209,1181170,4040041,20710509,10702019,1060101,20601509,-1000121,2151180,2161160,21401809,41900709,0
13,11,488.975352014677,1,0,32273.6771310681,32274.7242179531,0,15,1,0,1,14,0,5191030,4070150,10493502,0,0,1050020,0,0,0,0,4141010,0,0,0,0,0,0,-4070150,0,0,0,0,1111080,2120171,1020090,0,2091001,0,4151160,0,0,0,0,0,0,0,0,0,0,0
13,12,1426.40533724261,1,0,32276.3595679172,32277.4066447931,0,15,1,1,1,35,0,3251201,4190131,5202080,6371322,0,0,1171040,0,0,0,0,2080161,0,0,0,0,0,0,0,0,0,4190131,0,0,0,0,2011040,3191040,0,0,0,0,1160111,0,0,1020110,0,0,-4191101,0
13,13,1327.7887329532,1,0,32279.8890759448,32280.9362136446,0,15,1,0,1,5,0,8361301,1040151,6251221,2141160,0,0,2030041,3151140,-3180120,0,0,0,0,0,0,0,0,0,0,0,0,1040151,1020170,0,1131011,0,0,4100040,0,0,0,0,0,0,0,0,0,0,0,2141160
13,14,1555.06929942931,0,0,32283.4068261098,32284.4539068353,0,15,1,0,0,19,20,148578854,101266067,57813598,172647715,20211909,21400619,20201509,0,11000719,12011709,21111809,41610409,1030171,10801309,40211219,0,31110809,3161151,0,11700409,2101040,2180130,-4080151,20101809,0,0,11511509,0,0,1010110,21110019,1061040,32000709,0,10001709,41510819,41410209,21701519,20810519,4151191
13,15,832.611908834224,1,0,32287.089290676,32288.1363698617,0,15,1,1,1,22,10,81364318,53296839,104261787,42823801,0,30500919,4100121,11910319,30711819,0,0,0,4141140,4141191,11512019,10811009,0,0,4090001,0,2041200,20701419,0,21310609,0,-1041060,0,0,40310009,0,41600109,0,0,0,40611609,0,1111051,0,0,1101141
13,16,803.632817605831,1,0,32290.0423154298,32291.0893957704,0,15,1,1,1,28,20,115457076,239038083,80447288,119337798,21401909,0,0,0,3131111,20201019,10011709,20710919,40000409,31200909,31701709,0,41811509,0,31700919,30901209,40610009,31111819,0,40011819,11001919,11801219,3120091,1001131,2000090,11511019,0,-3110170,41000209,10911719,3021041,31711709,4170131,4101010,0,21311809
13,17,938.069654363062,0,0,32293.0776918023,32294.124780227,0,15,1,1,0,18,10,85095088,46813772,74012877,101685330,0,40301909,0,0,0,1191051,22001619,0,21600509,40510409,0,0,0,0,0,1061081,3061131,-2181151,0,20000819,0,3201040,0,30500509,20310509,0,0,0,1130001,3111021,41311919,0,40611009,11501309,4020071,0
13,18,650.16120115979,0,0,32296.0777853478,32297.1248602989,0,15,1,0,0,20,10,92147699,128406278,50202491,10200719,0,2150031,0,21901819,20112009,4021071,11011419,2041041,30910309,40901919,0,0,10311519,3051131,2030091,0,30601009,41510609,0,-4011150,41010219,0,0,0,4170021,1011101,0,0,0,0,0,0,10200719,0,0,0
13,19,1246.01802032339,0,0,32298.877861647,32299.9250097408,0,15,1,1,0,27,5,25692179,45441589,37083570,45764990,0,0,3121120,0,0,21501009,0,0,1070050,1170080,0,0,4071190,0,0,0,40200319,0,31811409,0,3171070,0,0,0,0,0,-2101091,4031111,0,10701809,1020061,0,0,0,0,30012009
13,20,1603.94394305331,0,0,32302.2897321493,32303.3368078703,0,15,1,1,0,6,5,6281291,24511700,30301529,84025968,0,0,0,4131141,0,-2150150,0,0,0,3061170,0,0,0,0,0,20310409,0,1140121,0,0,0,0,22000219,0,3100100,2200100,3001110,41001609,0,0,1101041,30011309,0,11912009,0,0
13,21,691.753538281773,0,0,32306.1369623166,32307.1839829883,0,15,1,1,0,23,10,21085011,31103179,119916226,50911138,0,4081010,0,0,2131041,0,3161141,0,11711819,0,0,1040130,0,0,4180060,4070151,11711619,10101219,10201209,0,3010180,40201709,-3191181,10900919,0,40700309,11710719,0,0,0,0,0,0,30310219,20600919,0
13,22,1514.28884497727,0,0,32309.0546230167,32310.1017102866,0,15,1,1,0,13,0,1041070,5140361,10221131,8110251,0,0,0,0,0,0,0,1041070,0,0,2130180,0,-3010181,0,0,0,0,0,0,4040080,2170051,4011000,0,0,0,0,0,0,4010160,0,0,0,0,0,0,4100091
13,23,830.513486635027,1,0,32312.6782636233,32313.7253458887,0,15,1,0,1,8,5,9583463,31501209,57793408,67453199,0,0,0,0,3141031,1091060,0,-3201171,2150201,0,0,0,0,0,31501209,0,0,0,0,4140130,40611719,0,0,1131140,0,11910419,0,0,0,31900909,4000060,30411109,0,0,1141121,0
13,24,1149.78008980688,0,0,32315.5607077096,32316.6078454094,0,15,1,0,0,24,20,154865206,113914546,214377675,170487105,41400109,0,2140031,0,10101919,0,30201109,30611919,40410119,21210619,4030150,0,2161120,0,21810209,2080110,20911619,41710719,31000019,41901609,40601219,0,41602019,-4020071,10801809,41400819,3050110,31500719,3151160,30212009,0,4000090,41110109,30411309,30101709,0
13,25,627.161323576729,0,0,32334.5612481948,32335.6083354647,0,15,2,0,0,14,20,133206907,100393598,188258094,172036356,21701809,20900219,31300719,30611919,3140041,21310919,1041121,3200160,0,1170191,20010819,3001070,0,-2190081,40700719,21310309,12010409,0,0,41511609,0,32011809,0,40501019,21011119,41411119,11811419,2130160,0,4071121,41410419,41500609,0,31610309,20001719,31312019
13,26,725.382187996729,0,0,32337.3142776451,32338.361354521,0,15,2,1,0,22,10,81364318,53296839,104261787,42823801,0,30500919,4100121,11910319,30711819,0,0,0,4141140,4141191,11512019,10811009,0,0,4090001,0,2041200,20701419,0,21310609,0,-1041060,0,0,40310009,0,41600109,0,0,0,40611609,0,1111051,0,0,1101141
13,27,871.102230532415,0,0,32340.2202401514,32341.2673224168,0,15,2,0,0,12,5,32781989,120866009,4100301,16331721,0,0,0,0,0,0,0,30611819,2170170,0,0,-3141171,30711219,0,40911709,0,42010809,4091101,0,1000170,3100131,0,0,0,0,0,0,11010519,1151061,1140111,0,0,0,3030030,0,0
13,28,580.898255113425,0,0,32343.3144516474,32344.3615858826,0,15,2,0,0,8,10,45291999,107924607,8242351,95004066,31210309,0,11901509,0,0,1110050,0,-1070131,0,4090061,0,41210809,0,11411509,10201419,0,41010809,0,0,3001050,0,1141060,1020001,0,1020090,0,2060150,21900319,0,10301719,0,40901909,0,0,0,21900119
13,29,1385.1964212372,1,0,32346.1262942785,32347.1733719243,0,15,2,0,1,24,20,102782739,73644856,144490403,193177306,3100141,0,1090121,31111709,2050200,4120130,0,20310119,41000319,41711209,0,0,0,10410709,0,10011219,0,11511719,3031070,20800609,31210209,12000719,10601909,-2121060,21201509,21711909,21811409,4081121,30000419,31400709,40710809,2070011,21602009,31511519,0,31800709
13,30,1562.41319968467,1,0,32349.6911020713,32350.7381866465,0,15,2,0,1,4,20,175317546,96904627,161546684,114537066,30500819,4140060,2171051,-4081050,40411109,0,11502019,41310719,41200719,31000109,2091071,0,0,11201119,0,40911719,0,11700609,21401709,20501619,0,3131010,22000009,41611209,11600009,0,41301119,1051060,20311709,10800109,4100140,31410919,0,3061011,31900609,11901509
13,31,851.838784034044,1,0,32353.3735674075,32354.4206519827,0,15,2,1,1,29,0,6032361,2041110,4161192,7402050,3021161,0,0,0,0,0,0,3011200,0,2041110,0,0,0,0,0,0,0,0,0,0,0,0,3130031,0,0,1031161,0,0,-3081000,3161010,0,0,0,0,0,1160040
13,32,752.025721078098,1,0,32356.3501202053,32357.3972036256,0,15,2,1,1,18,10,85095088,46813772,74012877,101685330,0,40301909,0,0,0,1191051,22001619,0,21600509,40510409,0,0,0,0,0,1061081,3061131,-2181151,0,20000819,0,3201040,0,30500509,20310509,0,0,0,1130001,3111021,41311919,0,40611009,11501309,4020071,0
13,33,1438.51995934165,0,0,32359.2090277785,32360.2559141981,0,15,2,1,0,27,5,25692179,45441589,37083570,45764990,0,0,3121120,0,0,21501009,0,0,1070050,1170080,0,0,4071190,0,0,0,40200319,0,31811409,0,3171070,0,0,0,0,0,-2101091,4031111,0,10701809,1020061,0,0,0,0,30012009
13,34,588.33916552976,0,0,32362.726782563,32363.7738652133,0,15,2,1,0,28,20,115457076,239038083,80447288,119337798,21401909,0,0,0,3131111,20201019,10011709,20710919,40000409,31200909,31701709,0,41811509,0,31700919,30901209,40610009,31111819,0,40011819,11001919,11801219,3120091,1001131,2000090,11511019,0,-3110170,41000209,10911719,3021041,31711709,4170131,4101010,0,21311809
13,35,628.066366796702,1,0,32365.456256637,32366.5033654647,0,15,2,0,1,20,0,2252360,8352222,6152280,4241091,1141160,0,0,0,0,0,1111200,0,0,0,0,4191061,0,0,0,0,4161161,0,4131130,-2021150,0,0,0,0,0,0,0,0,0,0,0,0,0,1061000,0,3180091
13,36,1427.76193967075,1,0,32368.1504663622,32369.1975451629,0,15,2,0,1,34,10,84624438,69073348,118443989,35401581,0,0,0,0,0,20600909,32001409,1021101,31001019,4101120,0,0,2170100,0,0,21100319,41701809,0,2090041,30810509,0,30611819,0,40210219,11501209,2190161,1030031,0,0,0,30200519,0,3191031,-2010031,0,0
13,37,1367.65836977429,1,0,32371.797623849,32372.8447064993,0,15,2,1,1,31,20,174545793,78885528,111937266,100978608,30810619,31700419,0,21311509,30200419,20110509,10001709,0,30410609,0,41310419,0,11110009,11311019,10811709,0,2141201,2201171,0,11600809,11001809,0,41401719,22001209,1181170,4040041,20710509,10702019,1060101,20601509,-1000121,2151180,2161160,21401809,41900709,0
13,38,692.553872118879,1,0,32375.3036111468,32376.3506976467,0,15,2,1,1,23,10,21085011,31103179,119916226,50911138,0,4081010,0,0,2131041,0,3161141,0,11711819,0,0,1040130,0,0,4180060,4070151,11711619,10101219,10201209,0,3010180,40201709,-3191181,10900919,0,40700309,11710719,0,0,0,0,0,0,30310219,20600919,0
13,39,624.582855059998,0,0,32378.1036932205,32379.1507801054,0,15,2,1,0,35,0,3251201,4190131,5202080,6371322,0,0,1171040,0,0,0,0,2080161,0,0,0,0,0,0,0,0,0,4190131,0,0,0,0,2011040,3191040,0,0,0,0,1160111,0,0,1020110,0,0,-4191101,0
13,40,930.803901184845,0,0,32380.939069285,32381.9862119892,0,15,2,1,0,17,20,88185945,63673190,132898935,191597414,1100180,11200209,12000819,21702019,0,11100409,30011209,0,1071100,0,0,40410009,4171141,0,0,10810809,-4170100,4111131,0,20900419,4200180,11911809,21310719,20501019,3071061,40202019,10801709,10901909,30810719,21810309,4071001,10300719,0,41800319,41101819,30800619
13,41,791.374120755791,1,0,32384.0097473475,32385.0568307678,0,15,2,1,1,13,0,1041070,5140361,10221131,8110251,0,0,0,0,0,0,0,1041070,0,0,2130180,0,-3010181,0,0,0,0,0,0,4040080,2170051,4011000,0,0,0,0,0,0,4010160,0,0,0,0,0,0,4100091
13,42,457.817766706285,0,0,32386.9980726364,32388.0451525921,0,15,2,0,0,7,0,5140210,7152230,0,11151100,0,0,0,0,0,1130150,-4010060,0,0,0,3000060,0,2141070,0,0,0,2011100,0,0,0,0,0,0,0,0,0,0,4050010,0,4000050,0,3101040,0,0,0,0
13,43,532.011677703849,1,0,32389.70403291,32390.7511432776,0,15,2,0,1,16,5,3041221,50663350,92032189,51713328,0,0,0,0,0,0,1000041,2041180,0,0,0,1091070,0,0,41400109,-4041001,0,4131170,4180190,3020051,0,3111020,0,0,40010619,41710309,0,0,11311709,0,40401619,0,0,0,0,0
13,44,1562.42744323754,0,0,32392.3864593651,32393.4335500997,0,15,2,1,0,30,5,4181020,38402748,19615001,80153320,0,0,0,0,0,0,4181020,0,0,4081020,0,0,11600219,0,0,20601419,2120090,0,0,0,11301709,2071160,0,0,0,3121041,3121091,0,3060041,-4181141,41811619,31100519,0,0,0,0
13,45,618.567455079756,1,0,32396.1159761699,32397.163376413,0,15,2,0,1,21,0,6141241,0,7602571,2151072,0,0,4121200,0,0,0,0,0,2020041,0,0,0,0,0,0,0,0,0,1160160,3201120,-2070090,0,0,1171201,0,0,0,0,0,0,0,0,1111041,0,1040031,0
13,46,1207.72864824539,0,0,32398.904299226,32399.951375717,0,15,2,0,0,5,10,84373227,27551570,94384127,94133498,0,0,10301519,40410809,-3050190,30610709,0,0,0,0,0,0,2050101,21400319,0,1040130,0,3061020,0,21211909,40901109,0,31211109,0,0,0,1060000,4160030,42001619,0,11200409,30600119,3001170,3170151,0,0
13,47,596.382154893945,0,0,32402.2455882909,32403.2926559278,0,15,2,0,0,19,5,56002309,28273151,8250352,23272358,11100019,2161130,41610119,0,0,1131041,0,0,0,0,1071191,0,0,0,2100100,4191051,0,20910809,-4120191,0,0,4130161,0,0,0,0,0,0,10611409,0,0,0,0,11500809,0,1160140
13,48,1320.83826279995,0,0,32405.0809501118,32406.1280366118,0,15,2,1,0,6,5,6281291,24511700,30301529,84025968,0,0,0,4131141,0,-2150150,0,0,0,3061170,0,0,0,0,0,20310409,0,1140121,0,0,0,0,22000219,0,3100100,2200100,3001110,41001609,0,0,1101041,30011309,0,11912009,0,0
13,49,851.764871531486,1,0,32429.2698781726,32430.3169650576,0,15,3,1,1,18,10,85095088,46813772,74012877,101685330,0,40301909,0,0,0,1191051,22001619,0,21600509,40510409,0,0,0,0,0,1061081,3061131,-2181151,0,20000819,0,3201040,0,30500509,20310509,0,0,0,1130001,3111021,41311919,0,40611009,11501309,4020071,0
13,50,712.092950663646,1,0,32432.3523271865,32433.3994109917,0,15,3,1,1,30,5,4181020,38402748,19615001,80153320,0,0,0,0,0,0,4181020,0,0,4081020,0,0,11600219,0,0,20601419,2120090,0,0,0,11301709,2071160,0,0,0,3121041,3121091,0,3060041,-4181141,41811619,31100519,0,0,0,0
13,51,530.621583671746,0,0,32435.1288712072,32436.1759596319,0,15,3,0,0,21,10,86525598,119854707,57401929,18593370,3101161,11311309,0,0,31611619,0,0,0,40501509,3190020,0,1020121,32011319,0,11211219,0,41310419,31111609,0,2110131,-4181170,0,10000509,0,0,41110119,0,0,3141110,0,10210909,0,0,1080191,4161160,0
13,52,991.171939262131,1,0,32437.8583660691,32438.9054444849,0,15,3,0,1,34,0,13240523,4170130,1181040,4201232,0,3020111,0,4010161,0,3170160,0,0,3040091,0,4170130,0,0,0,0,0,0,0,1181040,0,0,0,0,0,0,0,0,0,0,0,0,0,0,-1131181,0,3070051
13,53,883.407507652009,0,0,32441.0231590024,32442.0702466573,0,15,3,0,0,5,20,189916476,138694756,129483295,112354747,3200061,31012009,20300119,31801809,-2200151,30001009,31401009,40000309,0,2051070,20311119,30900619,0,20910319,0,20510909,3000101,41010619,10410619,3160020,41900409,31511409,0,10800219,0,0,31700619,41500319,0,41600619,2041020,2140011,11912009,2150150,11010619,0
13,54,1271.05087673772,0,0,32444.1644427549,32445.2115846892,0,15,3,0,0,4,20,141986224,212906694,48183419,116133486,21410519,41201309,2190000,-4160160,0,30801909,10301909,11810109,20110309,20710309,3170201,4110200,30711909,20500409,41500619,41000019,40101019,11102009,2200121,10311119,1020051,0,10811319,20810719,0,0,3030090,0,30800409,0,3020130,21301109,40410319,0,0,20601519
13,55,664.734668265737,1,0,32447.5527667349,32448.5998513101,0,15,3,1,1,29,0,6032361,2041110,4161192,7402050,3021161,0,0,0,0,0,0,3011200,0,2041110,0,0,0,0,0,0,0,0,0,0,0,0,3130031,0,0,1031161,0,0,-3081000,3161010,0,0,0,0,0,1160040
13,56,839.048841062322,1,0,32450.4352054318,32451.4822853874,0,15,3,1,1,6,5,6281291,24511700,30301529,84025968,0,0,0,4131141,0,-2150150,0,0,0,3061170,0,0,0,0,0,20310409,0,1140121,0,0,0,0,22000219,0,3100100,2200100,3001110,41001609,0,0,1101041,30011309,0,11912009,0,0
13,57,523.321184005908,0,0,32453.3529446639,32454.4000211548,0,15,3,1,0,23,10,21085011,31103179,119916226,50911138,0,4081010,0,0,2131041,0,3161141,0,11711819,0,0,1040130,0,0,4180060,4070151,11711619,10101219,10201209,0,3010180,40201709,-3191181,10900919,0,40700309,11710719,0,0,0,0,0,0,30310219,20600919,0
13,58,592.860916982318,1,0,32456.0353645747,32457.0824861061,0,15,3,1,1,28,20,115457076,239038083,80447288,119337798,21401909,0,0,0,3131111,20201019,10011709,20710919,40000409,31200909,31701709,0,41811509,0,31700919,30901209,40610009,31111819,0,40011819,11001919,11801219,3120091,1001131,2000090,11511019,0,-3110170,41000209,10911719,3021041,31711709,4170131,4101010,0,21311809
13,59,692.13965412564,0,0,32458.6942652955,32459.7413406316,0,15,3,0,0,24,20,145913785,151333545,90926528,149927975,0,41500209,11600219,40400509,10211719,0,41000009,1201120,0,21100409,31611209,2170071,31010509,0,1140020,31500509,10800809,22000009,20301609,1201051,0,30801319,0,-4160090,4151140,30311319,0,20210009,20202009,31811409,2130060,3051141,20011719,0,31610509,20901119
13,60,644.186607041775,1,0,32461.5531740236,32462.6002532093,0,15,3,0,1,20,10,87845236,33603039,29390681,41165439,1130171,30911119,11801219,11801109,21900009,0,10301609,0,0,0,3091020,0,0,0,0,0,30512019,0,0,-3040040,2030061,0,2010100,0,2100071,0,20210409,11812019,0,10910419,0,0,3110111,0,11201709,4131181
13,61,1153.95345158686,0,0,32464.2591350671,32465.3062161776,0,15,3,0,0,12,0,4221041,4462262,4340393,0,0,0,0,1151000,0,0,0,0,3070041,0,0,-1181141,0,2141061,1140060,0,0,0,0,0,1160161,2130181,0,1050051,0,0,0,0,0,0,0,0,0,0,0,0
13,62,543.177470379305,1,0,32467.6239306182,32468.6710159633,0,15,3,1,1,17,20,88185945,63673190,132898935,191597414,1100180,11200209,12000819,21702019,0,11100409,30011209,0,1071100,0,0,40410009,4171141,0,0,10810809,-4170100,4111131,0,20900419,4200180,11911809,21310719,20501019,3071061,40202019,10801709,10901909,30810719,21810309,4071001,10300719,0,41800319,41101819,30800619
13,63,1114.99886697129,0,0,32470.4240200061,32471.4710995768,0,15,3,1,0,31,20,174545793,78885528,111937266,100978608,30810619,31700419,0,21311509,30200419,20110509,10001709,0,30410609,0,41310419,0,11110009,11311019,10811709,0,2141201,2201171,0,11600809,11001809,0,41401719,22001209,1181170,4040041,20710509,10702019,1060101,20601509,-1000121,2151180,2161160,21401809,41900709,0
13,64,629.18467838972,0,0,32473.6241107799,32474.6711888107,0,15,3,1,0,27,5,25692179,45441589,37083570,45764990,0,0,3121120,0,0,21501009,0,0,1070050,1170080,0,0,4071190,0,0,0,40200319,0,31811409,0,3171070,0,0,0,0,0,-2101091,4031111,0,10701809,1020061,0,0,0,0,30012009
13,65,1064.75799690088,1,0,32476.3065341554,32477.3536356688,0,15,3,1,1,35,0,3251201,4190131,5202080,6371322,0,0,1171040,0,0,0,0,2080161,0,0,0,0,0,0,0,0,0,4190131,0,0,0,0,2011040,3191040,0,0,0,0,1160111,0,0,1020110,0,0,-4191101,0
13,66,560.391384718969,0,0,32479.4478017394,32480.4948974784,0,15,3,0,0,16,5,55084178,15712220,37101851,49311620,0,0,0,10411009,0,0,3071150,41602019,0,0,11501019,0,0,0,0,-2021101,0,2190100,0,31900719,0,0,4000071,0,0,0,1201061,4051100,2050000,1200101,0,0,0,42010419,0,0
13,67,752.515006461181,0,0,32482.0714153988,32483.1184968942,0,15,3,0,0,8,10,59914877,66024880,38625071,53742436,11310209,0,11200409,0,0,2071170,31101819,-3160130,1071140,20911019,40111809,1001041,0,4001011,0,0,0,0,0,0,0,3041121,30501719,4031080,0,1051151,0,11311009,0,21010809,10110309,0,0,0,11310309,0
13,68,880.26738109329,0,0,32485.0597364531,32486.1068187185,0,15,3,0,0,7,0,11432383,2181041,11381141,0,0,0,0,2101121,0,0,-3091121,3140041,3100100,0,0,0,2181041,0,0,0,0,0,0,0,0,0,4120110,3121021,0,4140010,0,0,0,0,0,0,0,0,0,0
13,69,479.326690488961,1,0,32488.0245283086,32489.0716121138,0,15,3,0,1,14,5,10352283,95335318,65942558,9352261,2041121,0,4190021,0,4121141,0,0,0,0,41011109,21801919,31401119,0,-1121171,0,0,0,0,0,0,0,20510819,41310719,0,0,4121020,0,0,4091080,4070021,0,1191160,0,0,0,0
13,70,561.748757067107,0,0,32490.6481473574,32491.6952165341,0,15,3,1,0,13,0,1041070,5140361,10221131,8110251,0,0,0,0,0,0,0,1041070,0,0,2130180,0,-3010181,0,0,0,0,0,0,4040080,2170051,4011000,0,0,0,0,0,0,4010160,0,0,0,0,0,0,4100091
13,71,571.662656697299,1,0,32493.4364507805,32494.4835241918,0,15,3,0,1,19,5,77026159,83832428,8440462,12811309,2051111,0,1160200,40302019,30501819,3011010,0,0,0,0,0,40310909,0,0,40411409,0,3110110,0,-3150150,0,0,0,4200171,0,1090141,0,0,0,0,0,0,2011190,0,0,10800119,0
13,72,1837.0089329328,1,0,32496.071817683,32497.1188957138,0,15,3,1,1,22,10,81364318,53296839,104261787,42823801,0,30500919,4100121,11910319,30711819,0,0,0,4141140,4141191,11512019,10811009,0,0,4090001,0,2041200,20701419,0,21310609,0,-1041060,0,0,40310009,0,41600109,0,0,0,40611609,0,1111051,0,0,1101141
13,73,978.085191385617,0,0,32507.7897987475,32508.8368848625,0,15,4,0,0,24,5,35133099,67202740,26763641,37540280,0,0,0,0,30000819,2041170,0,3091110,0,0,0,2091121,3000091,31411019,0,0,30700509,0,0,0,3171091,0,0,-2181131,21411419,0,0,3080041,0,0,31400209,3060030,0,0,0,0
13,74,515.88104350958,1,0,32510.942836128,32511.9899361016,0,15,4,0,1,16,20,121084876,176744266,127637495,149496438,4200080,0,40910409,21901619,31401319,0,2171140,0,20500309,40410609,40200209,0,1061161,0,40210509,-3040060,30510509,21311209,0,0,11410909,41911609,30101609,1201031,11500409,20400819,11111109,30010809,3160171,0,30701419,40310919,20510409,1141181,21610519,2051011
13,75,1372.40532338546,1,0,32513.625273362,32514.6723483132,0,15,4,0,1,19,5,63572448,44191190,9373622,67802928,0,0,0,0,0,41010619,0,2150020,20411809,0,0,0,42000119,0,0,0,2191071,0,-2051030,1161190,0,0,0,3060201,0,0,3101201,0,4001090,21510419,0,0,0,40200309,2091110,0
13,76,817.86212960651,1,0,32517.2018397874,32518.2489874962,0,15,4,1,1,18,10,85095088,46813772,74012877,101685330,0,40301909,0,0,0,1191051,22001619,0,21600509,40510409,0,0,0,0,0,1061081,3061131,-2181151,0,20000819,0,3201040,0,30500509,20310509,0,0,0,1130001,3111021,41311919,0,40611009,11501309,4020071,0
13,77,528.222122004081,0,0,32520.1783987446,32521.2254867844,0,15,4,0,0,20,0,3202351,2181241,9521212,2121051,0,0,0,0,0,0,0,2201170,1001181,0,1051061,0,0,0,0,1130180,0,0,0,-4190141,0,0,4181030,0,1150041,0,0,2121051,0,0,0,0,0,0,0,0
13,78,719.904193523689,1,0,32522.966718721,32524.013815615,0,15,4,1,1,27,5,25692179,45441589,37083570,45764990,0,0,3121120,0,0,21501009,0,0,1070050,1170080,0,0,4071190,0,0,0,40200319,0,31811409,0,3171070,0,0,0,0,0,-2101091,4031111,0,10701809,1020061,0,0,0,0,30012009
13,79,1206.67462513302,0,0,32525.7550325381,32526.8021159584,0,15,4,1,0,6,5,6281291,24511700,30301529,84025968,0,0,0,4131141,0,-2150150,0,0,0,3061170,0,0,0,0,0,20310409,0,1140121,0,0,0,0,22000219,0,3100100,2200100,3001110,41001609,0,0,1101041,30011309,0,11912009,0,0
13,80,1109.68910043448,0,0,32529.0610052844,32530.1080917844,0,15,4,1,0,31,20,174545793,78885528,111937266,100978608,30810619,31700419,0,21311509,30200419,20110509,10001709,0,30410609,0,41310419,0,11110009,11311019,10811709,0,2141201,2201171,0,11600809,11001809,0,41401719,22001209,1181170,4040041,20710509,10702019,1060101,20601509,-1000121,2151180,2161160,21401809,41900709,0
13,81,652.526016343472,0,0,32532.3199265622,32533.3670080577,0,15,4,0,0,21,10,119626567,38124719,79913629,66792119,0,41201709,40300409,0,0,21301919,1090141,11701209,4031180,0,21301819,2021161,3201120,0,0,0,11600619,0,0,0,-2090120,0,31811219,4201181,0,0,41811109,0,0,3180200,2200181,0,20811619,0,40600119,0
13,82,1414.08158199556,1,0,32535.2023652591,32536.2494448298,0,15,4,0,1,34,10,17932581,114123256,77143318,36371859,2201181,0,0,0,11700219,0,2000041,0,2031140,1200000,0,42010809,10200009,20700419,40012019,0,0,0,20601109,2160071,0,0,10010209,4171110,0,40200819,0,21211209,0,2170100,0,0,0,-2090041,10900509,0
13,83,2025.5601169556,1,0,32538.6730493271,32539.7201312075,0,15,4,1,1,17,20,88185945,63673190,132898935,191597414,1100180,11200209,12000819,21702019,0,11100409,30011209,0,1071100,0,0,40410009,4171141,0,0,10810809,-4170100,4111131,0,20900419,4200180,11911809,21310719,20501019,3071061,40202019,10801709,10901909,30810719,21810309,4071001,10300719,0,41800319,41101819,30800619
13,84,847.827105862962,0,0,32542.9437600343,32543.9908438395,0,15,4,1,0,35,0,3251201,4190131,5202080,6371322,0,0,1171040,0,0,0,0,2080161,0,0,0,0,0,0,0,0,0,4190131,0,0,0,0,2011040,3191040,0,0,0,0,1160111,0,0,1020110,0,0,-4191101,0
13,85,1260.64191730984,0,0,32546.0026852387,32547.0497544154,0,15,4,0,0,12,10,199518105,78524527,14432909,8424342,41801819,30501009,40112019,11310309,3091021,0,31601219,0,41100709,30100709,0,-4151030,0,1171150,0,21101319,0,22000319,0,0,0,0,0,0,0,4131190,10301719,0,1171131,1101070,4081120,0,2071021,0,0,0
13,86,1094.25986511269,1,0,32549.3910084488,32550.4380968736,0,15,4,1,1,22,10,81364318,53296839,104261787,42823801,0,30500919,4100121,11910319,30711819,0,0,0,4141140,4141191,11512019,10811009,0,0,4090001,0,2041200,20701419,0,21310609,0,-1041060,0,0,40310009,0,41600109,0,0,0,40611609,0,1111051,0,0,1101141
13,87,974.424212650774,0,0,32552.5440404399,32553.5911215504,0,15,4,1,0,30,5,4181020,38402748,19615001,80153320,0,0,0,0,0,0,4181020,0,0,4081020,0,0,11600219,0,0,20601419,2120090,0,0,0,11301709,2071160,0,0,0,3121041,3121091,0,3060041,-4181141,41811619,31100519,0,0,0,0
13,88,529.775054517813,0,0,32555.5794961143,32556.6265067769,0,15,4,1,0,23,10,21085011,31103179,119916226,50911138,0,4081010,0,0,2131041,0,3161141,0,11711819,0,0,1040130,0,0,4180060,4070151,11711619,10101219,10201209,0,3010180,40201709,-3191181,10900919,0,40700309,11710719,0,0,0,0,0,0,30310219,20600919,0
13,89,1189.26592054777,0,0,32558.3089024352,32559.3559993291,0,15,4,1,0,28,20,115457076,239038083,80447288,119337798,21401909,0,0,0,3131111,20201019,10011709,20710919,40000409,31200909,31701709,0,41811509,0,31700919,30901209,40610009,31111819,0,40011819,11001919,11801219,3120091,1001131,2000090,11511019,0,-3110170,41000209,10911719,3021041,31711709,4170131,4101010,0,21311809
13,90,1014.50865768493,0,0,32561.6737210839,32562.7207987298,0,15,4,0,0,4,20,123012397,119278147,138724625,162928583,0,41110019,0,-1081060,40311109,0,40510209,0,0,21110709,3181131,41401109,3061011,4130100,10010009,21901419,4181040,10301619,31701919,0,21800319,30711419,0,31400009,1100150,0,22010809,41701609,11500709,11100409,22001819,20811219,41411419,11101219,1200000,2100180
13,91,724.72890924837,1,0,32564.9326338926,32565.9797173129,0,15,4,0,1,5,0,8391333,2150051,6191222,4080060,3090141,0,0,0,-3180141,0,0,0,2121051,0,0,0,2150051,0,0,0,0,0,0,1110051,0,2051020,0,0,0,0,3030151,0,0,0,0,0,0,0,4080060,0
13,92,904.442159528116,1,0,32567.8268423859,32568.8739234964,0,15,4,0,1,7,5,35002941,56544509,62303228,2151151,4000001,1021120,20710519,2130030,0,0,-3081190,4060081,0,1161171,0,0,0,11111119,41101219,0,0,3171000,41001609,0,21301619,0,0,0,0,0,0,0,0,2151151,0,0,0,0,0,0
13,93,555.065834781999,0,0,32570.9210457977,32571.9681257534,0,15,4,0,0,8,0,7392402,3250201,1070130,3072161,1120141,0,0,0,0,3091191,0,-3181070,0,0,2200170,0,0,0,0,0,1050031,0,0,0,1070130,0,0,0,0,0,0,1041140,0,0,0,0,0,0,0,2031021
13,94,663.950502788794,1,0,32573.6623266245,32574.7093842523,0,15,4,1,1,13,0,1041070,5140361,10221131,8110251,0,0,0,0,0,0,0,1041070,0,0,2130180,0,-3010181,0,0,0,0,0,0,4040080,2170051,4011000,0,0,0,0,0,0,4010160,0,0,0,0,0,0,4100091
13,95,448.253796588688,1,0,32576.5329678077,32577.5800593122,0,15,4,0,1,14,20,132937336,100494558,150647084,128924496,4011091,0,41211219,0,31300709,11112009,11710519,2080180,31511609,2201141,0,2201051,10000009,-4091020,20101019,0,41700009,20200309,41811909,10600009,10301519,1011111,11811709,11810119,20410219,41710419,1180070,0,4011140,0,0,11100119,0,41011609,41201119,31600509
13,96,1117.26282238669,1,0,32579.2389327008,32580.2860111166,0,15,4,1,1,29,0,6032361,2041110,4161192,7402050,3021161,0,0,0,0,0,0,3011200,0,2041110,0,0,0,0,0,0,0,0,0,0,0,0,3130031,0,0,1031161,0,0,-3081000,3161010,0,0,0,0,0,1160040
13,97,834.728809157241,0,0,32594.2511324986,32595.2982405564,0,15,5,1,0,6,5,6281291,24511700,30301529,84025968,0,0,0,4131141,0,-2150150,0,0,0,3061170,0,0,0,0,0,20310409,0,1140121,0,0,0,0,22000219,0,3100100,2200100,3001110,41001609,0,0,1101041,30011309,0,11912009,0,0
13,98,458.034114766633,1,0,32597.1689344793,32598.2159474518,0,15,5,0,1,7,5,14331423,21821919,97641667,15572589,0,4171091,0,3070031,4060181,0,-3030120,0,0,1010110,0,0,20811809,0,0,0,0,0,41501119,31700509,0,0,0,20310009,0,0,4130030,10211319,0,0,3190120,0,0,2171150,0,0
13,99,725.291337214003,0,0,32599.7924630623,32600.8395514871,0,15,5,0,0,5,5,14352332,75181388,39102350,76000539,0,3110030,4041191,0,-3160100,0,4041011,0,0,0,41300719,0,0,31700609,2180060,0,0,0,0,0,0,0,0,4000090,0,31901109,3201151,0,30510119,0,0,41400219,0,4090201,0,0
13,100,1279.87264212425,1,0,32602.6160854988,32603.663169304,0,15,5,1,1,30,5,4181020,38402748,19615001,80153320,0,0,0,0,0,0,4181020,0,0,4081020,0,0,11600219,0,0,20601419,2120090,0,0,0,11301709,2071160,0,0,0,3121041,3121091,0,3060041,-4181141,41811619,31100519,0,0,0,0
13,101,498.46040513512,0,0,32605.9573476164,32607.0044387359,0,15,5,0,0,14,20,218044503,132865916,141386967,61142159,21801019,40300009,41611219,0,12001109,21810119,40310109,0,40210919,0,12000719,20312019,30611109,-3180181,21711209,3140160,0,41910519,21200409,41900519,30910909,11201419,2110201,2061030,30801409,0,1201071,0,10910009,0,2190150,30801509,2100181,12000119,3140191,0
13,102,744.472017100634,1,0,32608.6633055802,32609.7103990094,0,15,5,1,1,22,10,81364318,53296839,104261787,42823801,0,30500919,4100121,11910319,30711819,0,0,0,4141140,4141191,11512019,10811009,0,0,4090001,0,2041200,20701419,0,21310609,0,-1041060,0,0,40310009,0,41600109,0,0,0,40611609,0,1111051,0,0,1101141
13,103,783.763057595934,0,0,32611.5810821535,32612.6281355468,0,15,5,0,0,8,20,101765116,140346367,222137505,77227438,0,2181020,11811209,11401009,42010219,20610419,11600119,-2151121,0,30701619,0,41301909,21501319,41700409,0,0,3020030,2121081,1011171,2090031,31300219,40411119,41001609,21900719,31011009,31810819,21600809,0,21200919,2071111,2131081,20511209,0,10602009,0,20711109
13,104,604.659585478657,0,0,32614.4870542838,32615.5341007478,0,15,5,1,0,23,10,21085011,31103179,119916226,50911138,0,4081010,0,0,2131041,0,3161141,0,11711819,0,0,1040130,0,0,4180060,4070151,11711619,10101219,10201209,0,3010180,40201709,-3191181,10900919,0,40700309,11710719,0,0,0,0,0,0,30310219,20600919,0
13,105,757.013660251687,1,0,32617.3106259054,32618.3577039362,0,15,5,1,1,27,5,25692179,45441589,37083570,45764990,0,0,3121120,0,0,21501009,0,0,1070050,1170080,0,0,4071190,0,0,0,40200319,0,31811409,0,3171070,0,0,0,0,0,-2101091,4031111,0,10701809,1020061,0,0,0,0,30012009
13,106,597.896206352743,1,0,32620.2048767444,32621.2519701737,0,15,5,1,1,28,20,115457076,239038083,80447288,119337798,21401909,0,0,0,3131111,20201019,10011709,20710919,40000409,31200909,31701709,0,41811509,0,31700919,30901209,40610009,31111819,0,40011819,11001919,11801219,3120091,1001131,2000090,11511019,0,-3110170,41000209,10911719,3021041,31711709,4170131,4101010,0,21311809
13,107,1156.04879410239,1,0,32622.9107892829,32623.9578750129,0,15,5,1,1,31,20,174545793,78885528,111937266,100978608,30810619,31700419,0,21311509,30200419,20110509,10001709,0,30410609,0,41310419,0,11110009,11311019,10811709,0,2141201,2201171,0,11600809,11001809,0,41401719,22001209,1181170,4040041,20710509,10702019,1060101,20601509,-1000121,2151180,2161160,21401809,41900709,0
13,108,457.819306553574,1,0,32626.3108919134,32627.3579657097,0,15,5,0,1,21,0,1010160,6172301,9461442,0,0,0,0,1010160,0,0,0,0,0,0,0,0,1071151,3071050,2030100,0,0,0,0,2130170,-4131110,0,0,1180081,0,2020081,0,0,0,0,0,0,0,0,0,0
13,109,657.827698698384,0,0,32628.9697830103,32630.0168641208,0,15,5,1,0,29,0,6032361,2041110,4161192,7402050,3021161,0,0,0,0,0,0,3011200,0,2041110,0,0,0,0,0,0,0,0,0,0,0,0,3130031,0,0,1031161,0,0,-3081000,3161010,0,0,0,0,0,1160040
13,110,735.932043138746,0,0,32631.8875118484,32632.9345910341,0,15,5,1,0,17,20,88185945,63673190,132898935,191597414,1100180,11200209,12000819,21702019,0,11100409,30011209,0,1071100,0,0,40410009,4171141,0,0,10810809,-4170100,4111131,0,20900419,4200180,11911809,21310719,20501019,3071061,40202019,10801709,10901909,30810719,21810309,4071001,10300719,0,41800319,41101819,30800619
13,111,1323.05371313123,1,0,32634.6875973867,32635.7347142986,0,15,5,0,1,4,10,70443600,47374188,45444217,107673428,0,4191071,1111180,-3001040,40110219,1130071,0,0,20900019,21311209,1171040,21800819,0,3091120,0,0,0,0,0,0,21211819,11810709,11410509,1011180,0,0,0,0,41611219,0,31610119,31311009,0,0,3141081,0
13,112,873.967494964745,0,0,32638.2407189197,32639.2877865566,0,15,5,0,0,24,0,8341231,1040151,5100161,8121251,0,0,4090030,0,0,2151160,2100041,0,0,0,0,0,1040151,0,0,0,0,0,0,3050061,0,0,0,-2050100,0,0,0,0,4070111,0,0,0,0,0,4051140,0
13,113,1983.97894370282,0,0,32641.2054360927,32642.2525087341,0,15,5,0,0,34,10,60686230,117114816,37072331,47974587,4081091,1001001,0,0,3091200,41901619,0,0,10611319,4191170,30311809,11310609,31201119,0,40100109,0,0,0,0,0,0,3100121,0,30812009,0,0,3160201,20411209,0,10111609,0,11200719,0,-3181000,3070050,0
13,114,692.532314304117,1,0,32645.4408466497,32646.48793007,0,15,5,0,1,16,20,166126656,130402959,126342736,119826095,41711119,1010161,11810509,10710419,4180021,31902019,30410919,3191170,31200319,0,30010809,10510509,1070071,0,4121091,-2190141,41500219,41000119,10500209,0,40110809,0,0,0,31710419,40010219,4011080,2010111,21600419,0,10011919,10901109,31800719,21900509,21601309,0
13,115,544.995640997513,0,0,32648.2174002944,32649.2644856395,0,15,5,1,0,35,0,3251201,4190131,5202080,6371322,0,0,1171040,0,0,0,0,2080161,0,0,0,0,0,0,0,0,0,4190131,0,0,0,0,2011040,3191040,0,0,0,0,1160111,0,0,1020110,0,0,-4191101,0
13,116,948.735767713515,0,0,32651.0057148814,32652.0527975318,0,15,5,1,0,18,10,85095088,46813772,74012877,101685330,0,40301909,0,0,0,1191051,22001619,0,21600509,40510409,0,0,0,0,0,1061081,3061131,-2181151,0,20000819,0,3201040,0,30500509,20310509,0,0,0,1130001,3111021,41311919,0,40611009,11501309,4020071,0
13,117,2268.50897951226,0,1,32654.099921373,32655.1470082579,0,15,5,0,1,12,5,6102021,12271261,46892968,38064140,4051001,0,0,0,0,2051020,0,0,0,0,0,-4101100,0,0,4150061,4020100,0,0,3070141,20510409,12001309,0,11311109,0,0,0,0,2040191,0,0,21311319,0,0,0,3111011,11601619
13,118,1321.2809679062,0,1,32658.452983314,32659.5000682741,0,15,5,0,1,20,0,8401111,4041021,6272271,5181121,0,0,0,4201040,4200071,0,0,0,0,4041021,0,0,0,0,0,0,0,0,0,-4181070,0,0,1000200,0,0,1091001,0,3091070,0,0,0,0,2090051,0,0,0
13,119,2264.46226988628,1,1,32661.8648438072,32662.9119337718,0,15,5,1,0,13,0,1041070,5140361,10221131,8110251,0,0,0,0,0,0,0,1041070,0,0,2130180,0,-3010181,0,0,0,0,0,0,4040080,2170051,4011000,0,0,0,0,0,0,4010160,0,0,0,0,0,0,4100091
13,120,945.582937441941,1,1,32666.2767454912,32667.3238277566,0,15,5,0,0,19,10,75112537,117163997,58525241,67692869,0,0,0,0,11701009,31410019,32001509,0,0,0,0,1090110,0,2151150,0,31910109,40201409,41811219,-4110161,0,11101919,4101111,32001009,4120000,0,3091041,0,0,0,0,0,0,20700509,4070040,41801219,1121101
13,121,970.804039770883,0,1,32681.2183865644,32682.2654345683,0,15,6,1,1,18,10,85095088,46813772,74012877,101685330,0,40301909,0,0,0,1191051,22001619,0,21600509,40510409,0,0,0,0,0,1061081,3061131,-2181151,0,20000819,0,3201040,0,30500509,20310509,0,0,0,1130001,3111021,41311919,0,40611009,11501309,4020071,0
13,122,1442.79043062852,0,1,32684.3243436043,32685.3714089314,0,15,6,1,1,31,20,174545793,78885528,111937266,100978608,30810619,31700419,0,21311509,30200419,20110509,10001709,0,30410609,0,41310419,0,11110009,11311019,10811709,0,2141201,2201171,0,11600809,11001809,0,41401719,22001209,1181170,4040041,20710509,10702019,1060101,20601509,-1000121,2151180,2161160,21401809,41900709,0
13,123,1670.54603893121,1,0,32687.8773635076,32688.9244515474,0,15,6,0,1,7,5,9172391,15822060,45003208,39001469,1041110,0,0,4091100,0,0,-4040181,0,0,0,0,11611919,0,0,0,1190091,3020050,0,0,21411419,0,0,0,20400719,0,3191070,0,3060200,0,0,21410819,4020141,0,0,0,10510309
13,124,1077.33082188861,1,0,32691.6186504936,32692.6657342989,0,15,6,1,1,29,0,6032361,2041110,4161192,7402050,3021161,0,0,0,0,0,0,3011200,0,2041110,0,0,0,0,0,0,0,0,0,0,0,0,3130031,0,0,1031161,0,0,-3081000,3161010,0,0,0,0,0,1160040
13,125,813.186008814228,1,0,32694.759924622,32695.8070022679,0,15,6,1,1,27,5,25692179,45441589,37083570,45764990,0,0,3121120,0,0,21501009,0,0,1070050,1170080,0,0,4071190,0,0,0,40200319,0,31811409,0,3171070,0,0,0,0,0,-2101091,4031111,0,10701809,1020061,0,0,0,0,30012009
13,126,795.00738230854,0,0,32697.8071073622,32698.8541545962,0,15,6,0,0,12,5,7341432,37241480,108444018,33463021,0,0,0,1090180,2050131,0,4201121,0,0,0,30010409,-3180070,0,0,4051001,0,0,0,3120081,22011419,41610909,0,41701609,0,0,0,0,0,1130031,0,0,2031181,0,0,0,30301809
13,127,1849.25954559731,1,1,32700.6777450809,32701.724820032,0,15,6,1,0,30,5,4181020,38402748,19615001,80153320,0,0,0,0,0,0,4181020,0,0,4081020,0,0,11600219,0,0,20601419,2120090,0,0,0,11301709,2071160,0,0,0,3121041,3121091,0,3060041,-4181141,41811619,31100519,0,0,0,0
13,128,2632.61622039499,1,0,32704.7602056435,32705.8072956081,0,15,6,1,1,13,0,1041070,5140361,10221131,8110251,0,0,0,0,0,0,0,1041070,0,0,2130180,0,-3010181,0,0,0,0,0,0,4040080,2170051,4011000,0,0,0,0,0,0,4010160,0,0,0,0,0,0,4100091
13,129,692.88878815496,0,0,32709.5368220369,32710.5839027624,0,15,6,0,0,21,20,149774756,149867074,87276888,146776846,40901019,30410009,0,1200141,0,4140050,31511209,30101919,11510409,10601719,42010709,10300809,41901909,30910919,0,0,4130200,10010809,2141030,11411309,-1150051,11701609,11911119,0,4160021,41600609,3201140,20511319,30610309,0,0,1141181,41001019,31611009,21902009,0
13,130,1227.28274026304,0,0,32712.3133756816,32713.3604452432,0,15,6,1,0,35,0,3251201,4190131,5202080,6371322,0,0,1171040,0,0,0,0,2080161,0,0,0,0,0,0,0,0,0,4190131,0,0,0,0,2011040,3191040,0,0,0,0,1160111,0,0,1020110,0,0,-4191101,0
13,131,975.36236250744,0,0,32715.7605332453,32716.807612431,0,15,6,1,0,17,20,88185945,63673190,132898935,191597414,1100180,11200209,12000819,21702019,0,11100409,30011209,0,1071100,0,0,40410009,4171141,0,0,10810809,-4170100,4111131,0,20900419,4200180,11911809,21310719,20501019,3071061,40202019,10801709,10901909,30810719,21810309,4071001,10300719,0,41800319,41101819,30800619
13,132,843.264548551815,1,0,32718.972389581,32720.0194699215,0,15,6,0,1,8,10,107694219,45773329,102934956,21234240,4201011,0,10100619,41010419,0,4060171,3200020,-4020170,41101809,0,0,0,0,11501719,0,30100609,4171001,0,20010909,0,20311119,0,21110919,0,41502009,0,0,0,4011090,0,4181091,0,0,0,11010919,2031140
13,133,1010.24713984589,0,0,32721.9254177994,32722.97249814,0,15,6,0,0,24,5,6113261,15311400,64535119,30503738,0,0,0,3021110,2001030,0,1091121,0,0,0,0,4041021,0,0,1060170,0,10210209,0,0,0,4201011,11501219,0,-4191010,0,3041060,41600819,0,10402019,0,0,0,20101719,0,0,0
13,134,946.326297060295,0,0,32725.0902145823,32726.1372899184,0,15,6,0,0,4,10,81153528,47046497,27485190,73034928,0,0,0,-1030091,10100919,30011409,0,0,40011109,0,0,21001009,0,10311809,3131120,10501409,0,2101150,0,1081121,11000319,2021120,0,1041200,0,10200309,2141121,1011190,0,0,0,0,0,41412019,30611719,0
13,135,1727.51294691989,0,0,32728.1020648356,32729.1491463311,0,15,6,0,0,34,0,5201161,9122263,2031200,5192091,0,4031150,0,0,0,1170011,0,0,0,4011141,0,0,0,0,1010061,0,4101061,0,0,0,0,2031200,0,0,0,0,0,0,0,3061040,0,0,0,-2131051,0,0
13,136,1196.67449424742,1,0,32731.9609939666,32733.0080820064,0,15,6,0,1,5,20,110407447,151085945,168336486,110714906,10001119,0,4070180,0,-3121121,41001509,41211509,0,11002009,11810119,4141091,40011409,0,2010160,20701119,20110419,11400919,40900709,10801309,31910419,41210209,1041180,0,1061151,40901509,41410709,0,30010009,0,10500209,11900419,41601919,4161071,1140160,11401119,0
13,137,810.448936379544,0,0,32735.3610962122,32736.4081796325,0,15,6,1,0,23,10,21085011,31103179,119916226,50911138,0,4081010,0,0,2131041,0,3161141,0,11711819,0,0,1040130,0,0,4180060,4070151,11711619,10101219,10201209,0,3010180,40201709,-3191181,10900919,0,40700309,11710719,0,0,0,0,0,0,30310219,20600919,0
13,138,727.558372313069,1,0,32738.2671091485,32739.3141521478,0,15,6,0,1,20,0,4080010,2041200,10531352,3231362,0,4080010,0,0,0,0,0,0,0,0,0,0,2041200,0,0,0,0,0,0,-3080030,0,1120070,0,0,3160161,3171091,0,0,0,1110201,0,0,0,0,2121161,0
13,139,660.116676572216,0,0,32741.1024428673,32742.1495170485,0,15,6,0,0,16,10,23293199,55385957,68083037,67624838,12001009,3031100,4180010,0,0,0,0,0,4081080,21401619,0,0,0,20801809,0,-2171110,11011419,0,0,10610119,31500119,21810619,0,1061130,3101050,0,0,3000200,10801019,20401609,0,0,31402009,0,0,2020001
13,140,687.198680188885,1,0,32744.0084092232,32745.0554803247,0,15,6,1,1,22,10,81364318,53296839,104261787,42823801,0,30500919,4100121,11910319,30711819,0,0,0,4141140,4141191,11512019,10811009,0,0,4090001,0,2041200,20701419,0,21310609,0,-1041060,0,0,40310009,0,41600109,0,0,0,40611609,0,1111051,0,0,1101141
13,141,1196.81808468522,0,0,32746.7967426733,32747.8438060756,0,15,6,0,0,14,20,118184446,41781309,178226124,142106335,1140131,11700319,4011120,0,0,30111519,20410419,30110519,20700419,21810409,0,0,0,-3180100,4200121,10510509,2080170,0,21700519,0,10810309,41700419,1170131,20311609,31110709,30611719,20810709,10011319,21100309,21800509,0,30910709,4161051,1010110,41801509,11310819
13,142,1032.47440078121,0,0,32750.043871057,32751.0909579419,0,15,6,0,0,19,0,6092142,3090020,5480290,4160312,0,0,0,2081051,0,0,0,4011091,0,0,0,0,3090020,0,0,0,0,0,-2190160,0,0,2160050,0,1130080,0,0,0,0,3050141,0,0,0,0,0,0,1110171
13,143,2036.41601605705,0,0,32753.1498438803,32754.1969273006,0,15,6,1,0,6,5,6281291,24511700,30301529,84025968,0,0,0,4131141,0,-2150150,0,0,0,3061170,0,0,0,0,0,20310409,0,1140121,0,0,0,0,22000219,0,3100100,2200100,3001110,41001609,0,0,1101041,30011309,0,11912009,0,0
13,144,707.960394745896,1,0,32757.4323209193,32758.4794051095,0,15,6,1,1,28,20,115457076,239038083,80447288,119337798,21401909,0,0,0,3131111,20201019,10011709,20710919,40000409,31200909,31701709,0,41811509,0,31700919,30901209,40610009,31111819,0,40011819,11001919,11801219,3120091,1001131,2000090,11511019,0,-3110170,41000209,10911719,3021041,31711709,4170131,4101010,0,21311809
13,145,812.687869336514,1,0,32774.6916429415,32775.7387302114,0,15,7,1,1,13,0,1041070,5140361,10221131,8110251,0,0,0,0,0,0,0,1041070,0,0,2130180,0,-3010181,0,0,0,0,0,0,4040080,2170051,4011000,0,0,0,0,0,0,4010160,0,0,0,0,0,0,4100091
13,146,1705.73763015273,1,0,32777.7505589068,32778.797642712,0,15,7,0,1,12,5,12302670,33711640,43012228,52643703,1180111,0,0,0,0,10001519,0,1121040,0,0,0,-2110131,0,0,0,0,31601509,0,0,0,31101309,0,0,0,0,11910919,0,3070140,0,3141081,3061121,41210219,0,1021121,0,1140021
13,147,1510.45001426974,0,0,32781.6447897279,32782.6918712233,0,15,7,0,0,5,5,6251180,23235241,41723069,43621977,0,0,0,2061160,-4190020,0,0,0,0,1101000,0,0,4151191,0,10811909,4031110,3140031,0,1011150,0,0,0,0,0,0,0,40711919,1190150,0,0,10310809,0,0,21010509,0,11110509
13,148,853.931816782278,0,0,32785.2801839625,32786.327334751,0,15,7,1,0,29,0,6032361,2041110,4161192,7402050,3021161,0,0,0,0,0,0,3011200,0,2041110,0,0,0,0,0,0,0,0,0,0,0,0,3130031,0,0,1031161,0,0,-3081000,3161010,0,0,0,0,0,1160040
13,149,881.0396127883,1,0,32788.3391022376,32789.3861871977,0,15,7,1,1,28,20,115457076,239038083,80447288,119337798,21401909,0,0,0,3131111,20201019,10011709,20710919,40000409,31200909,31701709,0,41811509,0,31700919,30901209,40610009,31111819,0,40011819,11001919,11801219,3120091,1001131,2000090,11511019,0,-3110170,41000209,10911719,3021041,31711709,4170131,4101010,0,21311809
13,150,1277.26953610545,0,0,32791.4686061846,32792.5156876801,0,15,7,1,0,23,10,21085011,31103179,119916226,50911138,0,4081010,0,0,2131041,0,3161141,0,11711819,0,0,1040130,0,0,4180060,4070151,11711619,10101219,10201209,0,3010180,40201709,-3191181,10900919,0,40700309,11710719,0,0,0,0,0,0,30310219,20600919,0
13,151,1365.86676145816,1,0,32794.845172687,32795.8922572622,0,15,7,0,1,19,10,13731519,98362106,90084057,15391591,0,2021000,0,0,0,11710519,0,0,0,0,31900419,0,2040050,0,22000519,0,30710109,11711009,-2130070,11311209,31600419,20312019,20600209,0,2100010,0,2030121,0,1040100,1161011,0,0,0,2090061,11100419,0
13,152,1120.25897354761,1,0,32798.3277116278,32799.374706507,0,15,7,1,1,35,0,3251201,4190131,5202080,6371322,0,0,1171040,0,0,0,0,2080161,0,0,0,0,0,0,0,0,0,4190131,0,0,0,0,2011040,3191040,0,0,0,0,1160111,0,0,1020110,0,0,-4191101,0
13,153,1512.10072687536,1,0,32801.6806596203,32802.7277430406,0,15,7,0,1,4,0,4250260,5151180,6230091,6200111,0,0,0,-2110070,2140190,0,0,0,0,0,0,2120140,0,0,3031040,0,0,0,0,2110010,0,0,0,0,0,4120081,0,0,0,0,0,0,4190091,2010020,0,0
13,154,718.344716675347,1,0,32805.3395930629,32806.3866710937,0,15,7,0,1,16,20,109337448,151106205,113287678,93316986,40901809,0,4101081,41001009,2121031,10700909,10511609,0,0,0,20401609,22001219,21511009,0,12000109,-3180131,40301119,31711009,3021091,20101319,0,30511709,2011141,11800119,4141081,31101109,10600109,21301109,22000419,10701109,4191040,20610109,4111191,10402009,0,0
13,155,1299.27967906406,1,0,32808.1984967864,32809.2455821315,0,15,7,1,1,27,5,25692179,45441589,37083570,45764990,0,0,3121120,0,0,21501009,0,0,1070050,1170080,0,0,4071190,0,0,0,40200319,0,31811409,0,3171070,0,0,0,0,0,-2101091,4031111,0,10701809,1020061,0,0,0,0,30012009
13,156,841.622690051736,0,0,32811.7044844692,32812.7633303717,0,15,7,1,0,22,10,81364318,53296839,104261787,42823801,0,30500919,4100121,11910319,30711819,0,0,0,4141140,4141191,11512019,10811009,0,0,4090001,0,2041200,20701419,0,21310609,0,-1041060,0,0,40310009,0,41600109,0,0,0,40611609,0,1111051,0,0,1101141
13,157,956.004600586311,0,0,32814.6928028289,32815.7399282099,0,15,7,0,0,24,5,31803338,48234848,6222222,14782799,10602019,0,0,0,0,21201319,0,0,0,30900609,0,1081190,0,10201909,3010030,0,3041110,0,0,0,0,0,0,-2051131,4171091,0,0,0,0,0,0,0,1011170,2000120,1060190,10711319
13,158,2169.10128045129,0,0,32817.9046553149,32818.95174066,0,15,7,0,0,7,0,10182302,4041061,1071180,10141370,0,0,4061101,4040060,0,0,-2081141,0,0,0,0,0,0,0,0,0,4041061,0,0,0,0,0,0,0,0,0,1071180,0,3080190,0,0,0,3000020,0,0,4061160
13,159,1220.35652265913,0,0,32822.2224325041,32823.2695143845,0,15,7,1,0,18,10,85095088,46813772,74012877,101685330,0,40301909,0,0,0,1191051,22001619,0,21600509,40510409,0,0,0,0,0,1061081,3061131,-2181151,0,20000819,0,3201040,0,30500509,20310509,0,0,0,1130001,3111021,41311919,0,40611009,11501309,4020071,0
13,160,815.838774797157,1,0,32825.551966786,32826.5990182546,0,15,7,0,1,21,20,200968146,79545745,117995897,150915426,3041161,30810519,20810919,0,31900219,40001209,41111419,2191081,31101619,10501219,11111719,31400909,0,11000109,2181190,3150190,10200409,0,2031140,30610109,-3141101,20810409,0,20301319,41101819,0,0,10400009,2201081,0,0,20510809,2080090,42012009,31710319,42001109
13,161,669.679106853437,1,0,32828.6108789018,32829.6579319101,0,15,7,0,1,20,20,168336093,89415147,74686620,192029155,20710609,0,12000919,20100719,31410509,31901719,0,41000709,11210909,0,4041021,21811609,0,10800619,10011309,30500509,11200019,1050061,0,-4051170,4181070,4161061,0,31011419,30100719,0,1181181,0,31701809,31811819,40610209,40401609,2031131,10100819,4071140,31300619
13,162,910.407899544225,0,0,32831.3521127632,32832.3991954136,0,15,7,0,0,8,10,130646748,76212418,48723530,98935008,0,41301719,21510419,0,0,3061121,21701619,-1061161,42010709,0,0,31111319,3091080,0,0,42010019,0,0,0,0,0,40400319,2081061,0,4181130,0,2061020,41802009,2011180,20300209,0,0,0,31810409,3011201,0
13,163,1511.89631260786,0,0,32834.3757512911,32835.4228123836,0,15,7,1,0,31,20,174545793,78885528,111937266,100978608,30810619,31700419,0,21311509,30200419,20110509,10001709,0,30410609,0,41310419,0,11110009,11311019,10811709,0,2141201,2201171,0,11600809,11001809,0,41401719,22001209,1181170,4040041,20710509,10702019,1060101,20601509,-1000121,2151180,2161160,21401809,41900709,0
13,164,1337.98673377896,0,0,32837.9875924592,32839.0347128358,0,15,7,1,0,17,20,88185945,63673190,132898935,191597414,1100180,11200209,12000819,21702019,0,11100409,30011209,0,1071100,0,0,40410009,4171141,0,0,10810809,-4170100,4111131,0,20900419,4200180,11911809,21310719,20501019,3071061,40202019,10801709,10901909,30810719,21810309,4071001,10300719,0,41800319,41101819,30800619
13,165,939.890904679487,1,0,32841.4348073822,32842.4818322884,0,15,7,0,1,14,10,41143290,104887440,42221038,73576127,21510809,4031141,0,0,0,11300209,0,3190020,1111111,4051061,3041061,0,0,-1001201,3180080,41601619,11601809,40410609,20910019,0,0,0,21311019,0,0,0,0,1061090,21801609,0,0,0,0,10101709,0,40611719
13,166,1156.72363066551,0,0,32844.4936648334,32845.5407478687,0,15,7,0,0,34,0,12203342,0,12204313,2101120,0,0,4041120,4101161,0,0,4061061,0,0,0,0,0,0,0,0,0,0,0,0,0,0,0,4001021,0,4011141,2031111,2161040,0,0,0,0,0,0,-2101120,0,0
13,167,1547.37046517403,0,0,32847.8349415796,32848.8820207653,0,15,7,1,0,6,5,6281291,24511700,30301529,84025968,0,0,0,4131141,0,-2150150,0,0,0,3061170,0,0,0,0,0,20310409,0,1140121,0,0,0,0,22000219,0,3100100,2200100,3001110,41001609,0,0,1101041,30011309,0,11912009,0,0
13,168,1703.94140230928,0,0,32851.6115183219,32852.6586028971,0,15,7,1,0,30,5,4181020,38402748,19615001,80153320,0,0,0,0,0,0,4181020,0,0,4081020,0,0,11600219,0,0,20601419,2120090,0,0,0,11301709,2071160,0,0,0,3121041,3121091,0,3060041,-4181141,41811619,31100519,0,0,0,0
13,169,1071.88939870684,0,0,32858.823508624,32859.8706224562,0,15,8,1,0,35,0,3251201,4190131,5202080,6371322,0,0,1171040,0,0,0,0,2080161,0,0,0,0,0,0,0,0,0,4190131,0,0,0,0,2011040,3191040,0,0,0,0,1160111,0,0,1020110,0,0,-4191101,0
13,170,947.3999531765,0,0,32861.96475696,32863.0118346058,0,15,8,1,0,27,5,25692179,45441589,37083570,45764990,0,0,3121120,0,0,21501009,0,0,1070050,1170080,0,0,4071190,0,0,0,40200319,0,31811409,0,3171070,0,0,0,0,0,-2101091,4031111,0,10701809,1020061,0,0,0,0,30012009
13,171,819.017012494442,1,0,32864.9883781646,32866.0354611999,0,15,8,1,1,29,0,6032361,2041110,4161192,7402050,3021161,0,0,0,0,0,0,3011200,0,2041110,0,0,0,0,0,0,0,0,0,0,0,0,3130031,0,0,1031161,0,0,-3081000,3161010,0,0,0,0,0,1160040
13,172,1345.06193127891,0,0,32867.9414167769,32868.9885306091,0,15,8,0,0,5,10,97738816,95844027,11324341,24180959,11711519,0,21501919,41700409,-2201041,10311919,10312009,0,0,0,30301119,4110061,30210519,0,0,0,10610419,20611909,0,0,4031091,3051060,0,0,0,1091080,3151110,0,0,0,3060170,0,0,0,1010070,20110719
13,173,970.282802634756,1,0,32871.3767926104,32872.4238783405,0,15,8,1,1,30,5,4181020,38402748,19615001,80153320,0,0,0,0,0,0,4181020,0,0,4081020,0,0,11600219,0,0,20601419,2120090,0,0,0,11301709,2071160,0,0,0,3121041,3121091,0,3060041,-4181141,41811619,31100519,0,0,0,0
13,174,1432.60705833382,0,0,32874.588649716,32875.6357354461,0,15,8,1,0,31,20,174545793,78885528,111937266,100978608,30810619,31700419,0,21311509,30200419,20110509,10001709,0,30410609,0,41310419,0,11110009,11311019,10811709,0,2141201,2201171,0,11600809,11001809,0,41401719,22001209,1181170,4040041,20710509,10702019,1060101,20601509,-1000121,2151180,2161160,21401809,41900709,0
13,175,870.169855086715,1,0,32878.2711038883,32879.3181880785,0,15,8,1,1,22,10,81364318,53296839,104261787,42823801,0,30500919,4100121,11910319,30711819,0,0,0,4141140,4141191,11512019,10811009,0,0,4090001,0,2041200,20701419,0,21310609,0,-1041060,0,0,40310009,0,41600109,0,0,0,40611609,0,1111051,0,0,1101141
13,176,779.5238674953,1,0,32881.3064918097,32882.3535663758,0,15,8,0,1,24,20,208419883,75522456,109398718,123574189,20310719,11801709,40011219,22001819,1160161,30411819,30701319,41110409,10910709,0,11301619,11100219,0,41910509,0,0,0,11210109,41210519,12001309,4160181,11711909,2131101,-4101201,2070080,11700609,20311809,40400919,31001019,42001009,0,3130121,3001111,0,0,4040010
13,177,626.494571195508,0,0,32884.1536292015,32885.2007126217,0,15,8,1,0,28,20,115457076,239038083,80447288,119337798,21401909,0,0,0,3131111,20201019,10011709,20710919,40000409,31200909,31701709,0,41811509,0,31700919,30901209,40610009,31111819,0,40011819,11001919,11801219,3120091,1001131,2000090,11511019,0,-3110170,41000209,10911719,3021041,31711709,4170131,4101010,0,21311809
13,178,1620.04993974551,0,0,32886.883117519,32887.9302186475,0,15,8,0,0,34,10,118888236,68151839,44811909,37874660,31811919,0,0,31400309,11312009,21901519,20411409,2051071,0,0,2100190,0,0,40210009,0,21610419,1170200,3061021,0,0,0,0,0,0,4111100,40700809,0,0,1021031,11101019,0,3001161,0,-2151140,0,20600309
13,179,1249.44070822676,1,0,32890.5655763109,32891.6126620409,0,15,8,0,1,19,5,63054579,5220321,16311460,41710119,0,4141080,2000181,0,11000019,31711319,4090161,10111819,0,0,0,0,0,0,0,4190170,1030151,0,-3120070,0,0,0,2191041,0,1000140,0,10000209,0,0,0,0,0,0,0,41710119,0
13,180,671.956920858065,0,0,32894.0480371045,32895.095157866,0,15,8,0,0,16,0,6321280,4340391,4160200,1130090,0,0,0,3180150,3141130,0,0,0,0,2200140,0,0,0,0,0,-1020051,0,1120200,0,0,0,3150120,1010080,0,0,0,0,1130090,0,0,0,0,0,0,0,0
13,181,617.40756771178,1,0,32896.9304761864,32897.9775519074,0,15,8,0,1,21,10,27051870,77693738,78133419,85485296,0,0,3101101,2150150,0,0,0,0,21800619,40311609,3150170,11211519,0,0,0,2120131,20900309,0,2130010,2000150,-1191131,31511219,0,41300909,0,0,0,40711019,10411109,0,0,0,2040050,20711209,11611909,0
13,182,897.962496637774,0,0,32899.7658480163,32900.8129306667,0,15,8,0,0,7,20,161399967,79054178,139166236,205343894,1120031,11411819,40800019,20501719,20412009,3081171,-2071071,20800109,41202019,1190040,20412009,3020120,0,10300719,0,40011219,4120071,0,0,40011519,0,4100161,21211019,20211609,41301719,11310119,1020090,40101909,0,31210019,31111309,40710019,0,0,20600419,41610219
13,183,553.565641923342,1,0,32902.7424081284,32903.7894907787,0,15,8,0,1,14,0,3080111,8333251,0,11350082,3080111,0,0,0,0,0,0,0,0,1001091,0,0,4141010,-1170130,0,2021020,0,0,0,0,0,0,0,0,0,0,0,0,0,4150041,0,0,0,0,3150000,4050041
13,184,660.726839705603,0,0,32905.4130740262,32906.4601628359,0,15,8,1,0,13,0,1041070,5140361,10221131,8110251,0,0,0,0,0,0,0,1041070,0,0,2130180,0,-3010181,0,0,0,0,0,0,4040080,2170051,4011000,0,0,0,0,0,0,4010160,0,0,0,0,0,0,4100091
13,185,859.038708891603,0,0,32908.2366787544,32909.2837698739,0,15,8,1,0,17,20,88185945,63673190,132898935,191597414,1100180,11200209,12000819,21702019,0,11100409,30011209,0,1071100,0,0,40410009,4171141,0,0,10810809,-4170100,4111131,0,20900419,4200180,11911809,21310719,20501019,3071061,40202019,10801709,10901909,30810719,21810309,4071001,10300719,0,41800319,41101819,30800619
13,186,546.48082039057,0,0,32911.1544152917,32912.2014937075,0,15,8,0,0,20,5,52064080,45001569,27303270,42170920,0,3051190,0,4071001,3050021,0,1171030,20010019,20710819,0,0,0,0,0,3000060,42001509,0,0,0,-3041010,0,0,4151141,0,20111119,0,0,0,2070011,0,0,0,0,0,0,40100909
13,187,1021.45874287817,0,0,32913.766256075,32914.8133344907,0,15,8,1,0,18,10,85095088,46813772,74012877,101685330,0,40301909,0,0,0,1191051,22001619,0,21600509,40510409,0,0,0,0,0,1061081,3061131,-2181151,0,20000819,0,3201040,0,30500509,20310509,0,0,0,1130001,3111021,41311919,0,40611009,11501309,4020071,0
13,188,1203.46636048635,1,0,32917.0251738881,32918.0722553836,0,15,8,1,1,6,5,6281291,24511700,30301529,84025968,0,0,0,4131141,0,-2150150,0,0,0,3061170,0,0,0,0,0,20310409,0,1140121,0,0,0,0,22000219,0,3100100,2200100,3001110,41001609,0,0,1101041,30011309,0,11912009,0,0
13,189,823.183829939808,1,0,32920.3076155107,32921.3547039355,0,15,8,0,1,12,0,5181291,10310391,4190121,3210222,4181130,0,0,0,0,0,0,0,1000161,0,3040151,-4110040,0,0,0,3160200,0,0,4190121,0,0,0,0,0,0,0,0,0,2110101,0,0,1100121,0,0,0,0
13,190,1636.2899028536,1,0,32923.2253505082,32924.2724323886,0,15,8,0,1,4,20,140256705,180547836,112776597,90096556,40711709,10310919,22000509,-1141070,4181180,0,0,40211109,21700209,41111819,0,31501209,40900509,21101119,30901709,1040131,10901309,3090031,0,31811809,0,4131081,11411009,2110070,0,21711219,41601409,0,11601609,10810419,2071041,2090150,11311319,30211509,22000509,0
13,191,540.864624934329,0,0,32927.0136955071,32928.060773153,0,15,8,0,0,8,5,13373462,16791390,64353889,64503469,3061170,4181151,0,0,3050041,0,0,-3081100,0,0,10600209,0,0,0,0,4041081,2150100,0,21511709,0,41711109,0,0,0,1131071,0,0,0,30401019,0,3001031,0,0,31101419,0,0
13,192,878.482317115413,1,0,32929.7902468421,32930.8373314172,0,15,8,1,1,23,10,21085011,31103179,119916226,50911138,0,4081010,0,0,2131041,0,3161141,0,11711819,0,0,1040130,0,0,4180060,4070151,11711619,10101219,10201209,0,3010180,40201709,-3191181,10900919,0,40700309,11710719,0,0,0,0,0,0,30310219,20600919,0
13,193,796.648855844978,0,0,32943.6729996671,32944.7200846272,0,15,9,1,0,17,20,88185945,63673190,132898935,191597414,1100180,11200209,12000819,21702019,0,11100409,30011209,0,1071100,0,0,40410009,4171141,0,0,10810809,-4170100,4111131,0,20900419,4200180,11911809,21310719,20501019,3071061,40202019,10801709,10901909,30810719,21810309,4071001,10300719,0,41800319,41101819,30800619
13,194,1033.06146624527,0,0,32946.6496240676,32947.6966397348,0,15,9,0,0,5,20,150365547,74576109,152147554,186357293,40610209,40200909,0,4170130,-1191201,20110209,40001709,4081180,0,21611719,1031021,2130180,11401119,0,4040050,30311009,4051011,0,4101180,10811109,40510209,31511809,11801319,21901609,0,31510319,0,30210009,0,41201509,41111209,21000619,11011819,21011009,20811119,0
13,195,1370.94054692716,1,0,32949.814357332,32950.8614311283,0,15,9,1,1,31,20,174545793,78885528,111937266,100978608,30810619,31700419,0,21311509,30200419,20110509,10001709,0,30410609,0,41310419,0,11110009,11311019,10811709,0,2141201,2201171,0,11600809,11001809,0,41401719,22001209,1181170,4040041,20710509,10702019,1060101,20601509,-1000121,2151180,2161160,21401809,41900709,0
13,196,649.819740792736,0,0,32953.2615668655,32954.3085998559,0,15,9,0,0,8,5,14041890,45472348,66653449,10402392,0,10911809,0,0,0,0,0,-3130081,0,11210009,0,0,1151150,31000009,0,2111180,0,0,0,3131021,31711219,0,31811209,0,0,0,0,1150170,0,1070141,0,0,0,0,4001020,4181061
13,197,667.743523139507,0,0,32956.0616023589,32957.1086711507,0,15,9,0,0,7,10,8191311,80276278,131144576,77203718,0,0,0,0,0,0,-4021131,4170180,0,0,3180060,0,31901619,0,1030140,4051131,20111519,20001809,4060000,31410419,40602019,0,0,2150110,31711319,21210709,0,31701719,0,3081171,20910119,0,21510709,0,0,0
13,198,782.245926449832,0,0,32958.9322627902,32959.979341591,0,15,9,1,0,22,10,81364318,53296839,104261787,42823801,0,30500919,4100121,11910319,30711819,0,0,0,4141140,4141191,11512019,10811009,0,0,4090001,0,2041200,20701419,0,21310609,0,-1041060,0,0,40310009,0,41600109,0,0,0,40611609,0,1111051,0,0,1101141
13,199,766.702357723261,1,0,32961.8147057217,32962.8617795179,0,15,9,1,1,18,10,85095088,46813772,74012877,101685330,0,40301909,0,0,0,1191051,22001619,0,21600509,40510409,0,0,0,0,0,1061081,3061131,-2181151,0,20000819,0,3201040,0,30500509,20310509,0,0,0,1130001,3111021,41311919,0,40611009,11501309,4020071,0
13,200,668.034553629695,0,0,32964.6971413389,32965.7442189847,0,15,9,0,0,24,0,7191260,6251231,7112200,6160261,0,0,0,3031160,0,0,0,0,4160100,0,0,0,3170170,0,0,0,3081061,0,0,0,0,0,0,-4051160,0,3061040,0,0,2020120,0,4140141,0,0,0,0,0
13,201,672.832322088652,1,0,32967.5795715666,32968.6266553719,0,15,9,1,1,35,0,3251201,4190131,5202080,6371322,0,0,1171040,0,0,0,0,2080161,0,0,0,0,0,0,0,0,0,4190131,0,0,0,0,2011040,3191040,0,0,0,0,1160111,0,0,1020110,0,0,-4191101,0
13,202,575.962285678543,1,0,32970.3561225166,32971.4032001625,0,15,9,0,1,16,10,127417047,29234388,101931948,35412670,30901519,0,0,0,40601919,4010191,0,11901609,40001809,4010090,0,11611109,0,0,11311919,-1161190,1140080,0,4050150,0,41000809,0,21900119,0,3180061,31800809,0,0,0,30301509,0,4110061,0,0,0,1001100
13,203,675.358820873953,0,0,32973.1797380238,32974.2268160546,0,15,9,1,0,28,20,115457076,239038083,80447288,119337798,21401909,0,0,0,3131111,20201019,10011709,20710919,40000409,31200909,31701709,0,41811509,0,31700919,30901209,40610009,31111819,0,40011819,11001919,11801219,3120091,1001131,2000090,11511019,0,-3110170,41000209,10911719,3021041,31711709,4170131,4101010,0,21311809
13,204,580.986411179765,1,0,32976.0151129334,32977.0621901943,0,15,9,0,1,19,0,6061160,4241171,3171121,5050162,0,0,0,0,3041090,0,0,0,3020070,0,0,1190141,0,0,0,0,3051030,0,-2070121,0,0,0,0,0,1101000,0,0,0,0,0,0,0,3000141,0,0,2050021
13,205,760.812070060638,1,0,32978.8152003965,32979.8623203881,0,15,9,1,1,27,5,25692179,45441589,37083570,45764990,0,0,3121120,0,0,21501009,0,0,1070050,1170080,0,0,4071190,0,0,0,40200319,0,31811409,0,3171070,0,0,0,0,0,-2101091,4031111,0,10701809,1020061,0,0,0,0,30012009
13,206,542.254718959157,1,0,32981.6388032,32982.6858877751,0,15,9,1,1,23,10,21085011,31103179,119916226,50911138,0,4081010,0,0,2131041,0,3161141,0,11711819,0,0,1040130,0,0,4180060,4070151,11711619,10101219,10201209,0,3010180,40201709,-3191181,10900919,0,40700309,11710719,0,0,0,0,0,0,30310219,20600919,0
13,207,513.781466434011,1,0,32984.4271235614,32985.4742512522,0,15,9,0,1,20,0,7162260,0,8281461,9432253,0,0,0,0,0,3001170,0,0,4161090,0,0,0,0,0,0,0,0,0,0,-3181190,0,0,2070140,0,3030131,0,0,0,0,3141081,0,0,0,3181161,3110011,0
13,208,975.340034783585,1,0,32987.1563963393,32988.2036949143,0,15,9,0,1,12,20,70946277,161848356,139798436,114222266,11711719,11010509,3200050,2141190,0,0,1181181,30801309,10900319,30710009,31300909,-3081020,11611809,40010719,2011111,21510919,1000151,20611709,22010319,0,10501409,31211909,4200091,40011109,20512019,10300519,1051061,0,0,0,20900209,0,30800319,0,41010619,21511119
13,209,1963.87859208335,1,0,32990.2273384466,32991.2743668175,0,15,9,0,1,34,5,3181291,44704310,27902401,66052939,2111090,0,0,0,0,0,0,0,1070201,30702009,10710019,1131081,2161201,0,0,0,0,0,0,20800109,0,0,0,4011091,0,0,3091201,40210009,21610619,0,2061160,0,0,-2171151,0,0
13,210,1607.63417882845,0,0,32994.3332831677,32995.380366588,0,15,9,1,0,6,5,6281291,24511700,30301529,84025968,0,0,0,4131141,0,-2150150,0,0,0,3061170,0,0,0,0,0,20310409,0,1140121,0,0,0,0,22000219,0,3100100,2200100,3001110,41001609,0,0,1101041,30011309,0,11912009,0,0
13,211,1284.78204926068,1,0,32998.0510444196,32999.0981228354,0,15,9,1,1,30,5,4181020,38402748,19615001,80153320,0,0,0,0,0,0,4181020,0,0,4081020,0,0,11600219,0,0,20601419,2120090,0,0,0,11301709,2071160,0,0,0,3121041,3121091,0,3060041,-4181141,41811619,31100519,0,0,0,0
13,212,763.797827275994,1,0,33001.5923176241,33002.6394052789,0,15,9,0,1,4,5,51104081,42642918,45441631,41372220,40710609,0,0,-3101051,1110110,4081190,2101121,0,0,0,0,0,1031200,0,0,0,31210409,10401309,3140141,0,0,0,1090071,0,41211419,0,0,0,0,0,0,0,0,1071011,0,40301209
13,213,479.014487151289,0,0,33004.4747528563,33005.5218351217,0,15,9,0,0,21,10,136135016,39471780,87633927,24040910,11510319,1111041,41911509,21001119,20200209,0,0,0,40400819,0,4011050,0,4060111,0,31400619,0,0,0,0,31610509,-1040020,21800809,0,2101190,1070190,30011209,0,0,0,0,0,0,20810709,2200040,0,1030161
13,214,659.515367558924,0,0,33007.0513011885,33008.0983792194,0,15,9,0,0,14,20,95617407,154927214,113297126,132886105,0,10411209,0,0,40301109,20411709,1201030,20101319,3191031,31210109,0,41201009,0,-1191120,20900619,20011719,10410719,30001919,3141160,1070110,41500609,0,21401709,0,11201019,3181010,31801509,20711519,3090161,31300509,11811409,11711519,41210419,2040160,11010409,0
13,215,601.519458919938,1,0,33009.9572640798,33011.0043455753,0,15,9,1,1,13,0,1041070,5140361,10221131,8110251,0,0,0,0,0,0,0,1041070,0,0,2130180,0,-3010181,0,0,0,0,0,0,4040080,2170051,4011000,0,0,0,0,0,0,4010160,0,0,0,0,0,0,4100091
13,216,1028.29103001568,0,0,33012.698530278,33013.7456044592,0,15,9,1,0,29,0,6032361,2041110,4161192,7402050,3021161,0,0,0,0,0,0,3011200,0,2041110,0,0,0,0,0,0,0,0,0,0,0,0,3130031,0,0,1031161,0,0,-3081000,3161010,0,0,0,0,0,1160040
13,217,1406.32038406329,1,0,33019.1104662236,33020.157567737,0,15,10,0,1,24,5,25782190,105403188,11503494,17032269,0,21711119,0,0,0,4071071,0,0,0,31001109,2200141,0,30301819,41900119,0,0,0,0,0,2121101,4080131,0,0,-3131071,0,0,2171191,12000109,0,0,0,2031150,0,3001010,0,0
13,218,727.512946927163,1,0,33022.7341037505,33023.7811879407,0,15,10,1,1,28,20,115457076,239038083,80447288,119337798,21401909,0,0,0,3131111,20201019,10011709,20710919,40000409,31200909,31701709,0,41811509,0,31700919,30901209,40610009,31111819,0,40011819,11001919,11801219,3120091,1001131,2000090,11511019,0,-3110170,41000209,10911719,3021041,31711709,4170131,4101010,0,21311809
13,219,775.531437371683,0,0,33025.5930155583,33026.6400974387,0,15,10,0,0,4,20,109996385,147613786,141406135,160276804,0,1170090,10500919,-2081170,30300919,21012009,4120050,30400619,10410609,3191130,20011409,0,0,0,0,40900009,42011119,41500119,0,1100040,31010619,21511319,22010319,0,21801819,2071100,41900919,11410019,31300619,40411619,31300919,2131060,2001140,21510819,20210609,0
13,220,659.016073193925,0,0,33028.5225095733,33029.569589144,0,15,10,0,0,8,5,45303539,47463069,4071122,14212950,0,0,1200201,10911919,0,0,30010419,-3181000,0,0,10510119,0,0,0,30700819,2121040,4131091,0,0,0,0,0,0,0,2020101,2051021,0,0,3111041,1090100,0,0,0,0,10011809,0
13,221,576.995135932521,0,0,33031.4167088276,33032.463800332,0,15,10,0,0,20,10,57682909,124335465,54743432,73262139,31300509,21210109,0,1081191,4091100,0,0,0,0,0,0,0,31310109,10610019,30811509,10401819,0,41202009,2190020,-3040051,0,0,4121010,2200041,41001219,2191091,0,1150111,42010209,0,0,30101819,0,0,0,0
13,222,858.674150862498,1,0,33034.0638513008,33035.110926252,0,15,10,0,1,12,5,46683709,6341312,48133641,44121459,0,4050071,0,0,20201919,1030000,0,21401719,0,0,0,-2171141,0,0,0,0,0,4170171,1051090,0,0,0,40701309,0,4180201,0,2201041,0,0,11711109,2010031,0,30400319,0,0,0
13,223,1146.14259368682,1,0,33037.0404083332,33038.0874809745,0,15,10,1,1,27,5,25692179,45441589,37083570,45764990,0,0,3121120,0,0,21501009,0,0,1070050,1170080,0,0,4071190,0,0,0,40200319,0,31811409,0,3171070,0,0,0,0,0,-2101091,4031111,0,10701809,1020061,0,0,0,0,30012009
13,224,718.680402627797,0,0,33040.2640259961,33041.3111063367,0,15,10,0,0,7,20,156585854,133074657,151406386,62606507,30301609,11411119,0,11911019,20110309,20000309,-1150061,40901109,20800319,0,20911219,4191040,4140151,0,21810419,40310809,41711019,0,4120130,0,1061191,0,20811719,10500709,42001219,31800409,41111009,10401509,21710519,10810709,2131190,11311319,0,0,2140161,4101100
13,225,843.401209698641,1,0,33043.1111653127,33044.1582491179,0,15,10,0,1,16,0,7260122,7160051,2030041,11342252,0,0,4060071,0,0,3200051,0,0,0,4120040,0,0,0,0,0,-3040011,0,0,0,0,0,0,0,0,0,0,2030041,3151011,4141051,4050190,0,0,0,0,0,0
13,226,1248.62497595313,0,0,33046.0877308142,33047.1348034556,0,15,10,1,0,31,20,174545793,78885528,111937266,100978608,30810619,31700419,0,21311509,30200419,20110509,10001709,0,30410609,0,41310419,0,11110009,11311019,10811709,0,2141201,2201171,0,11600809,11001809,0,41401719,22001209,1181170,4040041,20710509,10702019,1060101,20601509,-1000121,2151180,2161160,21401809,41900709,0
13,227,767.300972016528,0,0,33049.4642896174,33050.511369573,0,15,10,1,0,23,10,21085011,31103179,119916226,50911138,0,4081010,0,0,2131041,0,3161141,0,11711819,0,0,1040130,0,0,4180060,4070151,11711619,10101219,10201209,0,3010180,40201709,-3191181,10900919,0,40700309,11710719,0,0,0,0,0,0,30310219,20600919,0
13,228,1422.79555831192,0,0,33052.3937882519,33053.4408828361,0,15,10,1,0,6,5,6281291,24511700,30301529,84025968,0,0,0,4131141,0,-2150150,0,0,0,3061170,0,0,0,0,0,20310409,0,1140121,0,0,0,0,22000219,0,3100100,2200100,3001110,41001609,0,0,1101041,30011309,0,11912009,0,0
13,229,693.849265757308,1,0,33055.9115688288,33056.9586699573,0,15,10,1,1,22,10,81364318,53296839,104261787,42823801,0,30500919,4100121,11910319,30711819,0,0,0,4141140,4141191,11512019,10811009,0,0,4090001,0,2041200,20701419,0,21310609,0,-1041060,0,0,40310009,0,41600109,0,0,0,40611609,0,1111051,0,0,1101141
13,230,841.579189465847,1,0,33058.8057411358,33059.8528203215,0,15,10,1,1,18,10,85095088,46813772,74012877,101685330,0,40301909,0,0,0,1191051,22001619,0,21600509,40510409,0,0,0,0,0,1061081,3061131,-2181151,0,20000819,0,3201040,0,30500509,20310509,0,0,0,1130001,3111021,41311919,0,40611009,11501309,4020071,0
13,231,642.76225148933,1,0,33061.7705329912,33062.8176106371,0,15,10,1,1,29,0,6032361,2041110,4161192,7402050,3021161,0,0,0,0,0,0,3011200,0,2041110,0,0,0,0,0,0,0,0,0,0,0,0,3130031,0,0,1031161,0,0,-3081000,3161010,0,0,0,0,0,1160040
13,232,611.974228704639,0,0,33064.641198812,33065.6882872368,0,15,10,1,0,17,20,88185945,63673190,132898935,191597414,1100180,11200209,12000819,21702019,0,11100409,30011209,0,1071100,0,0,40410009,4171141,0,0,10810809,-4170100,4111131,0,20900419,4200180,11911809,21310719,20501019,3071061,40202019,10801709,10901909,30810719,21810309,4071001,10300719,0,41800319,41101819,30800619
13,233,1267.79603181785,1,0,33067.4412870451,33068.4884278245,0,15,10,0,1,34,0,0,5243300,9362312,6212301,0,0,0,0,0,0,0,0,0,0,3121200,0,0,0,1121050,1001050,0,0,2080121,4131000,0,0,0,0,0,0,3151191,0,0,0,0,0,0,-3131180,3081121,0
13,234,717.392323254899,1,0,33070.9237366748,33071.9708197102,0,15,10,1,1,35,0,3251201,4190131,5202080,6371322,0,0,1171040,0,0,0,0,2080161,0,0,0,0,0,0,0,0,0,4190131,0,0,0,0,2011040,3191040,0,0,0,0,1160111,0,0,1020110,0,0,-4191101,0
13,235,1322.0112388517,1,0,33073.8061645928,33074.8532483981,0,15,10,1,1,30,5,4181020,38402748,19615001,80153320,0,0,0,0,0,0,4181020,0,0,4081020,0,0,11600219,0,0,20601419,2120090,0,0,0,11301709,2071160,0,0,0,3121041,3121091,0,3060041,-4181141,41811619,31100519,0,0,0,0
13,236,717.445447866339,0,0,33077.2768571299,33078.3239447848,0,15,10,1,0,13,0,1041070,5140361,10221131,8110251,0,0,0,0,0,0,0,1041070,0,0,2130180,0,-3010181,0,0,0,0,0,0,4040080,2170051,4011000,0,0,0,0,0,0,4010160,0,0,0,0,0,0,4100091
13,237,1058.52085941297,0,0,33080.0887001459,33081.1357920353,0,15,10,0,0,5,20,32603791,148646364,190497713,67626037,0,1091020,21110409,0,-4171151,2060091,1021020,3150100,0,0,30812019,21101509,21310819,2000161,11800319,31210209,10001009,20410319,21410319,12000519,3030181,11200119,10711019,40411519,41111709,30410319,20212009,31611919,11101109,11711119,0,0,2090181,0,11111709,0
13,238,1350.39710524143,0,0,33083.2887913047,33084.335883579,0,15,10,0,0,19,10,75263578,103295668,63764628,74694079,0,0,0,0,31911819,3040131,20211419,0,20100209,41401919,1071080,4071130,20901119,0,1070200,31610109,3170111,0,-1171060,31000609,0,0,30511909,0,1081050,0,0,0,0,0,0,0,2091041,42001519,0,30601519
13,239,706.45558234537,1,0,33086.7006660414,33087.7477440723,0,15,10,0,1,14,0,5342451,5221161,1131020,6271292,0,0,0,1140160,0,0,0,1201161,3001130,0,0,0,0,-1091131,4130030,0,0,0,0,0,0,0,0,1131020,0,0,0,0,0,0,0,0,0,4071171,2200121,0
13,240,603.78533914627,0,0,33089.6183891051,33090.6654721405,0,15,10,0,0,21,10,25993229,103834585,38502440,51173529,2170171,0,3111130,0,0,10311919,0,10400009,0,40000019,0,10711819,0,20011519,21510209,0,11601019,0,0,4060130,-1171140,31211119,2060051,0,0,0,0,11401709,4040200,0,0,31601319,1050190,0,0,3080111
13,241,677.505363186356,0,0,33109.8542673897,33110.9013554295,0,15,11,1,0,28,20,115457076,239038083,80447288,119337798,21401909,0,0,0,3131111,20201019,10011709,20710919,40000409,31200909,31701709,0,41811509,0,31700919,30901209,40610009,31111819,0,40011819,11001919,11801219,3120091,1001131,2000090,11511019,0,-3110170,41000209,10911719,3021041,31711709,4170131,4101010,0,21311809
13,242,835.205005874741,1,0,33112.5955251188,33113.6426139285,0,15,11,1,1,18,10,85095088,46813772,74012877,101685330,0,40301909,0,0,0,1191051,22001619,0,21600509,40510409,0,0,0,0,0,1061081,3061131,-2181151,0,20000819,0,3201040,0,30500509,20310509,0,0,0,1130001,3111021,41311919,0,40611009,11501309,4020071,0
13,243,492.63479092042,1,0,33115.6191393941,33116.6662301286,0,15,11,0,1,8,5,46841419,43243648,28923411,3041301,0,31100009,0,2100041,0,0,11600309,-2041060,0,0,0,2030110,0,0,21101819,20111719,0,0,0,1160201,0,21401009,4201051,0,2161150,0,0,0,0,0,2001171,0,0,0,0,1040130
13,244,1000.95379728737,0,0,33118.1956877263,33119.2427719165,0,15,11,1,0,27,5,25692179,45441589,37083570,45764990,0,0,3121120,0,0,21501009,0,0,1070050,1170080,0,0,4071190,0,0,0,40200319,0,31811409,0,3171070,0,0,0,0,0,-2101091,4031111,0,10701809,1020061,0,0,0,0,30012009
13,245,697.297746046388,1,0,33121.3604841243,33122.4075713942,0,15,11,0,1,19,10,102222666,9550550,68005728,97055148,0,0,0,20010019,0,0,10510009,40201719,31500919,2050200,0,0,3100090,0,3200160,0,1200100,0,-3090171,0,0,1011100,22001319,0,0,20402019,21501119,3141160,0,40611619,0,0,0,2081131,31210619,20010619
13,246,1605.16041969095,0,0,33124.1135008709,33125.1605916054,0,15,11,1,0,6,5,6281291,24511700,30301529,84025968,0,0,0,4131141,0,-2150150,0,0,0,3061170,0,0,0,0,0,20310409,0,1140121,0,0,0,0,22000219,0,3100100,2200100,3001110,41001609,0,0,1101041,30011309,0,11912009,0,0
13,247,698.772531490249,0,0,33127.8430226801,33128.890109565,0,15,11,1,0,35,0,3251201,4190131,5202080,6371322,0,0,1171040,0,0,0,0,2080161,0,0,0,0,0,0,0,0,0,4190131,0,0,0,0,2011040,3191040,0,0,0,0,1160111,0,0,1020110,0,0,-4191101,0
13,248,1036.41717094433,1,0,33130.6431062936,33131.6901989529,0,15,11,0,1,12,0,3341222,6031030,5430262,3150041,0,0,2151171,1190051,0,0,0,0,0,2011020,0,-4020010,0,0,0,0,0,0,0,2170041,0,0,0,2070180,1190041,0,0,0,0,0,0,0,3150041,0,0,0
13,249,671.467250518617,1,0,33133.7961371297,33134.8432236297,0,15,11,0,1,14,5,33110350,53273701,26684150,85002609,0,3100131,30010219,0,0,0,0,0,0,4060020,2001071,3161091,0,-2050000,42001519,0,0,0,0,0,0,4081011,0,0,2001130,0,20602009,40001919,41000619,4000071,0,0,0,0,0,0
13,250,501.902726056869,1,0,33136.5727546779,33137.6197791992,0,15,11,0,1,20,20,20602330,130641693,122076357,219872002,4011080,3120110,2160120,1000101,0,0,0,0,10310919,11011119,11401409,20601419,40011919,10600809,4091190,21811919,11111909,0,21710819,-1201090,41102009,41201019,0,3050131,3201170,0,10610119,31912019,30810719,31711709,11011909,40611309,41601209,0,11201119,21012009
13,251,719.599304444273,0,0,33139.2551195393,33140.3022029596,0,15,11,1,0,13,0,1041070,5140361,10221131,8110251,0,0,0,0,0,0,0,1041070,0,0,2130180,0,-3010181,0,0,0,0,0,0,4040080,2170051,4011000,0,0,0,0,0,0,4010160,0,0,0,0,0,0,4100091
13,252,1050.06442197919,1,0,33142.0434414406,33143.0905198564,0,15,11,1,1,31,20,174545793,78885528,111937266,100978608,30810619,31700419,0,21311509,30200419,20110509,10001709,0,30410609,0,41310419,0,11110009,11311019,10811709,0,2141201,2201171,0,11600809,11001809,0,41401719,22001209,1181170,4040041,20710509,10702019,1060101,20601509,-1000121,2151180,2161160,21401809,41900709,0
13,253,488.069538878335,1,0,33145.3494072576,33146.3964902929,0,15,11,0,1,21,10,54173278,138245116,79411177,44273291,0,41201519,10910719,0,0,0,0,2061040,0,41510719,4010170,21711509,0,40802009,0,0,30210709,0,0,4200100,-2190150,0,40510209,21110409,0,0,11400309,3130181,0,0,30910709,0,4101101,0,2111170,4020130
13,254,511.149873302202,0,0,33147.9024302405,33148.949511351,0,15,11,1,0,22,10,81364318,53296839,104261787,42823801,0,30500919,4100121,11910319,30711819,0,0,0,4141140,4141191,11512019,10811009,0,0,4090001,0,2041200,20701419,0,21310609,0,-1041060,0,0,40310009,0,41600109,0,0,0,40611609,0,1111051,0,0,1101141
13,255,928.823277041374,0,0,33150.5025027672,33151.5496242986,0,15,11,0,0,7,10,89853500,25210801,107532998,34514897,4140100,0,0,41701919,2150091,0,-1051171,0,40810219,21910509,0,0,1120191,0,0,2180101,0,0,0,2030001,2081131,0,0,30400119,21200119,41811419,10010209,10300609,11601109,0,0,0,2201170,0,0,10412009
13,256,1349.7084100818,1,0,33153.5496550955,33154.5967377458,0,15,11,1,1,30,5,4181020,38402748,19615001,80153320,0,0,0,0,0,0,4181020,0,0,4081020,0,0,11600219,0,0,20601419,2120090,0,0,0,11301709,2071160,0,0,0,3121041,3121091,0,3060041,-4181141,41811619,31100519,0,0,0,0
13,257,589.772375198663,0,0,33157.067399871,33158.1145421903,0,15,11,1,0,23,10,21085011,31103179,119916226,50911138,0,4081010,0,0,2131041,0,3161141,0,11711819,0,0,1040130,0,0,4180060,4070151,11711619,10101219,10201209,0,3010180,40201709,-3191181,10900919,0,40700309,11710719,0,0,0,0,0,0,30310219,20600919,0
13,258,1064.10202342522,0,0,33159.7262948174,33160.7733724633,0,15,11,0,0,24,20,131264128,142417404,152566185,110405248,4011121,41710119,0,21410519,30201419,0,0,30910809,3020141,11611609,30011509,0,22011219,21711319,31810219,3060091,10300119,11901319,41511809,20910119,31401709,3051170,0,-3180140,20800419,31710819,0,3161061,2091040,0,21511309,0,30710419,10811319,40000009,2120091
13,259,886.069127736846,0,0,33162.8793283483,33163.9264783668,0,15,11,0,0,4,20,214089095,122148028,170716035,115636227,3131031,0,41501519,-4121190,41712009,41410509,10510509,31201819,40500509,41101809,0,3001091,41301519,11600909,21101619,0,4041081,0,41101009,2020190,10810309,21010809,41001409,0,31500619,21110619,2161071,0,20311009,1110161,0,2191200,0,11010619,40811419,40201819
13,260,849.260700480954,1,0,33165.9029495529,33166.9500218093,0,15,11,1,1,17,20,88185945,63673190,132898935,191597414,1100180,11200209,12000819,21702019,0,11100409,30011209,0,1071100,0,0,40410009,4171141,0,0,10810809,-4170100,4111131,0,20900419,4200180,11911809,21310719,20501019,3071061,40202019,10801709,10901909,30810719,21810309,4071001,10300719,0,41800319,41101819,30800619
13,261,778.452136175474,0,0,33168.8089147539,33169.8559950945,0,15,11,0,0,34,5,125524157,7222091,19314100,5060201,41801219,30710909,21110719,0,0,1200201,0,30701109,0,0,0,0,0,4041020,0,0,0,3181071,4191081,1061190,0,0,0,10011719,0,4050110,0,0,0,3050050,0,0,0,-2010151,0,0
13,262,514.514432106807,1,0,33171.7148772603,33172.76196607,0,15,11,0,1,16,0,6271271,3211202,1030190,6310211,0,0,1100130,0,0,4030111,0,1141030,0,0,0,0,0,0,0,-2030061,1181141,0,0,0,0,0,0,0,0,0,1030190,0,0,0,0,3200140,0,0,3110071,0
13,263,1749.13350938732,1,0,33174.3620116494,33175.4090981493,0,15,11,0,1,5,0,4351070,4002191,7141221,5191251,0,0,0,0,-3181040,1170030,0,0,0,1001001,0,0,0,0,0,0,3001190,0,0,0,0,4080050,0,0,3061171,0,0,0,4031170,0,0,0,1160081,0,0,0
13,264,650.326349415991,0,0,33178.3268346867,33179.3739250362,0,15,11,1,0,29,0,6032361,2041110,4161192,7402050,3021161,0,0,0,0,0,0,3011200,0,2041110,0,0,0,0,0,0,0,0,0,0,0,0,3130031,0,0,1031161,0,0,-3081000,3161010,0,0,0,0,0,1160040
13,265,688.046364230104,0,0,33184.1269941375,33185.1740771728,0,15,12,0,0,7,10,13382292,131167857,66033658,77021688,2121131,0,0,0,4200100,0,-3021000,0,4040061,31811609,20800419,20601209,0,0,21411819,4080031,1151061,31311709,0,0,0,0,11710319,10601509,40610709,3111121,0,0,41810809,0,0,0,0,0,31010709,4200170
13,266,516.717948645237,1,0,33186.9035547115,33187.9506381318,0,15,12,0,1,20,10,13862821,67074158,69235426,34323210,11610809,0,1181011,1071001,0,0,0,0,0,22001419,0,3010000,30710219,1151011,0,0,0,10201509,21201709,-2171000,0,21310819,10011209,3130080,0,11410609,0,1081091,0,1130201,0,0,11801909,20310009,0,0
13,267,884.292532900872,1,0,33189.4918678357,33190.5389443266,0,15,12,0,1,8,20,204763524,99704277,141660205,105365807,31111319,40610819,22010019,0,4161070,22010219,41610019,-3040040,40210019,3050030,0,30300709,0,40600409,3141111,0,12000909,10611109,10201309,21510719,4141201,20001419,2121020,40901709,30201119,10500609,2081100,0,0,11101219,20010519,41211919,2131031,0,30911119,0
13,268,827.193968274514,0,0,33192.5390116948,33193.5860897256,0,15,12,1,0,6,5,6281291,24511700,30301529,84025968,0,0,0,4131141,0,-2150150,0,0,0,3061170,0,0,0,0,0,20310409,0,1140121,0,0,0,0,22000219,0,3100100,2200100,3001110,41001609,0,0,1101041,30011309,0,11912009,0,0
13,269,670.24538442638,0,0,33195.6096874476,33196.6567666333,0,15,12,1,0,29,0,6032361,2041110,4161192,7402050,3021161,0,0,0,0,0,0,3011200,0,2041110,0,0,0,0,0,0,0,0,0,0,0,0,3130031,0,0,1031161,0,0,-3081000,3161010,0,0,0,0,0,1160040
13,270,760.914854632574,0,0,33198.3862391675,33199.4333272073,0,15,12,0,0,19,20,161725215,136479724,129294467,69995727,30611419,4080090,0,20510909,20800319,41211409,3000051,21010209,20500809,10300509,0,31801719,0,10601309,30011909,1051050,31311409,21401819,-3020150,4151071,0,0,0,20311119,40801009,20610109,40401009,30101819,11100209,2021010,0,11711019,0,10910409,2051111,2100150
13,271,542.066858011822,0,0,33201.3510314079,33202.3981198327,0,15,12,1,0,28,20,115457076,239038083,80447288,119337798,21401909,0,0,0,3131111,20201019,10011709,20710919,40000409,31200909,31701709,0,41811509,0,31700919,30901209,40610009,31111819,0,40011819,11001919,11801219,3120091,1001131,2000090,11511019,0,-3110170,41000209,10911719,3021041,31711709,4170131,4101010,0,21311809
13,272,1320.29777760908,0,0,33204.0805193405,33205.127610845,0,15,12,0,0,12,0,7211230,4000220,2140051,8191412,4031100,0,3180130,0,0,0,0,0,0,0,0,-2000090,0,0,0,0,0,2000130,0,0,0,2140051,0,0,0,0,0,2041200,3080091,0,0,0,0,0,0,3070121
13,273,845.265190670034,0,0,33207.5865012489,33208.6335892887,0,15,12,1,0,35,0,3251201,4190131,5202080,6371322,0,0,1171040,0,0,0,0,2080161,0,0,0,0,0,0,0,0,0,4190131,0,0,0,0,2011040,3191040,0,0,0,0,1160111,0,0,1020110,0,0,-4191101,0
13,274,1337.86778084323,0,0,33210.6218891702,33211.6689648913,0,15,12,0,0,5,5,16903580,31841399,14791650,75551628,0,0,0,0,-4091131,1001030,0,11811419,0,1041180,0,0,30800219,0,0,0,0,0,0,0,1070150,1190161,0,10511219,0,2020120,0,0,1050120,0,0,3190180,0,30510109,40801219,0
13,275,1115.32300410181,0,0,33214.1396343307,33215.1867212156,0,15,12,1,0,18,10,85095088,46813772,74012877,101685330,0,40301909,0,0,0,1191051,22001619,0,21600509,40510409,0,0,0,0,0,1061081,3061131,-2181151,0,20000819,0,3201040,0,30500509,20310509,0,0,0,1130001,3111021,41311919,0,40611009,11501309,4020071,0
13,276,773.275181178178,1,0,33217.4926739439,33218.5397535146,0,15,12,0,1,21,10,117925397,88816349,49764750,0,0,0,31200809,21801109,4010051,20511419,0,0,40402009,21610419,0,3141031,10900909,4201110,20901809,20810019,3161051,4090001,1041161,4011051,-3191010,31110219,0,10411309,0,0,0,0,0,0,0,0,0,0,0,0
13,277,1167.38319968135,0,0,33220.4692290515,33221.5163186311,0,15,12,1,0,31,20,174545793,78885528,111937266,100978608,30810619,31700419,0,21311509,30200419,20110509,10001709,0,30410609,0,41310419,0,11110009,11311019,10811709,0,2141201,2201171,0,11600809,11001809,0,41401719,22001209,1181170,4040041,20710509,10702019,1060101,20601509,-1000121,2151180,2161160,21401809,41900709,0
13,278,1204.88763635512,0,0,33223.892899762,33224.9400020454,0,15,12,1,0,30,5,4181020,38402748,19615001,80153320,0,0,0,0,0,0,4181020,0,0,4081020,0,0,11600219,0,0,20601419,2120090,0,0,0,11301709,2071160,0,0,0,3121041,3121091,0,3060041,-4181141,41811619,31100519,0,0,0,0
13,279,590.575788723072,0,0,33227.2929846844,33228.3400392326,0,15,12,1,0,13,0,1041070,5140361,10221131,8110251,0,0,0,0,0,0,0,1041070,0,0,2130180,0,-3010181,0,0,0,0,0,0,4040080,2170051,4011000,0,0,0,0,0,0,4010160,0,0,0,0,0,0,4100091
13,280,1277.47549022024,1,0,33230.0812673197,33231.1283515099,0,15,12,0,1,24,5,2110050,77924858,54624538,6311381,0,0,2110050,0,0,0,0,0,0,0,0,10910219,4000201,1001010,0,0,21701809,40311619,0,40100919,2021090,0,0,-2091120,0,10411409,0,0,4200060,1040181,0,0,0,0,1071140,0
13,281,979.553817458509,1,0,33233.4931347422,33234.5402143129,0,15,12,0,1,14,0,4120030,6162613,4140140,4212150,0,4120030,0,0,0,0,0,0,0,0,2120181,0,1001161,-1011181,0,0,0,2030090,0,0,0,0,0,0,0,4140140,0,0,0,0,2181030,0,2031120,0,0,0
13,282,539.793278570869,1,0,33236.7167662637,33237.7638423697,0,15,12,0,1,16,20,199408154,72102999,174857404,115416395,11201619,41701419,40710809,20511319,0,1141160,40200119,41900509,2041200,0,0,1200071,3020140,40801619,0,-3090020,2090130,21901019,10400509,31210819,20100809,30401709,1011121,30310709,31311219,20110509,0,0,0,1090120,10412009,30501119,32000019,10511319,30901809,0
13,283,1566.30207531271,1,0,33239.4462503467,33240.4933295324,0,15,12,0,1,4,5,33824141,46202268,3061031,28893038,4191110,20300709,0,-4011091,0,1150141,4171090,0,0,0,0,0,0,31710719,0,4180040,0,10311509,0,0,0,0,0,0,3061031,0,0,0,0,0,3020030,3171070,11901219,0,0,10800719
13,284,770.328305014118,1,0,33243.1992959654,33244.2463820804,0,15,12,1,1,23,10,21085011,31103179,119916226,50911138,0,4081010,0,0,2131041,0,3161141,0,11711819,0,0,1040130,0,0,4180060,4070151,11711619,10101219,10201209,0,3010180,40201709,-3191181,10900919,0,40700309,11710719,0,0,0,0,0,0,30310219,20600919,0
13,285,432.744489393372,1,0,33246.2229179399,33247.2699975105,0,15,12,1,1,17,20,88185945,63673190,132898935,191597414,1100180,11200209,12000819,21702019,0,11100409,30011209,0,1071100,0,0,40410009,4171141,0,0,10810809,-4170100,4111131,0,20900419,4200180,11911809,21310719,20501019,3071061,40202019,10801709,10901909,30810719,21810309,4071001,10300719,0,41800319,41101819,30800619
13,286,504.67675474647,1,0,33248.7759359183,33249.8230139491,0,15,12,1,1,22,10,81364318,53296839,104261787,42823801,0,30500919,4100121,11910319,30711819,0,0,0,4141140,4141191,11512019,10811009,0,0,4090001,0,2041200,20701419,0,21310609,0,-1041060,0,0,40310009,0,41600109,0,0,0,40611609,0,1111051,0,0,1101141
13,287,560.934949593502,1,0,33251.4466341528,33252.4937360512,0,15,12,1,1,27,5,25692179,45441589,37083570,45764990,0,0,3121120,0,0,21501009,0,0,1070050,1170080,0,0,4071190,0,0,0,40200319,0,31811409,0,3171070,0,0,0,0,0,-2101091,4031111,0,10701809,1020061,0,0,0,0,30012009
13,288,1004.9142756543,0,0,33254.1525555453,33255.1997020992,0,15,12,0,0,34,0,8093311,6160192,0,4190341,0,3001050,0,1040160,0,0,3041101,0,1011000,0,0,2160191,0,0,4000001,0,0,0,0,0,0,0,0,0,0,0,0,0,0,0,0,0,3190191,-1000150,0,0
13,289,990.886683197459,0,0,33273.0942713009,33274.1414147751,0,15,13,0,0,4,10,11401572,108043676,67394478,63425666,0,2090081,1080180,-2001030,0,3080141,0,3150140,0,40211009,0,10901709,0,31800419,4120020,0,0,21010519,0,21402019,3151050,0,41811319,0,1030090,0,0,10601909,10900019,0,0,0,0,0,31411719,10512019
13,290,567.397674218228,0,0,33276.1649524432,33277.2120362484,0,15,13,1,0,17,20,88185945,63673190,132898935,191597414,1100180,11200209,12000819,21702019,0,11100409,30011209,0,1071100,0,0,40410009,4171141,0,0,10810809,-4170100,4111131,0,20900419,4200180,11911809,21310719,20501019,3071061,40202019,10801709,10901909,30810719,21810309,4071001,10300719,0,41800319,41101819,30800619
13,291,554.700121872884,0,0,33278.7885634078,33279.835647598,0,15,13,0,0,20,20,139535847,86884568,117307514,124638405,10911719,40610509,1110061,21310219,42002009,2091021,0,21500309,0,0,0,4021121,40910419,0,1151000,30300919,10501109,0,10410609,-1060111,31311519,21601709,10711009,20600419,11100319,0,10511819,1101130,31410619,4171140,21911119,0,10301509,11501419,4130050,40111419
13,292,499.787365573866,1,0,33281.553347256,33282.6004291365,0,15,13,0,1,16,0,5352271,5210241,4120001,5550541,0,0,0,0,0,0,3201150,0,2151121,0,4080200,0,0,0,0,-1130041,0,0,0,0,0,4120001,0,0,0,0,0,1180181,0,3170190,0,0,0,1200170,0,0
13,293,900.053219615074,1,0,33284.1769559109,33285.2240335567,0,15,13,0,1,7,10,64664400,76392827,35510870,143084007,3101110,0,41310619,0,11911319,1180160,-4071111,0,3090081,0,0,40611609,0,20100109,4070190,11610919,0,0,0,0,0,31310719,0,0,0,0,4200151,41110219,0,41210819,4151130,0,4200021,40600609,11811209,0
13,294,1840.55981283746,0,0,33287.2946885216,33288.3417754065,0,15,13,0,0,34,10,96032607,75804409,80575537,74742179,30810009,0,0,40600809,0,3180150,20401519,1040120,0,1020050,0,0,31201619,40411719,0,0,3171021,0,2110020,0,4141010,20501809,2120170,31002019,20700509,0,0,41310609,0,0,0,0,0,-2121061,0,31310509
13,295,506.298595268163,0,0,33291.1889243472,33292.2360043028,0,15,13,0,0,14,0,4191111,8271291,8141211,6192241,4191111,0,0,0,0,0,0,0,0,0,0,4011020,2090201,-2170070,0,0,0,0,0,4071120,0,0,0,0,0,4070091,0,0,0,0,0,4061071,2131170,0,0,0
13,296,699.990163011535,1,0,33293.9302171077,33294.9772593371,0,15,13,0,1,19,5,4021342,6182211,56675260,95123408,2021191,0,0,0,0,0,0,2000151,0,0,0,0,1071150,0,0,0,3111041,2000020,-3131141,0,11411019,0,0,0,0,2021181,40111919,0,2000061,21610419,0,0,31001609,0,0,40511319
13,297,1012.64044213895,1,0,33296.8714339539,33297.9185196839,0,15,13,0,1,24,20,92753926,122896066,116087735,129084347,4100200,11710419,10501509,11700119,41900909,10710719,0,2130051,0,20910219,11110009,3141051,0,41801109,0,11511619,4121150,30300909,0,0,20811719,20811009,20111709,-1040070,42001719,11311509,0,3181101,0,20010219,40010109,11911219,1000121,20510609,2060160,30400809
13,298,1805.42904545291,1,0,33299.977408702,33301.0244932771,0,15,13,1,1,31,20,174545793,78885528,111937266,100978608,30810619,31700419,0,21311509,30200419,20110509,10001709,0,30410609,0,41310419,0,11110009,11311019,10811709,0,2141201,2201171,0,11600809,11001809,0,41401719,22001209,1181170,4040041,20710509,10702019,1060101,20601509,-1000121,2151180,2161160,21401809,41900709,0
13,299,552.681771558127,1,0,33303.8951721866,33304.9422513723,0,15,13,1,1,27,5,25692179,45441589,37083570,45764990,0,0,3121120,0,0,21501009,0,0,1070050,1170080,0,0,4071190,0,0,0,40200319,0,31811409,0,3171070,0,0,0,0,0,-2101091,4031111,0,10701809,1020061,0,0,0,0,30012009
13,300,920.623608573806,0,0,33306.5893561194,33307.6364468539,0,15,13,1,0,18,10,85095088,46813772,74012877,101685330,0,40301909,0,0,0,1191051,22001619,0,21600509,40510409,0,0,0,0,0,1061081,3061131,-2181151,0,20000819,0,3201040,0,30500509,20310509,0,0,0,1130001,3111021,41311919,0,40611009,11501309,4020071,0
13,301,1425.70355341013,1,0,33309.6012194613,33310.6482928726,0,15,13,1,1,35,0,3251201,4190131,5202080,6371322,0,0,1171040,0,0,0,0,2080161,0,0,0,0,0,0,0,0,0,4190131,0,0,0,0,2011040,3191040,0,0,0,0,1160111,0,0,1020110,0,0,-4191101,0
13,302,1233.35780920024,0,0,33313.2366183155,33314.283699426,0,15,13,0,0,21,5,55162339,4010061,5390331,71575258,0,0,12010109,0,0,1151121,0,0,42001109,0,0,4010061,0,0,0,0,0,0,0,1110160,-1160151,0,0,0,0,0,3120020,4121151,41101119,11000809,0,0,10010819,2140200,3201160,0
13,303,1124.85040293541,0,0,33316.5308297345,33317.5779189292,0,15,13,0,0,12,5,26063019,57764037,16402830,10333621,0,4151100,0,0,0,0,0,0,21911919,11101209,0,-4050200,21811219,0,20801409,0,0,0,3071041,0,0,2030070,0,0,0,0,11301719,0,4101091,4201200,0,1011150,0,0,0,1020180
13,304,578.277440894453,1,0,33319.7544477824,33320.8015327426,0,15,13,1,1,13,0,1041070,5140361,10221131,8110251,0,0,0,0,0,0,0,1041070,0,0,2130180,0,-3010181,0,0,0,0,0,0,4040080,2170051,4011000,0,0,0,0,0,0,4010160,0,0,0,0,0,0,4100091
13,305,1019.97240861238,1,0,33322.4839407196,33323.531042618,0,15,13,1,1,28,20,115457076,239038083,80447288,119337798,21401909,0,0,0,3131111,20201019,10011709,20710919,40000409,31200909,31701709,0,41811509,0,31700919,30901209,40610009,31111819,0,40011819,11001919,11801219,3120091,1001131,2000090,11511019,0,-3110170,41000209,10911719,3021041,31711709,4170131,4101010,0,21311809
13,306,1134.04827517661,1,0,33325.6605038343,33326.7075860997,0,15,13,0,1,5,0,4150091,6132191,7032041,8230233,0,0,0,0,-4150091,0,0,0,0,3001110,0,3131081,0,0,0,0,0,0,0,0,0,3001000,0,0,0,0,4031041,0,0,1000161,4090021,0,0,3140051,0,0
13,307,767.453801519878,0,0,33329.0253113192,33330.0723897349,0,15,13,1,0,22,10,81364318,53296839,104261787,42823801,0,30500919,4100121,11910319,30711819,0,0,0,4141140,4141191,11512019,10811009,0,0,4090001,0,2041200,20701419,0,21310609,0,-1041060,0,0,40310009,0,41600109,0,0,0,40611609,0,1111051,0,0,1101141
13,308,1188.5341097659,1,0,33331.931269206,33332.9783510864,0,15,13,1,1,6,5,6281291,24511700,30301529,84025968,0,0,0,4131141,0,-2150150,0,0,0,3061170,0,0,0,0,0,20310409,0,1140121,0,0,0,0,22000219,0,3100100,2200100,3001110,41001609,0,0,1101041,30011309,0,11912009,0,0
13,309,715.818987802777,0,0,33335.3078430226,33336.3549210534,0,15,13,1,0,29,0,6032361,2041110,4161192,7402050,3021161,0,0,0,0,0,0,3011200,0,2041110,0,0,0,0,0,0,0,0,0,0,0,0,3130031,0,0,1031161,0,0,-3081000,3161010,0,0,0,0,0,1160040
13,310,608.61351951462,0,0,33338.1549865738,33339.2020699941,0,15,13,1,0,23,10,21085011,31103179,119916226,50911138,0,4081010,0,0,2131041,0,3161141,0,11711819,0,0,1040130,0,0,4180060,4070151,11711619,10101219,10201209,0,3010180,40201709,-3191181,10900919,0,40700309,11710719,0,0,0,0,0,0,30310219,20600919,0
13,311,855.895502645581,1,0,33340.9197727318,33341.9668619265,0,15,13,1,1,30,5,4181020,38402748,19615001,80153320,0,0,0,0,0,0,4181020,0,0,4081020,0,0,11600219,0,0,20601419,2120090,0,0,0,11301709,2071160,0,0,0,3121041,3121091,0,3060041,-4181141,41811619,31100519,0,0,0,0
13,312,1195.74943306361,0,0,33343.9787137196,33345.0258202376,0,15,13,0,0,8,20,140517458,176643594,110419245,101344118,21601619,41301219,40501209,21110719,0,2091061,1130051,-1080161,11701419,0,40500109,40711519,0,0,40010219,11800619,21810319,21810809,21911109,0,11311819,2171040,20502019,20511819,2200130,0,31811309,1170081,3050110,2190071,0,0,20811809,11700109,31911319,30510619
13,313,1492.32836199371,0,0,33350.5200381239,33351.567123084,0,15,14,0,0,7,10,50622270,116913488,95012448,55422700,0,4010090,1120140,31000809,11410109,0,-1011001,0,2070121,0,3180041,0,41210819,40511519,0,0,32011109,0,11210519,0,2191101,0,40510419,0,0,41100409,0,40011209,0,3141041,0,0,2160031,10110419,0,0
13,314,832.897549873451,1,0,33354.1907425178,33355.237817084,0,15,14,1,1,28,20,115457076,239038083,80447288,119337798,21401909,0,0,0,3131111,20201019,10011709,20710919,40000409,31200909,31701709,0,41811509,0,31700919,30901209,40610009,31111819,0,40011819,11001919,11801219,3120091,1001131,2000090,11511019,0,-3110170,41000209,10911719,3021041,31711709,4170131,4101010,0,21311809
13,315,1148.80344385165,0,0,33357.1084694311,33358.1555882678,0,15,14,1,0,30,5,4181020,38402748,19615001,80153320,0,0,0,0,0,0,4181020,0,0,4081020,0,0,11600219,0,0,20601419,2120090,0,0,0,11301709,2071160,0,0,0,3121041,3121091,0,3060041,-4181141,41811619,31100519,0,0,0,0
13,316,598.833586300316,1,0,33360.3556740371,33361.4027070275,0,15,14,1,1,29,0,6032361,2041110,4161192,7402050,3021161,0,0,0,0,0,0,3011200,0,2041110,0,0,0,0,0,0,0,0,0,0,0,0,3130031,0,0,1031161,0,0,-3081000,3161010,0,0,0,0,0,1160040
13,317,669.769187712518,0,0,33363.2145357999,33364.2616072864,0,15,14,1,0,22,10,81364318,53296839,104261787,42823801,0,30500919,4100121,11910319,30711819,0,0,0,4141140,4141191,11512019,10811009,0,0,4090001,0,2041200,20701419,0,21310609,0,-1041060,0,0,40310009,0,41600109,0,0,0,40611609,0,1111051,0,0,1101141
13,318,529.623764865391,1,0,33366.0146013203,33367.0616939796,0,15,14,0,1,21,0,0,1011081,6363332,6323261,0,0,0,0,0,0,0,0,0,0,0,0,0,0,0,0,1011081,0,0,0,-1131081,0,2070100,0,1121031,0,2041120,1161170,0,0,0,0,0,3141040,0,2021051
13,319,1070.83460567083,0,0,33368.72059932,33369.7676492487,0,15,14,0,0,19,5,78563800,8210280,58471848,23901229,30511519,0,41701019,1060021,0,0,2141041,3150200,0,0,0,0,0,0,4010170,0,4200110,0,-2200090,4161030,0,21010709,0,0,31100019,0,0,0,21701219,0,0,2200010,0,0,0,0
13,320,1444.91387529706,0,0,33371.9794944205,33373.0265643671,0,15,14,0,0,4,20,97277706,161160704,161937864,66942808,10201919,20310419,0,-2170141,1191180,41100419,11501609,0,10802019,12011609,10810809,20111919,2160071,30610909,30301809,21600909,30401519,3151150,0,10011219,40901919,20811619,20600919,20910709,41500309,3021080,4180090,40410009,1081030,21410609,0,0,0,0,4041160,0
13,321,564.394978719065,1,0,33375.6619443582,33376.7090300882,0,15,14,1,1,27,5,25692179,45441589,37083570,45764990,0,0,3121120,0,0,21501009,0,0,1070050,1170080,0,0,4071190,0,0,0,40200319,0,31811409,0,3171070,0,0,0,0,0,-2101091,4031111,0,10701809,1020061,0,0,0,0,30012009
13,322,568.643022925244,0,0,33378.4384999277,33379.4855787284,0,15,14,0,0,20,20,124413346,158456145,180136326,125265728,31700209,0,40901209,40301209,0,11510719,0,0,0,40910709,0,10300319,3131151,21011519,40000019,0,21501219,21601209,31800609,-1181080,1190010,40501519,42011019,20511419,1140161,0,41800509,2020141,30911309,21800409,3200001,1020200,3201121,21300709,21400919,20410919
13,323,1557.04915365641,1,0,33381.2621065808,33382.3091896161,0,15,14,0,1,24,5,9222351,23314538,68411559,35881260,0,1151071,0,0,0,0,4060140,0,4011140,0,0,0,1001110,0,0,11201709,11111719,0,0,0,0,31511409,0,-3200031,31600119,0,2100000,31610009,0,0,0,1110131,0,0,3161120,0
13,324,1209.43825987342,0,0,33384.9445634478,33385.9916511027,0,15,14,0,0,34,10,15133360,84053497,96211097,60434128,0,4121050,0,0,1001191,0,0,0,10011119,11210309,12000509,4161020,0,3080031,22001309,0,31600319,0,0,21800519,40810419,2100150,0,0,0,31500009,0,0,0,10501109,1160050,0,4020080,-4051170,0,40701719
13,325,845.575854167691,1,0,33388.3564285606,33389.4035092861,0,15,14,1,1,18,10,85095088,46813772,74012877,101685330,0,40301909,0,0,0,1191051,22001619,0,21600509,40510409,0,0,0,0,0,1061081,3061131,-2181151,0,20000819,0,3201040,0,30500509,20310509,0,0,0,1130001,3111021,41311919,0,40611009,11501309,4020071,0
13,326,518.993452882569,0,0,33391.4271016186,33392.4741915832,0,15,14,1,0,17,20,88185945,63673190,132898935,191597414,1100180,11200209,12000819,21702019,0,11100409,30011209,0,1071100,0,0,40410009,4171141,0,0,10810809,-4170100,4111131,0,20900419,4200180,11911809,21310719,20501019,3071061,40202019,10801709,10901909,30810719,21810309,4071001,10300719,0,41800319,41101819,30800619
13,327,1354.63937502936,1,0,33394.1095376978,33395.1566207331,0,15,14,1,1,13,0,1041070,5140361,10221131,8110251,0,0,0,0,0,0,0,1041070,0,0,2130180,0,-3010181,0,0,0,0,0,0,4040080,2170051,4011000,0,0,0,0,0,0,4010160,0,0,0,0,0,0,4100091
13,328,500.878344937519,0,0,33397.5919846328,33398.639068823,0,15,14,0,0,14,20,162843704,133067416,133485428,89465377,0,0,10801419,40810009,0,30210019,10210719,40510119,30301419,20501519,4011081,11110109,0,-3040071,41300109,30201309,11101609,11801609,30511609,4170201,41801419,1130101,2001180,41300319,0,2060190,10510409,1131091,0,0,11800219,20411219,41511209,3001120,11610519,0
13,329,1162.48765114142,1,0,33400.262656305,33401.3097347208,0,15,14,0,1,8,0,12544483,1090131,4200171,1201040,0,4171031,2160051,1041201,0,0,0,-3021090,2151110,0,0,0,0,0,0,0,0,1090131,0,0,4200171,0,0,0,0,0,0,0,0,0,0,0,0,0,1201040,0
13,330,1483.03694423521,1,0,33403.6509860595,33404.6981237593,0,15,14,1,1,6,5,6281291,24511700,30301529,84025968,0,0,0,4131141,0,-2150150,0,0,0,3061170,0,0,0,0,0,20310409,0,1140121,0,0,0,0,22000219,0,3100100,2200100,3001110,41001609,0,0,1101041,30011309,0,11912009,0,0
13,331,1163.77727035433,0,0,33407.3569790547,33408.4040694043,0,15,14,1,0,31,20,174545793,78885528,111937266,100978608,30810619,31700419,0,21311509,30200419,20110509,10001709,0,30410609,0,41310419,0,11110009,11311019,10811709,0,2141201,2201171,0,11600809,11001809,0,41401719,22001209,1181170,4040041,20710509,10702019,1060101,20601509,-1000121,2151180,2161160,21401809,41900709,0
13,332,909.634128009202,0,0,33410.7100548543,33411.7571629121,0,15,14,1,0,35,0,3251201,4190131,5202080,6371322,0,0,1171040,0,0,0,0,2080161,0,0,0,0,0,0,0,0,0,4190131,0,0,0,0,2011040,3191040,0,0,0,0,1160111,0,0,1020110,0,0,-4191101,0
13,333,1407.89910896274,1,0,33413.6748059039,33414.7218885543,0,15,14,0,1,5,10,44850480,37452768,51923400,182096314,0,2140050,0,0,-2200111,0,40510319,0,0,10800309,0,0,4131190,0,0,1011050,0,21510219,4101150,0,0,40700019,0,3021060,0,0,4101171,30701619,0,0,41500019,31010209,31100909,31711909,11900619,4171030
13,334,686.41181998828,1,0,33417.2513819533,33418.2984603691,0,15,14,1,1,23,10,21085011,31103179,119916226,50911138,0,4081010,0,0,2131041,0,3161141,0,11711819,0,0,1040130,0,0,4180060,4070151,11711619,10101219,10201209,0,3010180,40201709,-3191181,10900919,0,40700309,11710719,0,0,0,0,0,0,30310219,20600919,0
13,335,956.731791840866,0,0,33420.1691223403,33421.216191902,0,15,14,0,0,12,0,1200100,7220310,11282331,4171171,1200100,0,0,0,0,0,0,0,0,0,0,-3040170,0,0,0,4180140,0,0,0,0,0,3091120,2110001,0,0,2060170,4021040,0,0,0,0,0,0,4171171,0,0
13,336,508.566015327233,0,0,33423.2280614033,33424.2751121019,0,15,14,0,0,16,5,2110120,30172159,35551820,48634689,2110120,0,0,0,0,0,0,0,0,0,10401319,0,0,2000071,4200050,-2160110,11410609,0,0,0,0,0,0,31500619,0,0,4051201,31210809,0,0,10001709,0,4201051,0,2020100,1201020
13,337,1023.24496173969,1,0,33458.2290261154,33459.2761237793,0,15,15,1,1,29,0,6032361,2041110,4161192,7402050,3021161,0,0,0,0,0,0,3011200,0,2041110,0,0,0,0,0,0,0,0,0,0,0,0,3130031,0,0,1031161,0,0,-3081000,3161010,0,0,0,0,0,1160040
