sub_id,Trial,RT,Resp,Error,Fix_onset,Disp_onset,q1,q2,block,repeat,tid,tloc,d_setsize,quad1,quad2,quad3,quad4,loc1,loc2,loc3,loc4,loc5,loc6,loc7,loc8,loc9,loc10,loc11,loc12,loc13,loc14,loc15,loc16,loc17,loc18,loc19,loc20,loc21,loc22,loc23,loc24,loc25,loc26,loc27,loc28,loc29,loc30,loc31,loc32,loc33,loc34,loc35,loc36
17,1,3323.26460990589,0,0,723415.817605082,723416.864697153,1,ScrollLock,1,0,0,35,5,22673079,6132172,15931930,119714987,0,0,0,0,0,2061160,0,20611919,0,2081121,0,0,0,0,0,0,4051051,0,0,0,11801719,2080161,0,0,0,2050050,0,40310019,31701219,40411619,3101110,0,1131000,0,-3060020,0
17,2,2174.18828886002,1,0,723421.264772066,723422.311839499,1,ScrollLock,1,0,1,12,5,22500900,35044651,82303979,44521710,0,0,1090161,0,0,20400619,0,1010120,0,21802009,0,-3050201,3011190,0,3020060,0,0,4161191,0,1091041,41112019,40100919,0,0,0,0,0,4010001,0,0,40511709,0,0,0,0,0
17,3,1374.43997734226,0,0,723425.641300752,723426.688382814,1,ScrollLock,1,1,0,17,0,2020151,7270252,0,8451312,0,0,0,0,0,2020151,0,0,0,0,3040141,2130041,0,0,1100020,0,-1000050,0,0,0,0,0,0,0,0,0,0,0,0,2201041,2140200,0,0,0,4110071,0
17,4,2608.46057115123,0,0,723429.182544088,723430.229613831,1,ScrollLock,1,0,0,27,10,86323558,89803636,24131159,118773240,41311909,0,40911609,0,0,0,4100040,0,0,0,20511209,0,0,4150010,2031190,20900209,30500409,11710609,0,1060120,0,0,0,0,20911009,0,-2160030,40211709,0,3180071,3060201,0,40100119,31211009,1010131,0
17,5,1644.59892059676,1,0,723433.99438561,723435.041448809,1,ScrollLock,1,1,1,20,20,127407147,97826265,132413606,155839905,40111709,10612019,30711819,0,41711409,0,2080100,0,2180091,0,31401919,0,31701209,3201190,0,10010219,11301609,10210119,10300719,-3140080,41400319,0,4160151,0,22000319,11310009,40102009,4101091,2200000,11301709,2110130,40910419,41711719,31301009,11401919,10801909
17,6,1894.30288446601,1,0,723437.747377153,723438.794449206,1,ScrollLock,1,1,1,7,0,4131040,7052360,5242472,4181110,0,0,0,0,0,0,-4131040,0,0,0,0,0,0,4051180,0,0,3001180,0,0,1070150,0,0,3081131,0,1091191,0,0,0,3091010,0,0,0,0,0,0,1090100
17,7,1907.25263603963,0,0,723441.888617179,723442.935687692,1,ScrollLock,1,1,0,34,0,6110102,4011061,10432372,5131251,0,0,4100051,0,0,0,2010051,0,0,0,0,0,0,0,0,4011061,0,0,0,0,4170160,0,0,0,4131191,2131021,0,0,2080161,0,0,0,0,-3051090,0,0
17,8,1392.51896855421,1,0,723445.865160262,723446.912230775,1,ScrollLock,1,1,1,18,10,43832069,70424837,79106046,37363170,0,21410119,0,0,0,1110031,0,0,21311919,31801809,0,10810409,0,0,0,21611409,2101100,-4100110,20511719,0,10502019,0,4100160,1050180,11610819,30310019,1021130,0,0,3121081,0,0,3130080,0,31112009,0
17,9,1914.97806250118,0,0,723449.394621438,723450.441690796,1,ScrollLock,1,1,0,29,20,118686697,188445573,92995519,151593804,2070091,10801909,0,31101719,30001909,0,4011060,40700009,0,0,20601819,3090050,20510019,20911319,30210619,21110019,30501409,41510319,11600019,41100809,2001110,0,0,3121041,30910219,1151141,3111180,10410519,-4150100,41911219,0,41910519,20310419,11500909,0,21400119
17,10,2017.61289930437,0,0,723453.477091557,723454.524105866,1,ScrollLock,1,0,0,5,20,128388695,140756155,121896067,92546817,11511909,40311719,20811709,21200609,-1041070,0,31511509,0,2000170,0,31500219,20311419,0,21401009,21800309,21011419,20711719,4020061,10610619,11501209,41012019,0,0,3000001,4161081,10911019,40700119,40201619,2011190,0,11911419,0,2190111,4120150,21101709,11010619
17,11,885.436044540256,0,0,723457.665339732,723458.712407165,1,ScrollLock,1,0,0,16,10,31731599,73944399,40225107,54673658,0,0,20200609,0,0,10500909,0,0,1030081,0,3120011,11600919,11600609,0,0,-3040150,4081091,40501619,3020010,0,10911819,1111070,4161070,10910119,0,0,10111019,0,20600719,0,0,0,0,0,3071020,31001919
17,12,1936.82776077185,1,0,723460.735981495,723461.783045848,1,ScrollLock,1,1,1,2,10,45114319,45453029,64224245,80413798,30110709,-1170100,0,0,1011061,0,0,11811319,1011130,0,0,0,0,0,41311709,1011200,3130120,0,20501309,10500319,0,10410119,0,1100170,11501809,0,10210519,30411419,41801119,0,0,4050190,4151070,0,0,0
17,13,1096.91708732862,1,0,723464.818380396,723465.865460533,1,ScrollLock,1,0,1,11,5,6251241,14782819,76604409,27662380,0,3040050,2150081,0,1061110,0,0,0,0,0,-3081000,11701819,0,0,0,0,0,0,2151131,0,30110309,0,0,11511819,1030131,31801019,0,0,0,4080201,0,0,0,21412019,2170160,0
17,14,1425.36579037551,1,0,723468.112549832,723469.171199344,1,ScrollLock,1,0,1,32,10,28624279,68195439,28712641,98454866,3081111,0,0,11711509,0,0,2021050,0,11810609,2030170,0,3201001,20501109,30411709,0,0,11001419,1050031,0,0,0,3201001,0,21500619,0,4011021,0,10001119,0,21600909,22011819,-4140200,0,40700819,0,0
17,15,1058.60908969771,1,0,723471.794971215,723472.842040958,1,ScrollLock,1,1,1,28,10,45974529,65153537,134165526,30732451,1111020,11111319,0,1041100,2200071,0,0,0,30511019,0,30801719,0,0,21000619,0,3040190,10311009,0,0,1051090,0,0,40700809,30202009,30610009,31601609,0,-3140030,4001061,20410319,0,0,0,3181041,0,0
17,16,828.446589410305,0,0,723474.995023108,723476.042098625,1,ScrollLock,1,0,0,10,20,69575350,92767287,173446115,165623374,0,0,20201819,0,1200041,4041031,2020041,31202009,10910409,-2070201,2200190,3170141,21600919,11711209,0,20511709,20701009,10801909,41700919,40611219,11800809,0,31500019,2030190,21410919,3180131,21211909,41500409,30000419,0,0,30910219,10900809,31500909,20810609,0
17,17,2327.19777128659,1,0,723477.983300617,723479.030429644,1,ScrollLock,1,1,1,31,20,72885568,66124467,97917755,180736883,21700009,4171180,11001519,2100091,2091041,0,10811309,21010419,0,3100111,0,10410409,11910319,4081140,12011319,0,3000160,21611009,1080170,31511919,22001919,0,0,0,12011019,20300809,11011919,21311409,41111019,11900209,-3000180,30700719,10110919,0,21701619,40900809
17,18,1391.86029776465,0,0,723482.46573863,723483.512799904,1,ScrollLock,1,1,0,1,5,19802979,69044489,67344770,0,-2181050,4200200,2120110,0,0,0,0,0,11301619,0,0,0,0,4200111,41701309,2031160,21111909,0,1131111,1081100,0,0,41110909,0,20010619,0,4011031,0,0,0,0,0,0,0,0,0
17,19,1706.25489042141,0,0,723486.042254535,723487.089321198,1,ScrollLock,1,1,0,25,5,28241470,0,61663608,43723029,2200001,1080120,0,0,0,2030010,0,21901209,1030130,0,0,0,0,0,0,0,0,0,0,0,21810709,0,2101170,31501519,-2130050,0,4120160,20311919,0,2111101,0,0,0,0,21300009,0
17,20,1569.67252539471,1,0,723489.865843571,723490.912912159,1,ScrollLock,1,1,1,23,5,23301950,33332479,9574293,64231657,0,0,2050091,0,20201819,0,0,1050040,0,30211309,0,0,3121170,0,0,0,0,0,0,0,2201171,0,-1201011,2131041,4041070,0,0,0,0,0,31600309,20310009,2121030,0,10200309,0
17,21,1201.63765083998,0,0,723493.524722575,723494.571795783,1,ScrollLock,1,0,0,24,0,8213270,10262422,4190130,1201041,4021130,0,0,3151120,1041020,0,0,0,0,4001171,0,3200131,0,3061120,0,0,0,0,0,0,0,0,0,-4190130,0,0,0,0,0,1201041,0,0,0,0,0,0
17,22,1454.52217443381,1,0,723496.924785555,723497.971853758,1,ScrollLock,1,0,1,13,0,2141080,12452473,4121021,4151100,0,0,0,0,2141080,0,0,0,0,0,4011021,0,-2190051,0,3200200,0,3051201,0,0,0,0,0,0,0,0,0,4121021,0,0,1121100,3030000,0,0,0,0,0
17,23,899.404406780377,0,0,723500.513073997,723501.560144125,1,ScrollLock,1,0,0,8,0,3000160,6112421,5231191,5162132,0,0,0,0,0,0,0,-3000160,0,0,1071130,2021110,0,3020181,0,0,0,0,0,0,0,0,4100131,0,1131060,0,0,0,0,0,0,4011011,0,1151121,0,0
17,24,1643.6311249854,1,0,723503.5248858,723504.571950923,1,ScrollLock,1,0,1,21,20,220210454,175854793,117426087,65074060,21511609,30911919,1121190,41501119,40410509,3030161,21111419,40600819,20011709,0,21111019,20811909,10410009,20410209,40510109,21300319,41301219,0,21501809,0,-2160001,0,11200909,40511819,40011409,0,2040140,12001919,1060060,3170021,0,4011031,0,0,3131020,41700009
17,25,1834.94937501382,1,0,723518.419225928,723519.466290281,1,ScrollLock,2,1,1,34,0,6110102,4011061,10432372,5131251,0,0,4100051,0,0,0,2010051,0,0,0,0,0,0,0,0,4011061,0,0,0,0,4170160,0,0,0,4131191,2131021,0,0,2080161,0,0,0,0,-3051090,0,0
17,26,1415.91313621029,0,0,723522.41930061,723523.466366119,1,ScrollLock,2,0,0,13,10,81714247,122816230,39993881,90714168,0,10411719,30101109,0,41201419,0,0,0,0,1191181,0,41311019,-3171111,0,4030101,41301809,0,31811009,0,2161110,0,0,0,0,3081051,31701709,3050011,30810309,41901009,10801619,0,3180190,0,0,4021041,0
17,27,1801.96078831796,1,0,723526.078182695,723527.125252053,1,ScrollLock,2,1,1,25,5,28241470,0,61663608,43723029,2200001,1080120,0,0,0,2030010,0,21901209,1030130,0,0,0,0,0,0,0,0,0,0,0,21810709,0,2101170,31501519,-2130050,0,4120160,20311919,0,2111101,0,0,0,0,21300009,0
17,28,1752.22094601486,0,0,723530.137061546,723531.184134368,1,ScrollLock,2,1,0,23,5,23301950,33332479,9574293,64231657,0,0,2050091,0,20201819,0,0,1050040,0,30211309,0,0,3121170,0,0,0,0,0,0,0,2201171,0,-1201011,2131041,4041070,0,0,0,0,0,31600309,20310009,2121030,0,10200309,0
17,29,794.726959080435,1,0,723533.972424658,723535.019500945,1,ScrollLock,2,0,1,10,0,8452401,4212291,4111192,2170031,0,0,2131180,0,3131021,3190200,0,0,0,-1051141,0,0,0,0,0,0,3161150,0,0,0,3020021,0,0,0,1091171,0,0,0,0,0,0,0,0,0,0,2170031
17,30,1538.10637490824,1,0,723536.831285107,723537.878354465,1,ScrollLock,2,0,1,32,20,150162576,120873795,122956268,46385176,4131021,0,20910309,20800419,31300009,41510809,31510009,0,0,21310809,11800019,0,30600209,3150201,11100209,31001819,10710419,1200110,2001081,30401819,32000109,4080131,10810309,21101309,1051091,21510419,0,0,10410819,0,0,-2151070,10400019,10701809,1110150,11611309
17,31,1246.15817249287,0,0,723540.501934724,723541.549005621,1,ScrollLock,2,1,0,18,10,43832069,70424837,79106046,37363170,0,21410119,0,0,0,1110031,0,0,21311919,31801809,0,10810409,0,0,0,21611409,2101100,-4100110,20511719,0,10502019,0,4100160,1050180,11610819,30310019,1021130,0,0,3121081,0,0,3130080,0,31112009,0
17,32,1159.1077700723,0,0,723543.843152729,723544.890228632,1,ScrollLock,2,0,0,35,10,124945456,11001119,48916011,112173679,30610619,20211419,0,20301219,0,41710019,0,11011119,1101061,0,0,0,11001119,0,0,0,0,0,2061160,1001151,0,0,1121031,3121050,41611619,0,0,0,30510409,30110109,0,4201051,3020191,40310809,-4021110,0
17,33,1368.76794067211,1,0,723547.137338719,723548.184422705,1,ScrollLock,2,0,1,27,5,3191071,73153077,18751830,32424772,0,3191071,0,0,0,0,0,0,0,30300019,10911319,30900719,0,0,0,1041020,0,0,0,4010081,0,0,0,0,0,11601619,-3140130,1151131,4170171,0,1141140,0,0,0,4151121,21811209
17,34,1855.32620700542,0,0,723550.560915974,723551.607976093,1,ScrollLock,2,0,0,5,0,8401282,6200350,8242282,0,0,1190150,0,0,-4081031,0,0,3130101,0,0,0,4190150,0,0,0,2010200,0,0,3051040,0,3000171,0,0,0,2191071,0,0,0,0,0,0,0,0,0,0,0
17,35,1326.58606593031,1,0,723554.478627173,723555.525695761,1,ScrollLock,2,1,1,29,20,118686697,188445573,92995519,151593804,2070091,10801909,0,31101719,30001909,0,4011060,40700009,0,0,20601819,3090050,20510019,20911319,30210619,21110019,30501409,41510319,11600019,41100809,2001110,0,0,3121041,30910219,1151141,3111180,10410519,-4150100,41911219,0,41910519,20310419,11500909,0,21400119
17,36,1292.35520551447,0,0,723557.878670519,723558.925739877,1,ScrollLock,2,1,0,1,5,19802979,69044489,67344770,0,-2181050,4200200,2120110,0,0,0,0,0,11301619,0,0,0,0,4200111,41701309,2031160,21111909,0,1131111,1081100,0,0,41110909,0,20010619,0,4011031,0,0,0,0,0,0,0,0,0
17,37,943.037974881008,1,0,723561.419898842,723562.466972435,1,ScrollLock,2,0,1,16,20,183226484,113498229,116605350,196758003,0,20411519,40001919,41400709,0,40400409,0,20701909,20310019,20700719,40312019,2001091,30500609,11511319,0,-4131101,1141180,3200191,40811019,21110209,0,4140080,1151151,3181171,42010519,0,4201201,30110719,41801209,20812009,11610419,0,0,40311519,10101509,42010619
17,38,813.18552326411,1,0,723564.467075989,723565.514081059,1,ScrollLock,2,0,1,21,10,97696018,78415216,46452619,58504299,4061130,40611619,0,0,21811209,30011919,1200141,0,0,20401619,32001809,11611319,0,0,0,11310419,0,3090050,0,0,-4181100,0,0,0,2170200,0,40101319,1191031,11411609,0,41800419,3030140,0,0,0,1071100
17,39,1600.39560811128,1,0,723567.43175453,723568.478831972,1,ScrollLock,2,0,1,11,5,64052829,48721659,48322170,2101111,21611619,0,0,0,1191091,1040010,0,0,40210109,0,-3130160,0,20101219,2030080,20410109,0,3050091,0,0,0,4110111,0,0,0,40202009,4010050,0,0,0,2101111,0,0,0,0,0,0
17,40,2860.20406614989,0,0,723571.290644622,723572.337720524,1,ScrollLock,2,0,0,8,20,115770268,166647305,95714285,122747605,41211909,21911909,20211109,21811819,2201060,1021160,3201141,-4200161,0,31810309,0,30011209,40911609,1010080,10011609,40112019,11700419,1080051,0,31301019,10500719,0,21311919,0,11200319,21400309,0,31501209,2031000,21601119,0,31202019,11900419,0,20501709,4010130
17,41,881.552158389241,1,0,723576.361311408,723577.40838731,1,ScrollLock,2,1,1,17,0,2020151,7270252,0,8451312,0,0,0,0,0,2020151,0,0,0,0,3040141,2130041,0,0,1100020,0,-1000050,0,0,0,0,0,0,0,0,0,0,0,0,2201041,2140200,0,0,0,4110071,0
17,42,1275.58778133243,0,0,723579.314304799,723580.361371847,1,ScrollLock,2,1,0,20,20,127407147,97826265,132413606,155839905,40111709,10612019,30711819,0,41711409,0,2080100,0,2180091,0,31401919,0,31701209,3201190,0,10010219,11301609,10210119,10300719,-3140080,41400319,0,4160151,0,22000319,11310009,40102009,4101091,2200000,11301709,2110130,40910419,41711719,31301009,11401919,10801909
17,43,1948.26884451322,1,0,723582.655528964,723583.702604481,1,ScrollLock,2,0,1,24,0,0,3110232,9432372,3222171,0,0,0,0,0,0,0,0,0,0,0,0,0,0,0,2090181,0,1020051,0,0,0,0,2141201,-2060030,4200121,0,1031020,0,0,0,0,2121130,1101041,0,0,0
17,44,2021.90176595468,1,0,723586.679181441,723587.726191515,1,ScrollLock,2,1,1,2,10,45114319,45453029,64224245,80413798,30110709,-1170100,0,0,1011061,0,0,11811319,1011130,0,0,0,0,0,41311709,1011200,3130120,0,20501309,10500319,0,10410119,0,1100170,11501809,0,10210519,30411419,41801119,0,0,4050190,4151070,0,0,0
17,45,1254.80173423421,1,0,723590.843888393,723591.89101819,1,ScrollLock,2,1,1,28,10,45974529,65153537,134165526,30732451,1111020,11111319,0,1041100,2200071,0,0,0,30511019,0,30801719,0,0,21000619,0,3040190,10311009,0,0,1051090,0,0,40700809,30202009,30610009,31601609,0,-3140030,4001061,20410319,0,0,0,3181041,0,0
17,46,1837.84198272042,0,0,723594.338065836,723595.385129419,1,ScrollLock,2,1,0,7,0,4131040,7052360,5242472,4181110,0,0,0,0,0,0,-4131040,0,0,0,0,0,0,4051180,0,0,3001180,0,0,1070150,0,0,3081131,0,1091191,0,0,0,3091010,0,0,0,0,0,0,1090100
17,47,2376.88179407269,0,0,723598.244003342,723599.291075395,1,ScrollLock,2,1,0,31,20,72885568,66124467,97917755,180736883,21700009,4171180,11001519,2100091,2091041,0,10811309,21010419,0,3100111,0,10410409,11910319,4081140,12011319,0,3000160,21611009,1080170,31511919,22001919,0,0,0,12011019,20300809,11011919,21311409,41111019,11900209,-3000180,30700719,10110919,0,21701619,40900809
17,48,1671.57131421845,0,0,723602.785249758,723603.8323272,1,ScrollLock,2,0,0,12,5,39232050,63721758,5180142,38162879,31901709,2140030,0,4110130,0,1080181,0,0,0,0,0,-2120130,20701109,40900519,0,0,0,0,0,0,0,0,1090021,0,0,0,4090121,4090131,0,10801309,0,0,0,0,2061020,21210419
17,49,2404.22259666957,1,0,723613.538354865,723614.585430383,1,ScrollLock,3,0,1,5,5,46662490,53394661,31200319,39482560,0,0,3081050,0,-3070021,0,0,40511419,0,41811209,0,0,4191191,0,0,0,3191131,4201130,0,0,0,0,0,0,0,0,31200319,0,21500319,0,2030081,3160091,10710919,2081150,0,0
17,50,1847.18579112086,0,0,723618.126672564,723619.173730373,1,ScrollLock,3,1,0,1,5,19802979,69044489,67344770,0,-2181050,4200200,2120110,0,0,0,0,0,11301619,0,0,0,0,4200111,41701309,2031160,21111909,0,1131111,1081100,0,0,41110909,0,20010619,0,4011031,0,0,0,0,0,0,0,0,0
17,51,1174.24641817342,1,0,723622.138493221,723623.185566428,1,ScrollLock,3,1,1,18,10,43832069,70424837,79106046,37363170,0,21410119,0,0,0,1110031,0,0,21311919,31801809,0,10810409,0,0,0,21611409,2101100,-4100110,20511719,0,10502019,0,4100160,1050180,11610819,30310019,1021130,0,0,3121081,0,0,3130080,0,31112009,0
17,52,1263.86490499135,1,0,723625.47972393,723626.526827935,1,ScrollLock,3,0,1,24,0,0,5171121,9371261,8251141,0,0,0,0,0,0,0,0,0,0,0,0,0,2021081,0,0,3150040,0,0,4181101,0,0,0,-4180020,1010140,0,0,2160040,0,3080080,0,0,0,0,0,3011021
17,53,1912.8161133267,1,0,723628.973934865,723630.020967652,1,ScrollLock,3,0,1,11,5,28512281,74813550,0,43742199,20310919,0,3031170,0,0,0,0,2160101,3010091,3110051,-3090100,3131121,21601219,2070150,0,41810909,0,0,0,0,0,0,0,0,0,0,0,0,0,3040181,0,30200509,0,10501509,0,0
17,54,1644.35408450663,0,0,723633.00925209,723634.056321833,1,ScrollLock,3,1,0,31,20,72885568,66124467,97917755,180736883,21700009,4171180,11001519,2100091,2091041,0,10811309,21010419,0,3100111,0,10410409,11910319,4081140,12011319,0,3000160,21611009,1080170,31511919,22001919,0,0,0,12011019,20300809,11011919,21311409,41111019,11900209,-3000180,30700719,10110919,0,21701619,40900809
17,55,1249.03769162484,0,0,723636.738759769,723637.78579371,1,ScrollLock,3,0,0,35,10,111525478,115333247,37393599,65363399,30301409,4161190,0,3151151,0,0,31900709,0,42011019,41311609,0,0,31110409,1100111,11700909,30110209,0,0,0,0,4121140,0,3071150,0,0,0,30201309,0,0,11600519,0,4171181,4031160,41400419,-4160120,0
17,56,1861.65691434871,0,0,723640.091739532,723641.138840842,1,ScrollLock,3,0,0,12,20,171236146,111014646,160215047,108685365,40202009,40400109,2081010,0,0,41800319,11810519,3041061,31901119,22011919,20200609,-1110020,3010160,0,2180111,31401109,20300709,10800009,0,11501719,40410819,2160121,3131051,31100419,40600009,31310909,0,11211109,20511619,10901109,21110219,41801119,3150190,0,0,0
17,57,907.283818116412,0,0,723644.209428326,723645.256488444,1,ScrollLock,3,1,0,17,0,2020151,7270252,0,8451312,0,0,0,0,0,2020151,0,0,0,0,3040141,2130041,0,0,1100020,0,-1000050,0,0,0,0,0,0,0,0,0,0,0,0,2201041,2140200,0,0,0,4110071,0
17,58,1333.67822901346,1,0,723647.185942922,723648.23301305,1,ScrollLock,3,0,1,13,0,4070021,5221230,8251241,11372110,0,0,0,0,0,0,4070021,0,0,0,0,0,-2111050,3110180,0,0,0,0,0,0,0,0,4060190,4191051,0,0,0,4171020,3170060,0,0,4031030,0,0,0,0
17,59,677.672968828119,1,0,723650.750700919,723651.797801074,1,ScrollLock,3,0,1,10,0,7212402,9303412,0,1071031,1010150,0,0,1050170,0,0,1001011,0,4151071,-3071011,0,0,0,4041200,0,2191201,0,0,0,0,0,0,0,0,0,0,0,0,0,0,0,1071031,0,0,0,0
17,60,1592.19821786974,0,0,723653.668375161,723654.715449523,1,ScrollLock,3,1,0,20,20,127407147,97826265,132413606,155839905,40111709,10612019,30711819,0,41711409,0,2080100,0,2180091,0,31401919,0,31701209,3201190,0,10010219,11301609,10210119,10300719,-3140080,41400319,0,4160151,0,22000319,11310009,40102009,4101091,2200000,11301709,2110130,40910419,41711719,31301009,11401919,10801909
17,61,1224.00319890585,0,0,723657.3625737,723658.409637668,1,ScrollLock,3,1,0,7,0,4131040,7052360,5242472,4181110,0,0,0,0,0,0,-4131040,0,0,0,0,0,0,4051180,0,0,3001180,0,0,1070150,0,0,3081131,0,1091191,0,0,0,3091010,0,0,0,0,0,0,1090100
17,62,1153.2471019309,0,0,723660.786148261,723661.833223008,1,ScrollLock,3,0,0,21,5,4261261,81653339,64781739,16072179,0,0,2030150,0,1061110,1170001,0,0,0,40611619,0,0,0,1040111,0,0,40001609,0,0,0,-3161011,0,0,21110019,0,40510709,0,1071180,0,0,3170080,0,10700819,1130100,0,0
17,63,1567.96560192015,0,0,723664.080325781,723665.127394754,1,ScrollLock,3,1,0,25,5,28241470,0,61663608,43723029,2200001,1080120,0,0,0,2030010,0,21901209,1030130,0,0,0,0,0,0,0,0,0,0,0,21810709,0,2101170,31501519,-2130050,0,4120160,20311919,0,2111101,0,0,0,0,21300009,0
17,64,1867.01212695334,1,0,723667.786288002,723668.833341577,1,ScrollLock,3,0,1,32,20,188905253,127826906,119806966,135245657,11000419,0,32011819,40810219,30810709,30300319,21501109,20310619,2160040,21201919,0,1041090,2061170,41811309,41611309,0,20100109,0,0,31110719,21000509,20502009,20801609,0,1101071,21200919,4090130,2061130,31811219,0,41900709,-3161120,3010151,11400909,0,41900419
17,65,723.205556743778,1,0,723671.892205799,723672.939271692,1,ScrollLock,3,0,1,16,10,71603118,83704469,126162357,37722359,0,0,40201409,0,0,31401709,0,0,0,30700419,0,10510809,4110031,31910909,0,-4150100,1121151,1201050,41900319,0,1041101,0,0,31310009,0,40500109,11410819,4170170,0,0,0,0,0,1060040,30311119,2181030
17,66,1073.19262204692,0,0,723674.692250916,723675.739324124,1,ScrollLock,3,1,0,28,10,45974529,65153537,134165526,30732451,1111020,11111319,0,1041100,2200071,0,0,0,30511019,0,30801719,0,0,21000619,0,3040190,10311009,0,0,1051090,0,0,40700809,30202009,30610009,31601609,0,-3140030,4001061,20410319,0,0,0,3181041,0,0
17,67,734.543470549397,0,0,723677.86877121,723678.915841723,1,ScrollLock,3,0,0,8,20,179806253,110475146,55895406,124016477,41211909,21210309,11300509,41202009,40101109,0,11010019,-2160170,11610219,21512009,1050000,0,2060190,40900409,20901519,0,20910009,3141010,11400519,20001919,2191140,0,0,11600509,10701319,0,0,20011119,4070191,1030090,11201819,21000019,41901719,3000011,0,21801509
17,68,1101.56781866681,1,0,723680.821779615,723681.868831649,1,ScrollLock,3,1,1,34,0,6110102,4011061,10432372,5131251,0,0,4100051,0,0,0,2010051,0,0,0,0,0,0,0,0,4011061,0,0,0,0,4170160,0,0,0,4131191,2131021,0,0,2080161,0,0,0,0,-3051090,0,0
17,69,2037.08930418361,1,0,723683.998280275,723685.045346938,1,ScrollLock,3,1,1,2,10,45114319,45453029,64224245,80413798,30110709,-1170100,0,0,1011061,0,0,11811319,1011130,0,0,0,0,0,41311709,1011200,3130120,0,20501309,10500319,0,10410119,0,1100170,11501809,0,10210519,30411419,41801119,0,0,4050190,4151070,0,0,0
17,70,1158.85100013111,0,0,723688.139571116,723689.186598513,1,ScrollLock,3,0,0,27,10,82574218,104705017,18013401,96332006,0,0,0,4071110,3000170,0,31802009,40500809,3200120,3181170,40001719,0,21010109,0,0,40512019,0,0,3130120,0,10611209,0,2191071,0,0,0,-2081001,21900009,0,0,1020050,31700509,0,0,10801219,30910219
17,71,1372.33461765572,1,0,723691.516040902,723692.563104871,1,ScrollLock,3,1,1,23,5,23301950,33332479,9574293,64231657,0,0,2050091,0,20201819,0,0,1050040,0,30211309,0,0,3121170,0,0,0,0,0,0,0,2201171,0,-1201011,2131041,4041070,0,0,0,0,0,31600309,20310009,2121030,0,10200309,0
17,72,1476.2440653285,1,0,723694.974921909,723696.021988957,1,ScrollLock,3,1,1,29,20,118686697,188445573,92995519,151593804,2070091,10801909,0,31101719,30001909,0,4011060,40700009,0,0,20601819,3090050,20510019,20911319,30210619,21110019,30501409,41510319,11600019,41100809,2001110,0,0,3121041,30910219,1151141,3111180,10410519,-4150100,41911219,0,41910519,20310419,11500909,0,21400119
17,73,2035.86704854388,1,0,723702.516211056,723703.563335463,1,ScrollLock,4,0,1,13,5,72601928,7402582,44880620,18582371,0,0,0,31601309,0,0,0,41000619,0,1191140,3050191,0,-1100121,0,0,0,2061130,0,2130191,0,0,0,0,2140201,0,10100009,30510219,3081061,0,0,11300109,4201201,0,0,0,0
17,74,722.451415262185,1,0,723706.798624124,723707.84570503,1,ScrollLock,4,0,1,10,20,114934775,105418038,149227794,104865598,31500519,10410219,0,31810909,21101409,0,0,20111719,0,-1080141,11611919,3020021,41801519,2081000,21910909,2111110,21801419,0,0,41701919,30501209,10401519,11000519,20911809,10000209,21610409,3100201,31912019,1070110,0,0,4071191,10100309,31510709,22000209,4201051
17,75,1004.84100042377,1,0,723709.763441636,723710.810457099,1,ScrollLock,4,1,1,29,20,118686697,188445573,92995519,151593804,2070091,10801909,0,31101719,30001909,0,4011060,40700009,0,0,20601819,3090050,20510019,20911319,30210619,21110019,30501409,41510319,11600019,41100809,2001110,0,0,3121041,30910219,1151141,3111180,10410519,-4150100,41911219,0,41910519,20310419,11500909,0,21400119
17,76,3038.79738261458,0,0,723712.963431165,723714.010499753,1,ScrollLock,4,1,0,28,10,45974529,65153537,134165526,30732451,1111020,11111319,0,1041100,2200071,0,0,0,30511019,0,30801719,0,0,21000619,0,3040190,10311009,0,0,1051090,0,0,40700809,30202009,30610009,31601609,0,-3140030,4001061,20410319,0,0,0,3181041,0,0
17,77,1604.17940397747,1,0,723718.198806057,723719.245885424,1,ScrollLock,4,0,1,5,5,20574391,63433719,44031460,16603382,0,0,4170180,0,-2201101,0,0,11111909,3091201,0,0,41401919,0,20000609,2031191,0,0,0,0,0,0,40910309,3121151,0,0,0,0,0,11301109,3071111,0,0,1161141,0,1070021,0
17,78,944.86346677877,0,0,723722.022392013,723723.06946599,1,ScrollLock,4,1,0,20,20,127407147,97826265,132413606,155839905,40111709,10612019,30711819,0,41711409,0,2080100,0,2180091,0,31401919,0,31701209,3201190,0,10010219,11301609,10210119,10300719,-3140080,41400319,0,4160151,0,22000319,11310009,40102009,4101091,2200000,11301709,2110130,40910419,41711719,31301009,11401919,10801909
17,79,665.083927102387,0,0,723725.187157863,723726.234219137,1,ScrollLock,4,0,0,21,20,108361267,170423794,101073678,182967524,0,30400319,1110151,4140150,30100419,0,31800019,0,10810209,21000109,2201120,41910709,41700409,0,0,30200009,21410219,12001219,4171191,0,-2080040,0,30400009,2021010,31101219,31300209,0,41610109,40210719,11501809,10000819,2141181,4100040,21201619,31200209,21001019
17,80,1443.99114197586,1,0,723727.998960889,723729.046032941,1,ScrollLock,4,1,1,7,0,4131040,7052360,5242472,4181110,0,0,0,0,0,0,-4131040,0,0,0,0,0,0,4051180,0,0,3001180,0,0,1070150,0,0,3081131,0,1091191,0,0,0,3091010,0,0,0,0,0,0,1090100
17,81,1654.23029591329,1,0,723731.610784009,723732.657855292,1,ScrollLock,4,1,1,2,10,45114319,45453029,64224245,80413798,30110709,-1170100,0,0,1011061,0,0,11811319,1011130,0,0,0,0,0,41311709,1011200,3130120,0,20501309,10500319,0,10410119,0,1100170,11501809,0,10210519,30411419,41801119,0,0,4050190,4151070,0,0,0
17,82,989.093726617284,0,0,723735.352061915,723736.399140127,1,ScrollLock,4,0,0,27,0,0,11063431,12332322,5072392,0,0,0,0,0,0,0,0,0,3011130,0,0,0,0,0,0,4001181,4051120,0,4071081,0,0,0,4110131,0,0,-4151110,0,3031191,0,0,0,0,2041201,0,0
17,83,802.748421556316,0,0,723738.446181383,723739.493266139,1,ScrollLock,4,1,0,23,5,23301950,33332479,9574293,64231657,0,0,2050091,0,20201819,0,0,1050040,0,30211309,0,0,3121170,0,0,0,0,0,0,0,2201171,0,-1201011,2131041,4041070,0,0,0,0,0,31600309,20310009,2121030,0,10200309,0
17,84,1508.41653149109,1,0,723741.434461201,723742.481534794,1,ScrollLock,4,0,1,24,10,61795088,90695158,58412709,86112898,2081000,11111809,4161020,41400209,3041050,0,0,0,0,30910009,20800419,11611719,0,2101071,21201809,0,0,4070131,0,0,0,0,2151091,-4040080,0,21210219,31011319,0,0,0,40310119,4201170,0,0,41601609,0
17,85,1595.34336102661,1,0,723745.128634333,723746.175711775,1,ScrollLock,4,1,1,1,5,19802979,69044489,67344770,0,-2181050,4200200,2120110,0,0,0,0,0,11301619,0,0,0,0,4200111,41701309,2031160,21111909,0,1131111,1081100,0,0,41110909,0,20010619,0,4011031,0,0,0,0,0,0,0,0,0
17,86,2582.83824089449,0,0,723748.905174029,723749.952235687,1,ScrollLock,4,1,0,25,5,28241470,0,61663608,43723029,2200001,1080120,0,0,0,2030010,0,21901209,1030130,0,0,0,0,0,0,0,0,0,0,0,21810709,0,2101170,31501519,-2130050,0,4120160,20311919,0,2111101,0,0,0,0,21300009,0
17,87,1442.99678388052,1,0,723753.728777308,723754.775841276,1,ScrollLock,4,0,1,12,10,40832308,57620968,92512178,94073328,0,21300709,4171180,0,11200409,0,0,0,4160010,31810519,2080150,-2020090,21710209,0,0,0,0,0,11701009,0,0,41610119,32000009,0,0,3160030,4041011,0,0,1140000,0,20110209,41601409,0,1121191,30100519
17,88,1288.33157802001,1,0,723757.246463637,723758.293553013,1,ScrollLock,4,0,1,35,20,167778324,134114496,99623237,137306005,30610309,1021130,40201519,0,20401909,11801309,40600519,3031110,20110519,40310409,4000080,4000090,41911509,0,30511009,0,11311219,2070180,2090171,0,31300419,0,2031010,31500909,21500009,11200719,0,31200709,20302009,0,0,10201019,10100409,30501619,-3200021,31800219
17,89,2033.77169789746,0,0,723760.670063221,723761.717131424,1,ScrollLock,4,1,0,31,20,72885568,66124467,97917755,180736883,21700009,4171180,11001519,2100091,2091041,0,10811309,21010419,0,3100111,0,10410409,11910319,4081140,12011319,0,3000160,21611009,1080170,31511919,22001919,0,0,0,12011019,20300809,11011919,21311409,41111019,11900209,-3000180,30700719,10110919,0,21701619,40900809
17,90,1098.21826056577,0,0,723764.7995284,723765.846597373,1,ScrollLock,4,0,0,32,0,7251211,5392062,3020100,8172091,0,0,0,0,0,4160080,0,0,3091131,0,0,0,0,3161011,0,1100011,0,1131040,0,0,0,0,0,0,0,3020100,0,4111031,0,0,0,-4061060,0,0,0,0
17,91,1313.31371574197,0,0,723768.10549809,723769.152532801,1,ScrollLock,4,1,0,34,0,6110102,4011061,10432372,5131251,0,0,4100051,0,0,0,2010051,0,0,0,0,0,0,0,0,4011061,0,0,0,0,4170160,0,0,0,4131191,2131021,0,0,2080161,0,0,0,0,-3051090,0,0
17,92,825.013879337348,0,0,723771.634942327,723772.682006296,1,ScrollLock,4,0,0,16,0,1070051,5142351,7112191,6170390,0,0,1070051,0,0,0,0,0,0,0,0,0,0,0,1041180,-4101171,0,0,4051081,0,3061110,0,0,0,0,0,0,1020190,1150020,4000180,0,0,0,0,0,0
17,93,920.560402795672,1,0,723774.682072509,723775.729121079,1,ScrollLock,4,0,1,11,10,55032308,36153819,106153516,59145098,0,0,2130090,0,0,31701709,0,21200509,0,3190020,-1150071,20611709,0,0,0,0,11202019,0,20010819,0,21600809,0,31710209,0,1020170,0,31811509,1130180,0,1011140,1190000,4001050,30411719,0,21401009,0
17,94,888.776363688521,0,0,723777.69385082,723778.740912479,1,ScrollLock,4,0,0,8,5,16654260,113715848,36092540,3251161,0,0,0,0,2151120,0,1071161,-3031160,10400819,1101011,0,0,40201819,0,0,41211909,31201109,0,0,0,1161130,0,3031091,0,0,31900319,0,0,0,0,0,2130111,0,0,1121050,0
17,95,874.212464434095,0,0,723780.717474041,723781.764491044,1,ScrollLock,4,1,0,18,10,43832069,70424837,79106046,37363170,0,21410119,0,0,0,1110031,0,0,21311919,31801809,0,10810409,0,0,0,21611409,2101100,-4100110,20511719,0,10502019,0,4100160,1050180,11610819,30310019,1021130,0,0,3121081,0,0,3130080,0,31112009,0
17,96,730.297719710507,1,0,723783.823369509,723784.870425394,1,ScrollLock,4,1,1,17,0,2020151,7270252,0,8451312,0,0,0,0,0,2020151,0,0,0,0,3040141,2130041,0,0,1100020,0,-1000050,0,0,0,0,0,0,0,0,0,0,0,0,2201041,2140200,0,0,0,4110071,0
17,97,1978.75325044151,0,0,723789.952852397,723790.999955632,1,ScrollLock,5,1,0,7,0,4131040,7052360,5242472,4181110,0,0,0,0,0,0,-4131040,0,0,0,0,0,0,4051180,0,0,3001180,0,0,1070150,0,0,3081131,0,1091191,0,0,0,3091010,0,0,0,0,0,0,1090100
17,98,669.250760576688,0,0,723794.023506864,723795.070579687,1,ScrollLock,5,0,0,16,20,185747083,113927167,101606139,111786127,11210609,40610509,32011609,20400519,0,10211009,40301609,0,31001219,0,31900619,2160201,10811509,21111609,31400409,-2030091,3011120,11501609,31301709,31000719,3151091,0,1030081,0,2001101,21311419,11810019,4001030,0,21701909,30700919,10900109,0,0,4171141,40311019
17,99,1561.27187504899,0,0,723796.92944822,723797.976507954,1,ScrollLock,5,1,0,2,10,45114319,45453029,64224245,80413798,30110709,-1170100,0,0,1011061,0,0,11811319,1011130,0,0,0,0,0,41311709,1011200,3130120,0,20501309,10500319,0,10410119,0,1100170,11501809,0,10210519,30411419,41801119,0,0,4050190,4151070,0,0,0
17,100,1556.6815828206,1,0,723800.611895781,723801.658916633,1,ScrollLock,5,1,1,20,20,127407147,97826265,132413606,155839905,40111709,10612019,30711819,0,41711409,0,2080100,0,2180091,0,31401919,0,31701209,3201190,0,10010219,11301609,10210119,10300719,-3140080,41400319,0,4160151,0,22000319,11310009,40102009,4101091,2200000,11301709,2110130,40910419,41711719,31301009,11401919,10801909
17,101,1189.66108432505,0,0,723804.353084375,723805.400158738,1,ScrollLock,5,1,0,29,20,118686697,188445573,92995519,151593804,2070091,10801909,0,31101719,30001909,0,4011060,40700009,0,0,20601819,3090050,20510019,20911319,30210619,21110019,30501409,41510319,11600019,41100809,2001110,0,0,3121041,30910219,1151141,3111180,10410519,-4150100,41911219,0,41910519,20310419,11500909,0,21400119
17,102,1921.3996209437,1,0,723807.647257661,723808.694320859,1,ScrollLock,5,1,1,1,5,19802979,69044489,67344770,0,-2181050,4200200,2120110,0,0,0,0,0,11301619,0,0,0,0,4200111,41701309,2031160,21111909,0,1131111,1081100,0,0,41110909,0,20010619,0,4011031,0,0,0,0,0,0,0,0,0
17,103,1310.74178172275,1,0,723811.776735544,723812.823798742,1,ScrollLock,5,0,1,35,10,94627007,44152379,107215058,60973520,0,31101919,1021160,0,0,0,41501919,0,21002009,0,1200070,0,41801219,1151090,0,0,0,0,20311709,11611719,2061181,0,40500319,0,0,2020111,30710019,3040031,3070131,11111709,0,0,0,41700619,-2051030,0
17,104,949.155413080007,0,0,723815.15326808,723816.200315495,1,ScrollLock,5,0,0,27,20,220528613,91078196,62526169,146475016,0,40311419,30211009,42010209,41711919,10501309,20902019,3170110,31710619,2201020,0,11311209,20501209,31811509,0,4041021,10501919,10710309,0,2160111,0,21710909,11711019,2010090,1001000,20811909,-3121131,0,0,30300319,41501819,21701209,40010619,1160131,11800919,0
17,105,1023.38156150654,0,0,723818.306239836,723819.353309579,1,ScrollLock,5,1,0,23,5,23301950,33332479,9574293,64231657,0,0,2050091,0,20201819,0,0,1050040,0,30211309,0,0,3121170,0,0,0,0,0,0,0,2201171,0,-1201011,2131041,4041070,0,0,0,0,0,31600309,20310009,2121030,0,10200309,0
17,106,1661.2908920506,1,0,723821.518048867,723822.565129773,1,ScrollLock,5,0,1,5,0,9231202,0,1050110,9503253,0,0,0,0,-4130070,0,1081001,4020131,0,0,0,0,0,0,0,0,0,0,0,0,1050110,0,0,0,0,0,0,0,2161100,0,1051101,2140021,0,0,4151031,0
17,107,1193.05375823751,1,0,723825.400465938,723826.447539145,1,ScrollLock,5,0,1,24,10,113335826,68972209,73377049,23161650,10111619,10010519,30701119,1111051,0,21301409,40100109,0,0,0,30801819,0,30910209,3120091,0,0,4140090,0,1041031,0,1030100,32011819,4041110,-4151180,0,0,31101809,20100619,0,3061031,0,0,0,0,0,0
17,108,743.79219324328,1,0,723828.835813805,723829.882887013,1,ScrollLock,5,0,1,21,5,11210419,6303392,65976727,3160242,0,0,11210419,0,0,0,0,0,0,0,0,1071131,3201091,0,2031170,0,0,0,4101020,0,-2191110,20600919,4171021,0,12000219,11511519,11400919,2110101,1050141,0,0,0,0,0,0,0
17,109,859.209323185496,0,0,723831.671156129,723832.718223947,1,ScrollLock,5,1,0,17,0,2020151,7270252,0,8451312,0,0,0,0,0,2020151,0,0,0,0,3040141,2130041,0,0,1100020,0,-1000050,0,0,0,0,0,0,0,0,0,0,0,0,2201041,2140200,0,0,0,4110071,0
17,110,2003.25918977614,1,0,723834.730022661,723835.777115117,1,ScrollLock,5,0,1,10,0,0,5161311,6510271,5171282,0,0,0,0,0,0,0,0,0,-1000121,0,0,4161190,0,0,0,0,0,0,0,0,1170200,0,0,1140041,4200030,0,0,0,2060030,0,1081141,0,0,2030111,0
17,111,1643.05291150231,0,0,723838.96537792,723840.012453822,1,ScrollLock,5,1,0,31,20,72885568,66124467,97917755,180736883,21700009,4171180,11001519,2100091,2091041,0,10811309,21010419,0,3100111,0,10410409,11910319,4081140,12011319,0,3000160,21611009,1080170,31511919,22001919,0,0,0,12011019,20300809,11011919,21311409,41111019,11900209,-3000180,30700719,10110919,0,21701619,40900809
17,112,1174.18713390362,1,0,723842.671327053,723843.718393716,1,ScrollLock,5,0,1,32,0,4220072,1150030,6210231,11361372,0,0,1170031,0,0,0,0,3050041,0,0,0,0,0,0,0,0,0,1150030,0,0,0,0,3190031,0,0,3020200,0,0,4060171,0,0,-3100081,0,4201120,0,0
17,113,1294.55950041302,0,0,723845.906667298,723846.953737426,1,ScrollLock,5,1,0,28,10,45974529,65153537,134165526,30732451,1111020,11111319,0,1041100,2200071,0,0,0,30511019,0,30801719,0,0,21000619,0,3040190,10311009,0,0,1051090,0,0,40700809,30202009,30610009,31601609,0,-3140030,4001061,20410319,0,0,0,3181041,0,0
17,114,1726.05042916257,1,0,723849.424372491,723850.471472261,1,ScrollLock,5,1,1,25,5,28241470,0,61663608,43723029,2200001,1080120,0,0,0,2030010,0,21901209,1030130,0,0,0,0,0,0,0,0,0,0,0,21810709,0,2101170,31501519,-2130050,0,4120160,20311919,0,2111101,0,0,0,0,21300009,0
17,115,1097.20003488474,1,0,723853.236192454,723854.283257578,1,ScrollLock,5,0,1,11,5,56253078,50942072,17194300,15441809,0,0,40501319,0,4050150,0,0,11701609,0,41501719,-2180021,3100041,2100090,0,0,0,0,2060201,2131100,0,0,10902009,4161191,0,0,0,0,0,0,0,0,0,11400719,0,4041090,0
17,116,1323.32581898663,0,0,723856.400946756,723857.448013419,1,ScrollLock,5,1,0,18,10,43832069,70424837,79106046,37363170,0,21410119,0,0,0,1110031,0,0,21311919,31801809,0,10810409,0,0,0,21611409,2101100,-4100110,20511719,0,10502019,0,4100160,1050180,11610819,30310019,1021130,0,0,3121081,0,0,3130080,0,31112009,0
17,117,1239.15147106163,1,0,723859.801038223,723860.848066775,1,ScrollLock,5,0,1,12,5,13932691,65341478,18872450,43571620,0,0,2151001,1080071,0,0,10701619,0,0,0,0,-2030070,0,1011090,0,0,21700209,40600109,0,0,0,3001151,4071080,0,0,11800219,0,0,1121160,0,40410309,2040151,0,0,0,0
17,118,1324.87067324109,0,0,723863.189281316,723864.236379161,1,ScrollLock,5,0,0,13,10,43621909,84212268,88894958,112145169,10410219,0,31100509,0,0,0,2111181,0,0,42000419,0,0,-2100140,0,0,0,0,40111709,30101819,21011809,0,0,0,2070040,2120191,2180190,31410909,4001031,3181120,0,0,0,31410419,41411909,2130181,30010509
17,119,1512.79624924064,1,0,723866.74228872,723867.789361927,1,ScrollLock,5,0,1,8,20,149046545,137944475,113326255,148908488,11800009,21411409,40711809,0,41500609,0,30311519,-2151040,1160150,0,31010309,21800719,0,0,0,21610019,21711519,41811909,10101509,31810919,1060070,10610719,30301719,4040180,4100020,0,21301119,40400119,21612019,1131081,0,1061011,10511619,2070011,40910809,31211819
17,120,1513.84103728924,0,0,723870.436454922,723871.48352505,1,ScrollLock,5,1,0,34,0,6110102,4011061,10432372,5131251,0,0,4100051,0,0,0,2010051,0,0,0,0,0,0,0,0,4011061,0,0,0,0,4170160,0,0,0,4131191,2131021,0,0,2080161,0,0,0,0,-3051090,0,0
17,121,2460.73469833937,1,0,723877.248376901,723878.295428935,1,ScrollLock,6,1,1,34,0,6110102,4011061,10432372,5131251,0,0,4100051,0,0,0,2010051,0,0,0,0,0,0,0,0,4011061,0,0,0,0,4170160,0,0,0,4131191,2131021,0,0,2080161,0,0,0,0,-3051090,0,0
17,122,917.034531710669,1,0,723881.86016268,723882.907277463,1,ScrollLock,6,1,1,28,10,45974529,65153537,134165526,30732451,1111020,11111319,0,1041100,2200071,0,0,0,30511019,0,30801719,0,0,21000619,0,3040190,10311009,0,0,1051090,0,0,40700809,30202009,30610009,31601609,0,-3140030,4001061,20410319,0,0,0,3181041,0,0
17,123,992.342809797265,0,0,723884.977891894,723886.024923526,1,ScrollLock,6,0,0,11,10,61125280,23142221,77511349,162836365,4061111,2051021,0,3090120,10412009,0,41511019,0,0,0,-4110041,4190061,0,0,0,4141200,0,10700919,0,3160020,0,2130111,0,0,41210209,0,31011009,0,31810809,0,40101909,40311219,10310809,0,0,40301619
17,124,1058.87124920264,1,0,723888.11908303,723889.166148538,1,ScrollLock,6,1,1,18,10,43832069,70424837,79106046,37363170,0,21410119,0,0,0,1110031,0,0,21311919,31801809,0,10810409,0,0,0,21611409,2101100,-4100110,20511719,0,10502019,0,4100160,1050180,11610819,30310019,1021130,0,0,3121081,0,0,3130080,0,31112009,0
17,125,2035.71922297124,1,0,723891.413260935,723892.460322978,1,ScrollLock,6,0,1,13,5,87965678,52743698,4152131,8082472,11711609,0,0,0,31402019,2081141,41610909,1160000,0,0,40601909,0,-2030080,0,0,0,0,10111709,0,0,0,1081131,0,0,3071000,0,0,0,0,3071141,0,4011140,0,1000191,0,0
17,126,1461.13043976948,0,0,723895.683904161,723896.730979293,1,ScrollLock,6,1,0,31,20,72885568,66124467,97917755,180736883,21700009,4171180,11001519,2100091,2091041,0,10811309,21010419,0,3100111,0,10410409,11910319,4081140,12011319,0,3000160,21611009,1080170,31511919,22001919,0,0,0,12011019,20300809,11011919,21311409,41111019,11900209,-3000180,30700719,10110919,0,21701619,40900809
17,127,1220.42266326025,0,0,723899.354554547,723900.40162737,1,ScrollLock,6,1,0,1,5,19802979,69044489,67344770,0,-2181050,4200200,2120110,0,0,0,0,0,11301619,0,0,0,0,4200111,41701309,2031160,21111909,0,1131111,1081100,0,0,41110909,0,20010619,0,4011031,0,0,0,0,0,0,0,0,0
17,128,1450.23330789991,0,0,723902.754610982,723903.801678031,1,ScrollLock,6,0,0,24,0,0,2001021,6341311,10412533,0,0,0,0,0,0,0,0,0,0,0,2001021,0,0,0,0,0,0,0,0,3121110,0,1200060,-2020141,0,0,0,3071121,2161160,0,3130101,0,0,0,0,2050151
17,129,1342.28213969618,0,0,723906.354659642,723907.401733619,1,ScrollLock,6,1,0,23,5,23301950,33332479,9574293,64231657,0,0,2050091,0,20201819,0,0,1050040,0,30211309,0,0,3121170,0,0,0,0,0,0,0,2201171,0,-1201011,2131041,4041070,0,0,0,0,0,31600309,20310009,2121030,0,10200309,0
17,130,867.122611147352,0,0,723909.942953088,723910.990016286,1,ScrollLock,6,1,0,17,0,2020151,7270252,0,8451312,0,0,0,0,0,2020151,0,0,0,0,3040141,2130041,0,0,1100020,0,-1000050,0,0,0,0,0,0,0,0,0,0,0,0,2201041,2140200,0,0,0,4110071,0
17,131,1495.07565808017,0,0,723912.907702462,723913.95476797,1,ScrollLock,6,0,0,32,20,99165908,216775825,147035446,136934916,11300809,0,1171200,1190011,40800809,10611709,0,31901309,2190061,41800709,40911019,0,1040051,40011409,40501209,20610419,0,31901009,41310109,3090160,10201619,31210909,4010191,11711209,4091140,41410109,0,0,0,10610309,40901219,-2011051,11700509,31200619,40511209,0
17,132,1785.38854012731,1,0,723916.566588011,723917.613655059,1,ScrollLock,6,0,1,5,20,116394767,108343108,127805247,175259383,31201009,40010319,1010120,0,-1050091,0,31200309,10901719,1021200,30400309,41501119,0,20610209,0,0,10500219,1181171,4150081,4061091,31000119,2010171,11610309,4191020,41811709,21110019,12010809,0,30611609,40310609,10611609,0,10011809,21211119,0,21001419,41501209
17,133,1106.12076951656,0,0,723920.566646525,723921.613717423,1,ScrollLock,6,0,0,10,0,2271091,2081100,3040071,12631471,0,0,1091050,0,0,1180041,0,0,0,-2081100,0,0,0,0,0,0,0,0,0,0,0,0,0,0,0,0,3040071,1150001,0,0,0,3171190,4130110,0,4180170,0
17,134,1223.08198385872,0,0,723923.754931656,723924.802017952,1,ScrollLock,6,0,0,35,10,116222638,65312678,88414159,28352609,41900419,1141171,30500919,0,1170010,41510119,0,0,0,0,0,10100119,21601809,0,31510519,0,1100151,1000080,0,0,0,0,1071200,4121021,41810419,41411519,0,0,11611419,0,10500009,0,0,0,-4101090,2140091
17,135,1305.91897224076,0,0,723927.049097242,723928.096173145,1,ScrollLock,6,0,0,21,0,3181111,7450232,8202491,1001201,0,3181111,0,0,0,0,0,0,0,0,0,4140120,0,0,0,2160041,0,1150071,1021130,0,-4121190,0,0,0,0,0,3060171,0,1001201,0,0,0,0,0,0,0
17,136,988.847735687159,0,0,723930.413851082,723931.460927369,1,ScrollLock,6,0,0,27,5,46211850,7382371,42702050,44953958,0,22001219,0,1110031,0,20900519,2200081,0,0,1160101,0,0,3151070,0,0,3071200,0,0,0,41512019,0,0,0,0,0,0,-1190031,22001709,0,0,20811009,0,1070180,1071060,0,0
17,137,2072.72951223422,1,0,723933.660958089,723934.708082497,1,ScrollLock,6,1,1,2,10,45114319,45453029,64224245,80413798,30110709,-1170100,0,0,1011061,0,0,11811319,1011130,0,0,0,0,0,41311709,1011200,3130120,0,20501309,10500319,0,10410119,0,1100170,11501809,0,10210519,30411419,41801119,0,0,4050190,4151070,0,0,0
17,138,887.837825226597,1,0,723937.872797917,723938.919878824,1,ScrollLock,6,0,1,16,10,126206087,37142179,30811728,41643239,4051181,30901609,0,42000509,2101150,31110219,4040000,12001419,0,0,0,21311509,0,11800509,0,-4030161,0,0,0,0,10110109,0,20701619,0,0,0,0,0,0,1170030,4030161,20200609,12011119,0,2191140,2040180
17,139,2723.08814316057,0,0,723940.837550756,723941.884614339,1,ScrollLock,6,1,0,25,5,28241470,0,61663608,43723029,2200001,1080120,0,0,0,2030010,0,21901209,1030130,0,0,0,0,0,0,0,0,0,0,0,21810709,0,2101170,31501519,-2130050,0,4120160,20311919,0,2111101,0,0,0,0,21300009,0
17,140,1378.4763085423,1,0,723945.708212614,723946.755276198,1,ScrollLock,6,0,1,12,5,60083169,34714440,2061110,53853129,2141091,11200019,40600719,0,0,0,4041160,2100180,0,1071110,0,-1090170,0,0,30512009,0,2041151,0,0,0,0,0,0,0,2061110,0,0,21911809,0,0,1031201,0,30910119,0,0,0
17,141,963.399793370627,1,0,723949.261211164,723950.308281676,1,ScrollLock,6,1,1,29,20,118686697,188445573,92995519,151593804,2070091,10801909,0,31101719,30001909,0,4011060,40700009,0,0,20601819,3090050,20510019,20911319,30210619,21110019,30501409,41510319,11600019,41100809,2001110,0,0,3121041,30910219,1151141,3111180,10410519,-4150100,41911219,0,41910519,20310419,11500909,0,21400119
17,142,1150.3133031074,1,0,723952.449486285,723953.496557953,1,ScrollLock,6,1,1,7,0,4131040,7052360,5242472,4181110,0,0,0,0,0,0,-4131040,0,0,0,0,0,0,4051180,0,0,3001180,0,0,1070150,0,0,3081131,0,1091191,0,0,0,3091010,0,0,0,0,0,0,1090100
17,143,1025.80336027313,1,0,723955.684835,723956.731913982,1,ScrollLock,6,1,1,20,20,127407147,97826265,132413606,155839905,40111709,10612019,30711819,0,41711409,0,2080100,0,2180091,0,31401919,0,31701209,3201190,0,10010219,11301609,10210119,10300719,-3140080,41400319,0,4160151,0,22000319,11310009,40102009,4101091,2200000,11301709,2110130,40910419,41711719,31301009,11401919,10801909
17,144,870.84789283108,0,0,723958.93201361,723959.97901098,1,ScrollLock,6,0,0,8,20,51786938,141566196,190576825,140427204,0,20402019,3201080,0,11501309,11511209,0,-3121190,2050131,4171140,0,0,41901219,31901709,31410619,2170000,30011509,0,30210119,0,3090000,30910719,20601509,21511709,41110909,42001709,1140151,30501119,4200011,11400909,10201309,10701619,31810109,31501619,0,10110509
17,145,974.395475583151,0,0,723965.426156022,723966.473227689,1,ScrollLock,7,1,0,28,10,45974529,65153537,134165526,30732451,1111020,11111319,0,1041100,2200071,0,0,0,30511019,0,30801719,0,0,21000619,0,3040190,10311009,0,0,1051090,0,0,40700809,30202009,30610009,31601609,0,-3140030,4001061,20410319,0,0,0,3181041,0,0
17,146,1160.41086788755,0,0,723968.532098071,723969.579160115,1,ScrollLock,7,1,0,7,0,4131040,7052360,5242472,4181110,0,0,0,0,0,0,-4131040,0,0,0,0,0,0,4051180,0,0,3001180,0,0,1070150,0,0,3081131,0,1091191,0,0,0,3091010,0,0,0,0,0,0,1090100
17,147,1298.5908271512,1,0,723971.838026954,723972.885102857,1,ScrollLock,7,1,1,23,5,23301950,33332479,9574293,64231657,0,0,2050091,0,20201819,0,0,1050040,0,30211309,0,0,3121170,0,0,0,0,0,0,0,2201171,0,-1201011,2131041,4041070,0,0,0,0,0,31600309,20310009,2121030,0,10200309,0
17,148,1962.87277969532,1,0,723975.355732147,723976.402794191,1,ScrollLock,7,0,1,24,20,126285446,100377663,54054229,168316826,21400319,0,1041061,0,0,40310209,20511719,31410819,11611319,21810409,11511519,21811319,2021050,10600419,10401609,11010719,0,11210619,1121000,20310309,0,0,4141060,-3011150,21310619,0,4160091,11501309,0,12000019,4180021,4101131,11100609,41811309,41711009,41911419
17,149,1122.77693953365,0,0,723979.567556961,723980.614676364,1,ScrollLock,7,0,0,5,5,14422543,25931049,78984727,7171111,0,0,0,0,-4071171,4121200,3100041,0,3130131,0,0,0,0,0,0,4120140,21810909,0,0,0,11510509,3060081,11500909,0,31601609,21311619,0,0,0,3010010,0,0,0,4161101,0,0
17,150,1033.00985717215,1,0,723982.87349085,723983.920563287,1,ScrollLock,7,0,1,13,0,0,7242081,8311351,3181392,0,0,0,0,0,0,0,0,0,0,0,3171051,-4071030,0,0,0,0,0,0,0,0,2010180,2121060,4180111,0,0,0,0,0,0,0,1010070,1040181,1131141,0,0
17,151,1177.46932373848,1,0,723986.002952949,723987.050025387,1,ScrollLock,7,1,1,25,5,28241470,0,61663608,43723029,2200001,1080120,0,0,0,2030010,0,21901209,1030130,0,0,0,0,0,0,0,0,0,0,0,21810709,0,2101170,31501519,-2130050,0,4120160,20311919,0,2111101,0,0,0,0,21300009,0
17,152,1043.33301004954,0,0,723989.403003225,723990.450070658,1,ScrollLock,7,0,0,27,5,40100109,50481741,33360810,28752111,0,0,0,0,0,0,0,0,40100109,4190101,0,0,3140061,0,20901219,0,2150051,20100309,0,0,0,0,0,31310619,0,1010051,-1040140,0,3190021,3020140,20501919,0,0,2040031,0,0
17,153,1015.00939833932,1,0,723992.62661328,723993.673656845,1,ScrollLock,7,1,1,34,0,6110102,4011061,10432372,5131251,0,0,4100051,0,0,0,2010051,0,0,0,0,0,0,0,0,4011061,0,0,0,0,4170160,0,0,0,4131191,2131021,0,0,2080161,0,0,0,0,-3051090,0,0
17,154,1495.14572124463,1,0,723995.791341019,723996.838401908,1,ScrollLock,7,0,1,8,5,48523799,45323487,28500370,8251371,0,0,3011080,41501519,0,0,0,-4011200,0,0,11211919,22000509,0,0,1110140,0,0,11000919,21100319,3200011,0,0,0,4200040,0,0,0,0,0,0,2071181,0,3060060,3120130,0,0
17,155,1049.76265283767,0,0,723999.379633695,724000.426699589,1,ScrollLock,7,1,0,17,0,2020151,7270252,0,8451312,0,0,0,0,0,2020151,0,0,0,0,3040141,2130041,0,0,1100020,0,-1000050,0,0,0,0,0,0,0,0,0,0,0,0,2201041,2140200,0,0,0,4110071,0
17,156,1025.24516475387,0,0,724002.662010192,724003.709101107,1,ScrollLock,7,1,0,18,10,43832069,70424837,79106046,37363170,0,21410119,0,0,0,1110031,0,0,21311919,31801809,0,10810409,0,0,0,21611409,2101100,-4100110,20511719,0,10502019,0,4100160,1050180,11610819,30310019,1021130,0,0,3121081,0,0,3130080,0,31112009,0
17,157,1103.79444144201,1,0,724005.932668816,724006.979743179,1,ScrollLock,7,0,1,32,10,45433957,58584288,47830379,60354158,0,11301619,20610519,2110000,0,0,0,0,11411819,0,11611719,3110091,0,0,10911019,1050150,31901309,0,0,3100200,40710009,0,0,4020170,0,0,0,0,10110009,0,21311619,-3070151,3181040,0,2080120,20601219
17,158,884.97370458208,0,0,724009.191549515,724010.238632731,1,ScrollLock,7,1,0,20,20,127407147,97826265,132413606,155839905,40111709,10612019,30711819,0,41711409,0,2080100,0,2180091,0,31401919,0,31701209,3201190,0,10010219,11301609,10210119,10300719,-3140080,41400319,0,4160151,0,22000319,11310009,40102009,4101091,2200000,11301709,2110130,40910419,41711719,31301009,11401919,10801909
17,159,646.226156735793,0,0,724012.262178959,724013.309247932,1,ScrollLock,7,0,0,16,20,60098016,109854117,130987658,125543494,2011000,11211319,0,1130060,2001161,11811019,11412019,10410219,10111219,0,30410409,0,3160061,11800709,40511209,-3170020,20801709,0,10710419,0,10310209,2021191,40310919,2131171,3201021,41901609,20401119,30211519,30300009,31710219,11010919,0,0,10700719,0,11610109
17,160,1902.51875296235,1,0,724014.979870216,724016.026936879,1,ScrollLock,7,1,1,31,20,72885568,66124467,97917755,180736883,21700009,4171180,11001519,2100091,2091041,0,10811309,21010419,0,3100111,0,10410409,11910319,4081140,12011319,0,3000160,21611009,1080170,31511919,22001919,0,0,0,12011019,20300809,11011919,21311409,41111019,11900209,-3000180,30700719,10110919,0,21701619,40900809
17,161,1338.69043993764,0,0,724019.050525068,724020.097591346,1,ScrollLock,7,1,0,1,5,19802979,69044489,67344770,0,-2181050,4200200,2120110,0,0,0,0,0,11301619,0,0,0,0,4200111,41701309,2031160,21111909,0,1131111,1081100,0,0,41110909,0,20010619,0,4011031,0,0,0,0,0,0,0,0,0
17,162,2103.05646853521,0,0,724022.474104249,724023.521169757,1,ScrollLock,7,0,0,11,10,112046567,24421650,116833377,45823150,30611109,21610919,10412019,3080140,4160131,0,0,1161030,41011219,20201309,-2110160,0,0,0,0,0,0,2110181,0,0,3120121,30600319,30600519,0,22000409,30512009,0,0,0,41701009,0,0,3061021,1061120,0,0
17,163,843.425478087738,1,0,724026.638932848,724027.685944462,1,ScrollLock,7,0,1,21,0,1040131,2181140,5131131,12253422,0,0,0,0,0,0,0,0,1040131,0,0,0,0,0,0,0,0,2181140,0,3050100,-2081031,0,0,0,0,0,0,1070091,0,3011001,4081170,0,0,0,4091160,0
17,164,1361.04212945793,1,0,724029.580118286,724030.627164161,1,ScrollLock,7,1,1,2,10,45114319,45453029,64224245,80413798,30110709,-1170100,0,0,1011061,0,0,11811319,1011130,0,0,0,0,0,41311709,1011200,3130120,0,20501309,10500319,0,10410119,0,1100170,11501809,0,10210519,30411419,41801119,0,0,4050190,4151070,0,0,0
17,165,1401.60408220254,0,0,724033.003674754,724034.050751426,1,ScrollLock,7,0,0,12,20,93777117,52384461,187859023,186346784,21201119,4170160,0,40900809,2061141,0,2030070,11612009,11801809,3150111,0,-3051101,4010191,0,0,1151030,10511909,30510119,30111019,31511919,21110509,11201219,2100181,31110919,10701019,10001319,40010919,41810819,41510709,11000719,0,30311109,0,0,30711919,31001509
17,166,932.839164859615,1,0,724036.627270796,724037.674330915,1,ScrollLock,7,1,1,29,20,118686697,188445573,92995519,151593804,2070091,10801909,0,31101719,30001909,0,4011060,40700009,0,0,20601819,3090050,20510019,20911319,30210619,21110019,30501409,41510319,11600019,41100809,2001110,0,0,3121041,30910219,1151141,3111180,10410519,-4150100,41911219,0,41910519,20310419,11500909,0,21400119
17,167,830.872237798758,1,0,724039.62733393,724040.674375185,1,ScrollLock,7,0,1,10,0,5202190,10101302,2031080,6191180,3191000,0,0,0,0,0,2011190,0,0,-4041071,0,0,0,0,0,4030071,0,2030160,0,0,0,2031080,0,0,0,0,0,2190020,0,0,0,0,0,4001160,0,0
17,168,1330.63433098141,0,0,724042.709697414,724043.756766387,1,ScrollLock,7,0,0,35,10,127753617,27052559,27182650,168856216,0,2081011,11510709,40811709,31710019,0,0,1140160,40500009,0,0,21811319,0,1140070,0,0,0,4101170,0,0,0,3071030,0,0,0,2100111,22011509,0,0,40211209,40311619,3031100,42011709,41200419,-2090160,0
17,169,966.929129092023,1,0,724052.839273848,724053.886372078,1,ScrollLock,8,1,1,23,5,23301950,33332479,9574293,64231657,0,0,2050091,0,20201819,0,0,1050040,0,30211309,0,0,3121170,0,0,0,0,0,0,0,2201171,0,-1201011,2131041,4041070,0,0,0,0,0,31600309,20310009,2121030,0,10200309,0
17,170,1061.02472904604,0,0,724055.909919461,724056.956984199,1,ScrollLock,8,1,0,29,20,118686697,188445573,92995519,151593804,2070091,10801909,0,31101719,30001909,0,4011060,40700009,0,0,20601819,3090050,20510019,20911319,30210619,21110019,30501409,41510319,11600019,41100809,2001110,0,0,3121041,30910219,1151141,3111180,10410519,-4150100,41911219,0,41910519,20310419,11500909,0,21400119
17,171,1451.98257721495,1,0,724059.14526317,724060.192327139,1,ScrollLock,8,1,1,7,0,4131040,7052360,5242472,4181110,0,0,0,0,0,0,-4131040,0,0,0,0,0,0,4051180,0,0,3001180,0,0,1070150,0,0,3081131,0,1091191,0,0,0,3091010,0,0,0,0,0,0,1090100
17,172,1340.66606720444,0,0,724062.733552767,724063.780612501,1,ScrollLock,8,0,0,24,10,36813699,43661179,81635919,118537027,0,21601819,0,4201171,11010709,0,0,0,0,3051060,0,40610119,0,0,0,0,0,0,0,0,1061121,10810409,22011019,-2121111,2051070,40411119,3170070,1151140,42001009,1161041,0,0,0,11211309,31000519,32012009
17,173,1204.50600609183,0,0,724066.145366725,724067.192439163,1,ScrollLock,8,1,0,1,5,19802979,69044489,67344770,0,-2181050,4200200,2120110,0,0,0,0,0,11301619,0,0,0,0,4200111,41701309,2031160,21111909,0,1131111,1081100,0,0,41110909,0,20010619,0,4011031,0,0,0,0,0,0,0,0,0
17,174,827.204315573908,1,0,724069.474826823,724070.521897721,1,ScrollLock,8,0,1,16,20,165025094,116307439,246068602,85035091,20701019,12000819,40200119,10301309,40210009,0,0,41611819,0,4061200,40500909,30712009,4121091,3191050,0,-3111171,30610009,0,40710309,30310819,20411909,30001009,31011519,40801609,0,31610919,21210509,3150151,31101219,4051121,21610709,3110181,21011609,1000101,0,0
17,175,1504.23160474747,1,0,724072.486640166,724073.533706829,1,ScrollLock,8,1,1,25,5,28241470,0,61663608,43723029,2200001,1080120,0,0,0,2030010,0,21901209,1030130,0,0,0,0,0,0,0,0,0,0,0,21810709,0,2101170,31501519,-2130050,0,4120160,20311919,0,2111101,0,0,0,0,21300009,0
17,176,1358.28926297836,0,0,724076.039635635,724077.086701914,1,ScrollLock,8,1,0,20,20,127407147,97826265,132413606,155839905,40111709,10612019,30711819,0,41711409,0,2080100,0,2180091,0,31401919,0,31701209,3201190,0,10010219,11301609,10210119,10300719,-3140080,41400319,0,4160151,0,22000319,11310009,40102009,4101091,2200000,11301709,2110130,40910419,41711719,31301009,11401919,10801909
17,177,1178.91254799906,0,0,724079.522040157,724080.56911067,1,ScrollLock,8,1,0,2,10,45114319,45453029,64224245,80413798,30110709,-1170100,0,0,1011061,0,0,11811319,1011130,0,0,0,0,0,41311709,1011200,3130120,0,20501309,10500319,0,10410119,0,1100170,11501809,0,10210519,30411419,41801119,0,0,4050190,4151070,0,0,0
17,178,1061.40468700323,0,0,724082.757386562,724083.804460539,1,ScrollLock,8,1,0,18,10,43832069,70424837,79106046,37363170,0,21410119,0,0,0,1110031,0,0,21311919,31801809,0,10810409,0,0,0,21611409,2101100,-4100110,20511719,0,10502019,0,4100160,1050180,11610819,30310019,1021130,0,0,3121081,0,0,3130080,0,31112009,0
17,179,1207.52257178538,1,0,724085.957434605,724087.004512047,1,ScrollLock,8,0,1,35,5,44952799,34721120,69563888,53423971,0,0,0,3051190,0,0,41901609,0,0,0,0,30700119,0,0,0,4021001,0,0,4200100,0,0,0,42001919,0,0,20211719,3150150,2050161,4061090,0,0,0,40111519,0,-3141040,4060161
17,180,899.151486344635,0,0,724089.298671859,724090.345735057,1,ScrollLock,8,1,0,28,10,45974529,65153537,134165526,30732451,1111020,11111319,0,1041100,2200071,0,0,0,30511019,0,30801719,0,0,21000619,0,3040190,10311009,0,0,1051090,0,0,40700809,30202009,30610009,31601609,0,-3140030,4001061,20410319,0,0,0,3181041,0,0
17,181,1164.3193915952,1,0,724092.451650544,724093.498710278,1,ScrollLock,8,0,1,21,20,178936884,89945957,108257566,97854116,31311019,40111019,30701309,4111010,11100209,31401809,0,0,30200509,0,30911119,0,4151010,0,21611819,0,3061200,30210809,21011519,10510009,-1141101,10310209,10411719,11800009,42011809,0,1061191,0,10400009,11910819,30200009,11810009,4051151,4180100,21200909,4101110
17,182,1263.95498623606,0,0,724095.686992329,724096.734067847,1,ScrollLock,8,0,0,32,0,6182181,4021010,1051170,10551301,4091090,0,0,2091091,0,0,0,0,0,0,0,0,0,0,0,0,4021010,0,0,0,0,0,0,0,1051170,0,0,1181050,3200140,0,0,-3170050,0,0,0,3000061
17,183,978.497250471264,0,0,724099.063523325,724100.110588833,1,ScrollLock,8,0,0,13,10,90054418,24401049,66255607,57383157,11300609,0,1170080,40001919,0,4011131,30400519,3170160,0,0,3150120,0,-1050110,20200819,0,0,0,0,12001619,10600819,40502009,0,0,0,0,0,3151160,0,0,11300219,2110060,3061040,0,0,10410719,30501119
17,184,1531.86228417326,1,0,724102.287097193,724103.334171556,1,ScrollLock,8,0,1,10,20,86875109,83268027,192565865,187915124,30411109,41811009,1121171,0,11200419,1130201,1201200,0,0,-3031010,11711219,10811609,10901509,4100001,2110151,30300809,10301719,0,31910719,30901219,4031081,31900409,40710019,0,21310809,0,31801609,2180010,30410719,41511219,41101819,0,10100019,21500319,41111019,0
17,185,1424.70144375693,1,0,724105.934228684,724106.981304971,1,ScrollLock,8,1,1,31,20,72885568,66124467,97917755,180736883,21700009,4171180,11001519,2100091,2091041,0,10811309,21010419,0,3100111,0,10410409,11910319,4081140,12011319,0,3000160,21611009,1080170,31511919,22001919,0,0,0,12011019,20300809,11011919,21311409,41111019,11900209,-3000180,30700719,10110919,0,21701619,40900809
17,186,1762.9267515149,0,0,724109.498983217,724110.546044105,1,ScrollLock,8,0,0,5,10,134467796,16751259,12161450,59254748,0,4180150,11902009,31301319,-4051181,0,10411409,31510209,41111519,0,2200000,0,0,2171020,10310209,2070030,0,0,0,0,0,0,0,2151031,0,10010419,0,0,12011319,2171031,0,0,30000509,0,4060080,11011809
17,187,1369.89434075076,0,0,724113.451976223,724114.499048275,1,ScrollLock,8,0,0,27,0,0,6131271,8360191,11501453,0,0,0,0,0,0,0,0,0,0,4020200,0,2111071,0,0,0,0,0,0,4170151,0,0,0,0,0,0,-4190040,0,2160091,4170080,2141161,0,0,0,0,3030121
17,188,1112.58852353785,1,0,724116.922620142,724117.969672561,1,ScrollLock,8,1,1,17,0,2020151,7270252,0,8451312,0,0,0,0,0,2020151,0,0,0,0,3040141,2130041,0,0,1100020,0,-1000050,0,0,0,0,0,0,0,0,0,0,0,0,2201041,2140200,0,0,0,4110071,0
17,189,1181.50334525853,1,0,724120.252083704,724121.299156912,1,ScrollLock,8,0,1,8,5,36801489,28062881,21611519,55524598,31610409,3081030,0,0,0,0,0,-2110050,0,0,2150161,2060001,20701409,0,2120130,0,1031180,0,0,0,0,0,0,21611519,0,0,0,0,3121130,0,2091050,0,0,20011609,0,30300809
17,190,1245.39248214569,0,0,724123.652126666,724124.699210652,1,ScrollLock,8,0,0,11,5,2040011,9461540,89162120,53603147,0,0,0,0,2040011,0,0,0,0,0,-2020200,0,0,1150120,0,0,2161090,4130130,40911319,2030151,2060100,0,0,40010419,4150131,0,0,31100219,0,0,0,0,11201309,0,0,11301619
17,191,1459.06704105437,1,0,724127.028660356,724128.075731639,1,ScrollLock,8,0,1,12,0,0,13321291,8303462,2010180,0,0,0,0,0,0,0,0,0,0,0,-3040041,0,3130170,4071010,3080070,0,0,0,0,0,0,4101181,1011100,0,3191181,0,0,0,0,0,0,0,0,0,2010180
17,192,949.645085260272,1,0,724130.616937249,724131.664022005,1,ScrollLock,8,1,1,34,0,6110102,4011061,10432372,5131251,0,0,4100051,0,0,0,2010051,0,0,0,0,0,0,0,0,4011061,0,0,0,0,4170160,0,0,0,4131191,2131021,0,0,2080161,0,0,0,0,-3051090,0,0
17,193,2652.70584460814,0,0,724141.68770374,724142.734780797,1,ScrollLock,9,0,0,12,20,141481274,39523819,190968413,118955717,3021181,10110519,20411209,3001190,30701409,10611819,21401219,11910809,30311919,4061160,0,-2010010,0,0,10411209,3030031,20011409,0,41711009,3031010,11100119,20110819,31501319,21010109,41402009,0,21102019,0,2091041,30701709,0,2131130,21910209,0,41110009,21011619
17,194,1124.92695474066,1,0,724146.593678973,724147.640741787,1,ScrollLock,9,0,1,21,5,21982711,0,34992839,84440979,2200080,1070041,3111150,11401409,0,2060001,0,0,2140030,0,0,0,0,0,0,0,0,0,1010180,0,-3071041,20010409,10901209,0,0,0,0,0,0,0,0,0,40310009,4030051,0,40100919
17,195,1484.92612328846,0,0,724149.793720472,724150.840784825,1,ScrollLock,9,1,0,7,0,4131040,7052360,5242472,4181110,0,0,0,0,0,0,-4131040,0,0,0,0,0,0,4051180,0,0,3001180,0,0,1070150,0,0,3081131,0,1091191,0,0,0,3091010,0,0,0,0,0,0,1090100
17,196,953.647539834492,0,0,724153.346765217,724154.39377914,1,ScrollLock,9,0,0,8,5,59675880,15284169,1150040,63363108,1190190,1121181,0,0,31701309,0,1071181,-3081010,21511009,10111919,1131200,0,0,0,0,0,4041050,0,0,1150040,0,0,0,0,0,0,0,0,21100019,0,0,0,0,1151170,41111919,0
17,197,1684.69237408135,1,0,724156.487936719,724157.535010697,1,ScrollLock,9,1,1,25,5,28241470,0,61663608,43723029,2200001,1080120,0,0,0,2030010,0,21901209,1030130,0,0,0,0,0,0,0,0,0,0,0,21810709,0,2101170,31501519,-2130050,0,4120160,20311919,0,2111101,0,0,0,0,21300009,0
17,198,1886.74183702096,0,0,724160.346816802,724161.393893859,1,ScrollLock,9,1,0,23,5,23301950,33332479,9574293,64231657,0,0,2050091,0,20201819,0,0,1050040,0,30211309,0,0,3121170,0,0,0,0,0,0,0,2201171,0,-1201011,2131041,4041070,0,0,0,0,0,31600309,20310009,2121030,0,10200309,0
17,199,910.890916129574,1,0,724164.311592738,724165.358699438,1,ScrollLock,9,0,1,27,10,80364687,65163599,73313418,90204508,41201409,0,0,4020140,0,10811319,20300819,4031000,0,3050071,21901819,0,40211709,0,0,0,0,0,0,31801019,2101110,4120060,31211209,0,0,0,-4080020,0,40701209,31111909,0,12010109,4201131,2180150,0,0
17,200,1373.39480430819,1,0,724167.288088856,724168.335175538,1,ScrollLock,9,1,1,29,20,118686697,188445573,92995519,151593804,2070091,10801909,0,31101719,30001909,0,4011060,40700009,0,0,20601819,3090050,20510019,20911319,30210619,21110019,30501409,41510319,11600019,41100809,2001110,0,0,3121041,30910219,1151141,3111180,10410519,-4150100,41911219,0,41910519,20310419,11500909,0,21400119
17,201,2256.99024577625,0,0,724170.911693753,724171.958757721,1,ScrollLock,9,0,0,32,0,4301170,11243353,3121061,7190182,0,0,0,1130000,0,0,0,3171170,0,0,0,0,0,0,4041111,4021041,0,3181201,0,0,0,3121061,0,0,0,0,0,0,0,0,0,-4100091,0,0,0,3090091
17,202,2022.65860210173,0,0,724175.311750958,724176.358826475,1,ScrollLock,9,0,0,24,10,103824256,29173020,50724380,103446940,0,0,0,30200319,0,0,21501809,11112009,41010119,0,4170191,0,0,10900409,0,0,11101219,3001201,0,2121180,0,0,0,-3011171,0,41411919,4180110,0,3071091,0,0,20901509,31701619,4081141,3090161,40601419
17,203,981.592733412981,0,0,724179.523585396,724180.570660144,1,ScrollLock,9,0,0,10,0,4192330,12303573,0,8300350,3051190,0,1141140,0,0,0,0,0,0,-2170181,0,0,4091150,0,0,0,2021041,4021201,0,0,0,0,0,0,0,0,0,0,0,0,4120170,0,4180180,0,0,0
17,204,1556.3201031182,0,0,724182.700094911,724183.747164269,1,ScrollLock,9,1,0,20,20,127407147,97826265,132413606,155839905,40111709,10612019,30711819,0,41711409,0,2080100,0,2180091,0,31401919,0,31701209,3201190,0,10010219,11301609,10210119,10300719,-3140080,41400319,0,4160151,0,22000319,11310009,40102009,4101091,2200000,11301709,2110130,40910419,41711719,31301009,11401919,10801909
17,205,1197.54511513747,1,0,724186.323690183,724187.370766855,1,ScrollLock,9,0,1,35,20,129926035,195256037,68735578,159305594,3200151,11300709,41401109,20501209,21611419,10711219,21200219,0,0,3111000,2000201,21801409,2170091,41000909,40411519,41810019,40800719,2150170,0,30210409,0,3011000,0,0,20301209,11201819,4011141,0,21410819,42000419,20410619,20600809,11201419,40511419,-3170090,0
17,206,1585.99416306242,1,0,724189.59432879,724190.641413546,1,ScrollLock,9,1,1,31,20,72885568,66124467,97917755,180736883,21700009,4171180,11001519,2100091,2091041,0,10811309,21010419,0,3100111,0,10410409,11910319,4081140,12011319,0,3000160,21611009,1080170,31511919,22001919,0,0,0,12011019,20300809,11011919,21311409,41111019,11900209,-3000180,30700719,10110919,0,21701619,40900809
17,207,1141.74827374518,0,0,724193.429685357,724194.476749326,1,ScrollLock,9,0,0,11,10,70094548,64474940,74134237,68263880,0,11711419,21610709,4191071,0,0,2071030,30510319,0,0,-1001081,0,41410709,4151180,3130160,0,10600609,4181201,0,0,0,0,0,31611309,30911819,0,11611109,40701119,3051081,0,0,0,0,21511619,3000061,0
17,208,1059.72586583812,0,0,724196.688554122,724197.735630024,1,ScrollLock,9,0,0,13,0,11142312,5280351,0,2051160,0,2011011,0,0,4001030,0,0,4080191,1050080,2120150,0,0,-2000060,1160141,0,0,0,0,0,0,0,0,0,0,0,0,0,0,0,0,0,0,0,0,0,2051160
17,209,1017.50318496488,0,0,724199.982726253,724201.029792916,1,ScrollLock,9,1,0,1,5,19802979,69044489,67344770,0,-2181050,4200200,2120110,0,0,0,0,0,11301619,0,0,0,0,4200111,41701309,2031160,21111909,0,1131111,1081100,0,0,41110909,0,20010619,0,4011031,0,0,0,0,0,0,0,0,0
17,210,887.947924435139,1,0,724203.065120919,724204.112189892,1,ScrollLock,9,1,1,34,0,6110102,4011061,10432372,5131251,0,0,4100051,0,0,0,2010051,0,0,0,0,0,0,0,0,4011061,0,0,0,0,4170160,0,0,0,4131191,2131021,0,0,2080161,0,0,0,0,-3051090,0,0
17,211,721.579860313796,0,0,724206.088702949,724207.135769612,1,ScrollLock,9,1,0,2,10,45114319,45453029,64224245,80413798,30110709,-1170100,0,0,1011061,0,0,11811319,1011130,0,0,0,0,0,41311709,1011200,3130120,0,20501309,10500319,0,10410119,0,1100170,11501809,0,10210519,30411419,41801119,0,0,4050190,4151070,0,0,0
17,212,710.446361452341,1,0,724208.994630831,724210.041698264,1,ScrollLock,9,1,1,17,0,2020151,7270252,0,8451312,0,0,0,0,0,2020151,0,0,0,0,3040141,2130041,0,0,1100020,0,-1000050,0,0,0,0,0,0,0,0,0,0,0,0,2201041,2140200,0,0,0,4110071,0
17,213,1148.05087877903,1,0,724211.829965071,724212.877032504,1,ScrollLock,9,1,1,28,10,45974529,65153537,134165526,30732451,1111020,11111319,0,1041100,2200071,0,0,0,30511019,0,30801719,0,0,21000619,0,3040190,10311009,0,0,1051090,0,0,40700809,30202009,30610009,31601609,0,-3140030,4001061,20410319,0,0,0,3181041,0,0
17,214,1142.03237590846,1,0,724215.124135662,724216.17120579,1,ScrollLock,9,0,1,5,5,73802838,76995481,42740319,1150100,0,31500619,0,40201209,-2101010,0,0,0,0,2101181,4140010,21301709,3031170,3010121,2000181,0,41411109,0,0,0,0,0,41600219,0,1140100,0,0,0,0,0,0,0,0,0,0,1150100
17,215,803.773961495608,1,0,724218.359484376,724219.406552964,1,ScrollLock,9,0,1,16,20,228029973,133064337,173995115,142257508,40201409,1141080,41611109,40700919,40200709,21812009,10311219,2040010,30011509,0,4110031,0,40701409,40601409,31601009,-4140070,11910409,0,41511019,0,1081030,40201009,0,0,30300219,30700919,30200919,40601909,3201041,3081011,21711209,0,40700419,0,1161010,31800909
17,216,785.75502440799,1,0,724221.371298873,724222.418361687,1,ScrollLock,9,1,1,18,10,43832069,70424837,79106046,37363170,0,21410119,0,0,0,1110031,0,0,21311919,31801809,0,10810409,0,0,0,21611409,2101100,-4100110,20511719,0,10502019,0,4100160,1050180,11610819,30310019,1021130,0,0,3121081,0,0,3130080,0,31112009,0
17,217,1456.33650245145,0,0,724231.206728969,724232.253807566,1,ScrollLock,10,1,0,1,5,19802979,69044489,67344770,0,-2181050,4200200,2120110,0,0,0,0,0,11301619,0,0,0,0,4200111,41701309,2031160,21111909,0,1131111,1081100,0,0,41110909,0,20010619,0,4011031,0,0,0,0,0,0,0,0,0
17,218,927.240271004848,0,0,724234.759728673,724235.806805345,1,ScrollLock,10,0,0,13,5,38512910,47773162,0,73286257,0,2170051,0,2111010,31201709,0,0,3030140,0,1181180,0,2080031,-1020051,0,41410809,0,0,2081091,0,0,0,0,0,0,0,0,0,21401909,0,1181110,10302019,0,0,40401219,0,0
17,219,1112.19047231134,0,0,724237.865667643,724238.912737001,1,ScrollLock,10,0,0,11,0,10422462,8371322,2091040,4041060,0,1040101,3141161,2070000,0,0,0,0,4171200,0,-4181161,0,0,0,0,4190161,0,0,0,0,0,0,0,0,2091040,0,0,0,0,0,0,4041060,0,0,0,0
17,220,1404.19295465108,0,0,724241.206887188,724242.253979644,1,ScrollLock,10,1,0,31,20,72885568,66124467,97917755,180736883,21700009,4171180,11001519,2100091,2091041,0,10811309,21010419,0,3100111,0,10410409,11910319,4081140,12011319,0,3000160,21611009,1080170,31511919,22001919,0,0,0,12011019,20300809,11011919,21311409,41111019,11900209,-3000180,30700719,10110919,0,21701619,40900809
17,221,865.845690714195,1,0,724244.701094274,724245.748134759,1,ScrollLock,10,1,1,28,10,45974529,65153537,134165526,30732451,1111020,11111319,0,1041100,2200071,0,0,0,30511019,0,30801719,0,0,21000619,0,3040190,10311009,0,0,1051090,0,0,40700809,30202009,30610009,31601609,0,-3140030,4001061,20410319,0,0,0,3181041,0,0
17,222,676.820661989041,1,0,724247.759932703,724248.807058266,1,ScrollLock,10,0,1,16,20,150494705,126716369,110748936,147256595,20610419,0,30900319,0,4071130,41611809,22000209,0,31300819,4180031,2110150,31001409,4040101,0,42010919,-2061131,11301309,30011319,20901409,21410719,0,10601819,0,20901819,30800819,2071161,4061190,20001619,31711319,0,3130201,30401119,10300409,40201619,0,11510309
17,223,785.753484582528,0,0,724250.677616569,724251.74828297,1,ScrollLock,10,1,0,23,5,23301950,33332479,9574293,64231657,0,0,2050091,0,20201819,0,0,1050040,0,30211309,0,0,3121170,0,0,0,0,0,0,0,2201171,0,-1201011,2131041,4041070,0,0,0,0,0,31600309,20310009,2121030,0,10200309,0
17,224,1209.88508628216,1,0,724253.665909091,724254.713011941,1,ScrollLock,10,0,1,8,10,108584296,45652879,57004598,37194090,0,31811709,30410609,0,32010409,2001180,11310309,-1040080,0,1010131,0,21811109,0,0,0,20701619,0,2130020,1071020,4111060,0,0,30210509,0,0,21612009,0,21801919,1020151,0,0,0,4161201,0,10210819,0
17,225,666.922507691197,0,0,724256.960136271,724258.007144035,1,ScrollLock,10,0,0,21,5,36111409,63411959,9272231,69613579,0,0,0,0,31910309,0,4201100,0,0,0,3010131,0,0,0,0,0,30101209,30300619,0,4020050,-4161020,0,0,1091161,0,0,0,4151060,3160021,0,1190060,40312019,20800419,0,0,0
17,226,1169.5710492786,1,0,724259.807180684,724260.854245807,1,ScrollLock,10,1,1,7,0,4131040,7052360,5242472,4181110,0,0,0,0,0,0,-4131040,0,0,0,0,0,0,4051180,0,0,3001180,0,0,1070150,0,0,3081131,0,1091191,0,0,0,3091010,0,0,0,0,0,0,1090100
17,227,700.842318474315,1,0,724263.171935293,724264.219004651,1,ScrollLock,10,1,1,29,20,118686697,188445573,92995519,151593804,2070091,10801909,0,31101719,30001909,0,4011060,40700009,0,0,20601819,3090050,20510019,20911319,30210619,21110019,30501409,41510319,11600019,41100809,2001110,0,0,3121041,30910219,1151141,3111180,10410519,-4150100,41911219,0,41910519,20310419,11500909,0,21400119
17,228,971.055156551301,1,0,724265.983736009,724267.030816916,1,ScrollLock,10,0,1,27,20,199477334,171828395,129736487,108455627,41301619,31900719,40311219,11710809,40800409,0,30101519,2200000,1151040,3151110,40711209,0,31501119,0,31311809,21300519,40801509,3051120,11010809,2201111,22011309,32001309,0,0,30211319,30200509,-2100121,31901809,20600709,0,0,0,3030110,30201719,2011071,20710209
17,229,2215.86278313771,0,0,724269.125028774,724270.172039618,1,ScrollLock,10,1,0,17,0,2020151,7270252,0,8451312,0,0,0,0,0,2020151,0,0,0,0,3040141,2130041,0,0,1100020,0,-1000050,0,0,0,0,0,0,0,0,0,0,0,0,2201041,2140200,0,0,0,4110071,0
17,230,1435.33564638346,1,0,724273.560320438,724274.607409043,1,ScrollLock,10,1,1,2,10,45114319,45453029,64224245,80413798,30110709,-1170100,0,0,1011061,0,0,11811319,1011130,0,0,0,0,0,41311709,1011200,3130120,0,20501309,10500319,0,10410119,0,1100170,11501809,0,10210519,30411419,41801119,0,0,4050190,4151070,0,0,0
17,231,526.335763395764,1,0,724277.254503963,724278.30158025,1,ScrollLock,10,0,1,10,5,4151050,106325158,41701470,4191141,0,0,0,0,0,0,0,4151050,0,-3070101,0,30410409,31900809,4111010,21410309,11111409,1150080,3161031,0,0,40700319,0,0,1001151,0,0,0,0,0,0,0,3011090,0,1180051,0,0
17,232,1467.69905393012,0,0,724280.03102595,724281.078094153,1,ScrollLock,10,0,0,32,20,160144837,155088635,171748874,96634689,10910219,21910519,40300909,0,0,2001201,3011051,40600119,41410819,0,11201409,41312019,11212019,41901019,31200509,3141081,4120160,11000419,0,1080200,40711219,20712019,31610719,3010160,41411219,21411519,11801819,0,40411019,31201309,20700309,-3191011,0,1131041,0,0
17,233,1853.10112405568,1,0,724283.560484047,724284.607541086,1,ScrollLock,10,0,1,12,0,5091200,6171101,4160080,9262382,0,1050130,0,0,0,0,0,4041070,0,0,0,-2121001,0,0,0,0,0,4050100,0,0,4160080,0,0,0,0,0,0,0,0,0,3101191,2051101,0,4110090,0,0
17,234,1047.70733835176,1,0,724287.489962007,724288.53703175,1,ScrollLock,10,1,1,34,0,6110102,4011061,10432372,5131251,0,0,4100051,0,0,0,2010051,0,0,0,0,0,0,0,0,4011061,0,0,0,0,4170160,0,0,0,4131191,2131021,0,0,2080161,0,0,0,0,-3051090,0,0
17,235,1361.92908289377,0,0,724290.795904749,724291.842964483,1,ScrollLock,10,0,0,24,0,8231532,4080120,6132482,2051150,0,4040171,0,0,1180200,0,0,0,3011161,4080120,0,0,0,0,0,0,0,0,0,0,0,3011181,0,-1040200,2081101,0,0,0,0,2051150,0,0,0,0,0,0
17,236,1291.63648060057,0,0,724294.395940319,724295.443006983,1,ScrollLock,10,1,0,20,20,127407147,97826265,132413606,155839905,40111709,10612019,30711819,0,41711409,0,2080100,0,2180091,0,31401919,0,31701209,3201190,0,10010219,11301609,10210119,10300719,-3140080,41400319,0,4160151,0,22000319,11310009,40102009,4101091,2200000,11301709,2110130,40910419,41711719,31301009,11401919,10801909
17,237,1026.00546553731,0,0,724297.819531819,724298.866593862,1,ScrollLock,10,0,0,35,10,62174698,91122288,94146348,73063729,0,1050151,20611919,0,0,20311019,0,20201609,0,41210809,40700219,2010150,0,0,3170070,0,4031040,0,4161010,0,0,21301909,32000819,30411219,0,4091191,2180200,0,30801509,0,40112019,0,0,0,-2150201,0
17,238,1632.44142162148,0,0,724300.937228311,724301.984291895,1,ScrollLock,10,1,0,25,5,28241470,0,61663608,43723029,2200001,1080120,0,0,0,2030010,0,21901209,1030130,0,0,0,0,0,0,0,0,0,0,0,21810709,0,2101170,31501519,-2130050,0,4120160,20311919,0,2111101,0,0,0,0,21300009,0
17,239,997.729204245843,1,0,724304.713749144,724305.760821197,1,ScrollLock,10,1,1,18,10,43832069,70424837,79106046,37363170,0,21410119,0,0,0,1110031,0,0,21311919,31801809,0,10810409,0,0,0,21611409,2101100,-4100110,20511719,0,10502019,0,4100160,1050180,11610819,30310019,1021130,0,0,3121081,0,0,3130080,0,31112009,0
17,240,1358.37164486293,1,0,724307.843217788,724308.890289071,1,ScrollLock,10,0,1,5,10,80384139,87235637,25651929,84823588,1080080,10200819,4041111,0,-3141201,40010219,21910709,0,0,0,0,3171150,0,0,1150140,41401809,30912019,10600519,0,2181160,0,2060150,0,0,0,0,21410619,40211319,0,10710119,30801109,0,0,0,3101041,0
17,241,3319.3657102529,1,0,724318.34924784,724319.396330286,1,ScrollLock,11,1,1,31,20,72885568,66124467,97917755,180736883,21700009,4171180,11001519,2100091,2091041,0,10811309,21010419,0,3100111,0,10410409,11910319,4081140,12011319,0,3000160,21611009,1080170,31511919,22001919,0,0,0,12011019,20300809,11011919,21311409,41111019,11900209,-3000180,30700719,10110919,0,21701619,40900809
17,242,2678.80437348504,0,0,724323.784638823,724324.831702791,1,ScrollLock,11,0,0,35,0,10202301,4071031,0,11592140,4021160,0,0,2030071,0,4151070,0,0,0,0,0,0,0,0,0,0,0,4071031,0,0,0,0,0,0,0,0,0,0,2120030,0,1171060,0,4110050,0,-4191000,0
17,243,2972.7878725389,1,0,724328.690591728,724329.737704972,1,ScrollLock,11,1,1,2,10,45114319,45453029,64224245,80413798,30110709,-1170100,0,0,1011061,0,0,11811319,1011130,0,0,0,0,0,41311709,1011200,3130120,0,20501309,10500319,0,10410119,0,1100170,11501809,0,10210519,30411419,41801119,0,0,4050190,4151070,0,0,0
17,244,1363.22987091262,1,0,724333.808361749,724334.855382216,1,ScrollLock,11,0,1,24,20,134329444,130153658,80854829,168726556,20701509,30211409,20401209,10101209,30201119,0,10511719,10100209,2101061,1010061,0,3121051,0,0,41910409,32000019,10801109,41311009,21400319,41211809,0,4071051,1140071,-2031170,11000409,0,0,11701119,11410719,1031191,41011709,21111519,40810019,40500109,1150171,0
17,245,1154.1733215563,1,0,724337.26719425,724338.314254369,1,ScrollLock,11,1,1,7,0,4131040,7052360,5242472,4181110,0,0,0,0,0,0,-4131040,0,0,0,0,0,0,4051180,0,0,3001180,0,0,1070150,0,0,3081131,0,1091191,0,0,0,3091010,0,0,0,0,0,0,1090100
17,246,1197.75376480538,0,0,724340.54963542,724341.596663972,1,ScrollLock,11,1,0,1,5,19802979,69044489,67344770,0,-2181050,4200200,2120110,0,0,0,0,0,11301619,0,0,0,0,4200111,41701309,2031160,21111909,0,1131111,1081100,0,0,41110909,0,20010619,0,4011031,0,0,0,0,0,0,0,0,0
17,247,722.09186037071,0,0,724343.973184958,724345.020245462,1,ScrollLock,11,1,0,23,5,23301950,33332479,9574293,64231657,0,0,2050091,0,20201819,0,0,1050040,0,30211309,0,0,3121170,0,0,0,0,0,0,0,2201171,0,-1201011,2131041,4041070,0,0,0,0,0,31600309,20310009,2121030,0,10200309,0
17,248,927.179447025992,0,0,724346.773224687,724347.820293275,1,ScrollLock,11,1,0,34,0,6110102,4011061,10432372,5131251,0,0,4100051,0,0,0,2010051,0,0,0,0,0,0,0,0,4011061,0,0,0,0,4170160,0,0,0,4131191,2131021,0,0,2080161,0,0,0,0,-3051090,0,0
17,249,543.042363366112,0,0,724349.879162116,724350.92622108,1,ScrollLock,11,0,0,16,10,102824437,83875939,50542047,42142059,0,0,0,0,30601819,41611409,30611209,0,0,0,4181040,3031150,0,1120031,31402009,-4130190,0,40011519,2040150,0,0,21500619,11110419,4150160,0,10710519,1030180,0,0,0,0,0,20600019,0,1131131,20410909
17,250,705.657813698053,1,0,724352.502728516,724353.549794024,1,ScrollLock,11,1,1,17,0,2020151,7270252,0,8451312,0,0,0,0,0,2020151,0,0,0,0,3040141,2130041,0,0,1100020,0,-1000050,0,0,0,0,0,0,0,0,0,0,0,0,2201041,2140200,0,0,0,4110071,0
17,251,916.72155726701,0,0,724355.314531927,724356.361600515,1,ScrollLock,11,1,0,18,10,43832069,70424837,79106046,37363170,0,21410119,0,0,0,1110031,0,0,21311919,31801809,0,10810409,0,0,0,21611409,2101100,-4100110,20511719,0,10502019,0,4100160,1050180,11610819,30310019,1021130,0,0,3121081,0,0,3130080,0,31112009,0
17,252,630.82111463882,0,0,724358.326343344,724359.373411162,1,ScrollLock,11,0,0,10,0,5151251,3211072,6391250,3050001,4120180,0,0,0,0,0,0,1031071,0,-1161051,0,0,2050021,0,0,0,0,0,1170040,0,4020130,0,0,0,0,0,1201080,3050001,0,0,0,0,0,0,0,0
17,253,922.760463203304,1,0,724361.126397316,724362.173501321,1,ScrollLock,11,0,1,27,5,10273483,41902809,73294877,5160220,0,2091201,0,4021070,0,0,2131201,0,2030011,0,0,1091000,0,0,40811809,0,0,0,11501409,30001819,0,0,10211119,0,20400419,0,-1180111,0,2020040,0,0,0,0,3140180,0,0
17,254,1217.54468395375,0,0,724364.208790828,724365.255855181,1,ScrollLock,11,1,0,20,20,127407147,97826265,132413606,155839905,40111709,10612019,30711819,0,41711409,0,2080100,0,2180091,0,31401919,0,31701209,3201190,0,10010219,11301609,10210119,10300719,-3140080,41400319,0,4160151,0,22000319,11310009,40102009,4101091,2200000,11301709,2110130,40910419,41711719,31301009,11401919,10801909
17,255,1140.51793364342,1,0,724367.573540818,724368.620617875,1,ScrollLock,11,0,1,5,20,124496317,219558754,91515846,88254617,2081160,0,41210009,1110120,-4120161,3141030,10710109,31211909,30911819,40611519,0,41801909,40601919,31101509,31610419,1031141,21100119,11700219,0,20811719,11700609,21310719,3200080,0,20411509,11901109,2180101,0,21812019,0,21701319,4040061,0,0,20400609,20300609
17,256,1524.16765491944,1,0,724370.950117239,724371.997133087,1,ScrollLock,11,0,1,13,10,53604238,79824169,69464676,39454630,41401809,11101409,0,0,0,0,0,1101020,0,0,40900009,0,-1051200,31601619,0,2181201,0,4090140,0,31011309,0,0,10810109,11600209,11901909,0,4141140,3111190,3131031,10301309,0,0,0,0,21800919,1110181
17,257,1372.51670495607,1,0,724374.632488192,724375.679546771,1,ScrollLock,11,1,1,25,5,28241470,0,61663608,43723029,2200001,1080120,0,0,0,2030010,0,21901209,1030130,0,0,0,0,0,0,0,0,0,0,0,21810709,0,2101170,31501519,-2130050,0,4120160,20311919,0,2111101,0,0,0,0,21300009,0
17,258,878.094810643233,0,0,724378.256060751,724379.303132419,1,ScrollLock,11,1,0,28,10,45974529,65153537,134165526,30732451,1111020,11111319,0,1041100,2200071,0,0,0,30511019,0,30801719,0,0,21000619,0,3040190,10311009,0,0,1051090,0,0,40700809,30202009,30610009,31601609,0,-3140030,4001061,20410319,0,0,0,3181041,0,0
17,259,1020.99248464219,1,0,724381.256115416,724382.303178229,1,ScrollLock,11,0,1,11,5,9173252,57353219,45813011,32692078,0,4161201,2001021,0,0,3011030,0,0,0,0,-2121131,41800309,3031060,0,0,0,0,10400719,0,0,0,2041161,41600819,0,0,2171031,0,0,0,0,0,20510319,0,0,2081040,10100719
17,260,1073.52561445441,1,0,724384.420868562,724385.467934071,1,ScrollLock,11,0,1,21,20,112195916,120075485,179268425,114376238,0,10711319,30611319,31200019,20011909,3011200,4200111,11410019,1040020,31901509,4061130,0,10400509,0,11801819,30310509,0,31600009,30212019,30411719,-4100131,0,0,40810419,31411509,31310919,11011709,21700619,3061031,0,41710409,0,20911909,21700119,1121111,4171040
17,261,1607.74685093202,0,0,724387.691507554,724388.738575372,1,ScrollLock,11,0,0,12,0,5282211,2231081,2212351,4340382,0,0,0,0,2091100,3191111,0,0,0,0,0,-1180030,0,1051051,0,0,0,0,0,1131180,0,0,0,0,0,0,1081171,0,0,0,0,0,2170181,0,2170201,0
17,262,884.507515118457,1,0,724391.38568184,724392.432753508,1,ScrollLock,11,1,1,29,20,118686697,188445573,92995519,151593804,2070091,10801909,0,31101719,30001909,0,4011060,40700009,0,0,20601819,3090050,20510019,20911319,30210619,21110019,30501409,41510319,11600019,41100809,2001110,0,0,3121041,30910219,1151141,3111180,10410519,-4150100,41911219,0,41910519,20310419,11500909,0,21400119
17,263,1338.31240690779,0,0,724394.479842884,724395.526906082,1,ScrollLock,11,0,0,8,10,115673818,86335557,27990861,29195438,41301409,0,41211709,0,0,32000619,0,-1160081,0,0,0,2121001,30801209,0,11510319,31802019,0,10101009,0,0,0,1200180,2070031,1170110,0,3040131,20510409,3011120,0,0,0,0,4081200,0,10101809,12001309
17,264,1366.34421709459,1,0,724398.04460704,724399.091680248,1,ScrollLock,11,0,1,32,5,9222152,75934008,20201899,74373839,3000131,4191011,0,0,0,0,0,2031010,0,40311809,0,0,31611109,0,0,0,4011090,0,0,4091130,0,0,11810709,0,0,2170000,2130060,0,30101819,0,0,-4061111,0,0,0,40210909
17,265,2041.82241740637,0,0,724405.774129348,724406.821237203,1,ScrollLock,12,1,0,1,5,19802979,69044489,67344770,0,-2181050,4200200,2120110,0,0,0,0,0,11301619,0,0,0,0,4200111,41701309,2031160,21111909,0,1131111,1081100,0,0,41110909,0,20010619,0,4011031,0,0,0,0,0,0,0,0,0
17,266,1984.00606308132,0,0,724409.985963787,724411.033081265,1,ScrollLock,12,0,0,12,10,86982620,46113298,42662167,81056120,0,0,10100619,41900809,1190041,0,1190131,30400019,2201001,11311319,0,-4101070,0,0,0,0,0,30700909,0,10301219,0,0,1060020,21300909,0,0,10000019,0,3000021,3081160,0,31801909,0,2171011,0,41002019
17,267,1098.68829953484,1,0,724414.080196433,724415.127216131,1,ScrollLock,12,0,1,21,0,5150120,9311282,6172122,4100021,0,3070090,2080030,0,0,0,0,0,0,0,0,0,3140131,0,4120101,2051050,0,0,0,0,-3001121,0,0,0,3171001,0,0,0,0,0,0,0,4100021,0,0,0
17,268,1541.81664297357,0,0,724417.291955419,724418.339035171,1,ScrollLock,12,0,0,8,20,81543780,156337094,123686955,169936336,0,3150141,31401709,3040171,30501309,10310409,0,-3140041,0,21401309,0,41502019,21711719,10011019,0,30300919,0,31410109,42001309,41910909,0,1200060,3131140,3130090,10401419,10311309,11600719,30510719,10301219,40910209,20811909,4180061,0,20711019,1200191,41311009
17,269,1382.73322326131,1,0,724420.986157423,724422.033207533,1,ScrollLock,12,0,1,10,20,94218347,120206807,156728564,127348087,0,0,20010719,1071051,1021111,10411609,40801019,10901319,10001519,-2070191,30910509,20211519,0,1100141,10801409,10201019,3101200,41810819,0,11701819,22001809,0,0,30700909,41302009,40510509,10511509,31010509,40001919,21601209,1191080,1081140,2151111,0,0,30311119
17,270,1233.4016719833,1,0,724424.574446249,724425.621497129,1,ScrollLock,12,1,1,7,0,4131040,7052360,5242472,4181110,0,0,0,0,0,0,-4131040,0,0,0,0,0,0,4051180,0,0,3001180,0,0,1070150,0,0,3081131,0,1091191,0,0,0,3091010,0,0,0,0,0,0,1090100
17,271,1220.70330090355,1,0,724427.986244809,724429.033303003,1,ScrollLock,12,0,1,13,10,12373461,86874677,71562508,73211647,4011131,0,0,2100160,0,2181170,0,4081000,0,0,0,31101209,-2070141,0,21800909,0,21800809,10101609,3120070,11211919,0,0,42000219,1010091,0,10210109,4010100,0,0,20900109,32010019,20301519,0,0,0,0
17,272,1785.93480179552,0,0,724431.303966632,724432.351017127,1,ScrollLock,12,1,0,23,5,23301950,33332479,9574293,64231657,0,0,2050091,0,20201819,0,0,1050040,0,30211309,0,0,3121170,0,0,0,0,0,0,0,2201171,0,-1201011,2131041,4041070,0,0,0,0,0,31600309,20310009,2121030,0,10200309,0
17,273,712.956701638177,0,0,724435.209886431,724436.256956559,1,ScrollLock,12,1,0,17,0,2020151,7270252,0,8451312,0,0,0,0,0,2020151,0,0,0,0,3040141,2130041,0,0,1100020,0,-1000050,0,0,0,0,0,0,0,0,0,0,0,0,2201041,2140200,0,0,0,4110071,0
17,274,924.701443756931,0,0,724438.1511069,724439.198172794,1,ScrollLock,12,1,0,29,20,118686697,188445573,92995519,151593804,2070091,10801909,0,31101719,30001909,0,4011060,40700009,0,0,20601819,3090050,20510019,20911319,30210619,21110019,30501409,41510319,11600019,41100809,2001110,0,0,3121041,30910219,1151141,3111180,10410519,-4150100,41911219,0,41910519,20310419,11500909,0,21400119
17,275,647.664376534522,0,0,724441.30409829,724442.351165723,1,ScrollLock,12,0,0,16,0,3151310,5121210,3240202,4342091,0,0,1120160,0,0,0,0,0,2031150,0,0,0,0,0,0,-1120160,4001050,0,2050151,0,0,0,0,0,1190051,0,0,0,0,0,3201010,0,0,0,0,1141081
17,276,1831.30378066562,1,0,724444.045312292,724445.092380495,1,ScrollLock,12,0,1,32,5,54442218,44691728,16373362,34131339,4120190,0,0,0,0,0,0,30011409,20310619,0,1190200,0,31800919,0,0,0,11700609,0,0,4121070,0,0,4021011,4090201,0,0,4141080,30910109,2181070,0,0,-1040160,0,0,0,0
17,277,769.185470882803,0,0,724448.04537966,724449.092443244,1,ScrollLock,12,1,0,20,20,127407147,97826265,132413606,155839905,40111709,10612019,30711819,0,41711409,0,2080100,0,2180091,0,31401919,0,31701209,3201190,0,10010219,11301609,10210119,10300719,-3140080,41400319,0,4160151,0,22000319,11310009,40102009,4101091,2200000,11301709,2110130,40910419,41711719,31301009,11401919,10801909
17,278,684.875231236219,1,0,724451.068974778,724452.116021808,1,ScrollLock,12,1,1,28,10,45974529,65153537,134165526,30732451,1111020,11111319,0,1041100,2200071,0,0,0,30511019,0,30801719,0,0,21000619,0,3040190,10311009,0,0,1051090,0,0,40700809,30202009,30610009,31601609,0,-3140030,4001061,20410319,0,0,0,3181041,0,0
17,279,1000.21721655503,1,0,724453.998409238,724455.04548052,1,ScrollLock,12,1,1,25,5,28241470,0,61663608,43723029,2200001,1080120,0,0,0,2030010,0,21901209,1030130,0,0,0,0,0,0,0,0,0,0,0,21810709,0,2101170,31501519,-2130050,0,4120160,20311919,0,2111101,0,0,0,0,21300009,0
17,280,1286.32322896738,0,0,724457.210223658,724458.257295326,1,ScrollLock,12,0,0,35,20,37453607,262971053,131096336,123884838,0,0,0,11610509,0,0,3031180,11701209,11110709,31902009,20301509,40511619,21401619,30711709,41612019,4020041,41100219,31410309,10201509,2010051,40100719,41601519,0,1151020,10210719,21710719,4110080,0,4080081,21310209,0,4180061,31211909,30312019,-2180050,30610509
17,281,2950.91969589703,1,0,724460.645585384,724461.692637419,1,ScrollLock,12,0,1,11,5,44011529,5420303,38184629,113662418,0,0,0,0,3000110,0,0,0,41011419,0,-1190081,0,1120041,3110181,0,0,0,0,30901419,0,0,4031060,2051110,0,1201040,0,0,1150081,0,30800619,0,0,0,0,41101209,40610509
17,282,1197.02118134592,1,0,724465.845647671,724466.89275206,1,ScrollLock,12,0,1,24,5,25211200,6101201,73914441,64503818,21100019,0,0,0,0,0,0,4111181,0,0,0,2050070,0,0,0,0,4051131,0,0,2110081,3051031,3011011,0,-3131090,41800119,0,20811109,0,0,3091180,30500619,30912019,0,0,0,0
17,283,1550.30314007308,1,0,724469.175113928,724470.222186366,1,ScrollLock,12,0,1,27,10,49273189,124457175,10312430,108496637,4111000,0,0,21911609,0,0,21200519,2050061,0,21411119,0,0,0,10811909,0,10510319,40511809,41212019,1150120,0,3051130,2081160,0,0,0,0,-4030020,30001819,30712019,0,0,0,0,3011010,40611709,4160080
17,284,967.21592603717,0,0,724472.822229251,724473.869297839,1,ScrollLock,12,1,0,31,20,72885568,66124467,97917755,180736883,21700009,4171180,11001519,2100091,2091041,0,10811309,21010419,0,3100111,0,10410409,11910319,4081140,12011319,0,3000160,21611009,1080170,31511919,22001919,0,0,0,12011019,20300809,11011919,21311409,41111019,11900209,-3000180,30700719,10110919,0,21701619,40900809
17,285,1010.63891965896,1,0,724476.034044826,724477.081120343,1,ScrollLock,12,1,1,34,0,6110102,4011061,10432372,5131251,0,0,4100051,0,0,0,2010051,0,0,0,0,0,0,0,0,4011061,0,0,0,0,4170160,0,0,0,4131191,2131021,0,0,2080161,0,0,0,0,-3051090,0,0
17,286,1127.35606788192,0,0,724479.187059698,724480.234100568,1,ScrollLock,12,1,0,18,10,43832069,70424837,79106046,37363170,0,21410119,0,0,0,1110031,0,0,21311919,31801809,0,10810409,0,0,0,21611409,2101100,-4100110,20511719,0,10502019,0,4100160,1050180,11610819,30310019,1021130,0,0,3121081,0,0,3130080,0,31112009,0
17,287,1371.13468965981,1,0,724482.481249537,724483.528270774,1,ScrollLock,12,1,1,2,10,45114319,45453029,64224245,80413798,30110709,-1170100,0,0,1011061,0,0,11811319,1011130,0,0,0,0,0,41311709,1011200,3130120,0,20501309,10500319,0,10410119,0,1100170,11501809,0,10210519,30411419,41801119,0,0,4050190,4151070,0,0,0
17,288,1474.98100344092,0,0,724486.022437438,724487.069502947,1,ScrollLock,12,0,0,5,0,10412112,4110091,4130001,7072443,4151030,0,0,0,-4170051,0,0,0,2091031,0,0,0,0,0,0,0,4110091,0,0,0,0,0,4130001,0,0,0,0,0,2000111,1051141,0,0,0,4021191,0,0
17,289,2347.4671987351,0,0,724493.799009471,724494.846089993,1,ScrollLock,13,1,0,31,20,72885568,66124467,97917755,180736883,21700009,4171180,11001519,2100091,2091041,0,10811309,21010419,0,3100111,0,10410409,11910319,4081140,12011319,0,3000160,21611009,1080170,31511919,22001919,0,0,0,12011019,20300809,11011919,21311409,41111019,11900209,-3000180,30700719,10110919,0,21701619,40900809
17,290,929.654370527714,0,0,724498.269686497,724499.316744306,1,ScrollLock,13,0,0,24,10,86684998,164824775,50353170,26913189,1190010,11301809,0,31401119,0,0,2191051,40601009,0,30300219,10801909,0,0,41511409,0,41000619,0,41210619,40011719,0,4070180,0,1070050,-4000040,0,1201181,0,0,21611919,0,1130190,0,4171080,0,0,0
17,291,875.877042068169,1,0,724501.387374905,724502.434440798,1,ScrollLock,13,1,1,18,10,43832069,70424837,79106046,37363170,0,21410119,0,0,0,1110031,0,0,21311919,31801809,0,10810409,0,0,0,21611409,2101100,-4100110,20511719,0,10502019,0,4100160,1050180,11610819,30310019,1021130,0,0,3121081,0,0,3130080,0,31112009,0
17,292,865.422617061995,1,0,724504.363888731,724505.410953855,1,ScrollLock,13,1,1,29,20,118686697,188445573,92995519,151593804,2070091,10801909,0,31101719,30001909,0,4011060,40700009,0,0,20601819,3090050,20510019,20911319,30210619,21110019,30501409,41510319,11600019,41100809,2001110,0,0,3121041,30910219,1151141,3111180,10410519,-4150100,41911219,0,41910519,20310419,11500909,0,21400119
17,293,1009.69768653158,0,0,724507.422760268,724508.469828471,1,ScrollLock,13,0,0,11,0,8181332,10251252,0,4120172,0,0,0,0,0,0,3030041,4030160,1121131,3050101,-4160121,0,0,0,0,3041030,0,0,0,0,0,0,0,0,0,0,0,0,0,1060101,0,0,0,3060071,0,0
17,294,1368.82722494192,0,0,724510.493402031,724511.540472544,1,ScrollLock,13,1,0,34,0,6110102,4011061,10432372,5131251,0,0,4100051,0,0,0,2010051,0,0,0,0,0,0,0,0,4011061,0,0,0,0,4170160,0,0,0,4131191,2131021,0,0,2080161,0,0,0,0,-3051090,0,0
17,295,1730.61800852884,1,0,724513.975802703,724515.022872061,1,ScrollLock,13,1,1,2,10,45114319,45453029,64224245,80413798,30110709,-1170100,0,0,1011061,0,0,11811319,1011130,0,0,0,0,0,41311709,1011200,3130120,0,20501309,10500319,0,10410119,0,1100170,11501809,0,10210519,30411419,41801119,0,0,4050190,4151070,0,0,0
17,296,1909.30448600557,1,0,724517.775867454,724518.822930652,1,ScrollLock,13,0,1,35,20,41223929,100594537,220737832,148266716,10800509,0,20910009,2191080,3061050,0,0,1180191,3081090,3010061,10301009,0,40301219,21210219,3060201,0,11511719,11200109,10700709,11601119,20411709,21810119,0,41900519,41901019,30811219,41601419,41401219,0,0,42011009,20211319,3111201,20000809,-1021050,20510109
17,297,836.546584148891,0,0,724521.787762023,724522.834765553,1,ScrollLock,13,0,0,8,20,102477026,209847741,76985358,99706157,1110000,10402019,20010309,0,21510609,4110080,41202009,-1121000,3011000,41210619,11111119,11501919,11211719,11800409,40900309,21400319,30310919,30400409,21010709,4061021,0,0,0,11401719,40511909,0,0,0,2120051,1010050,0,20811319,20401819,40410909,10800909,4151100
17,298,1476.58783674706,0,0,724524.681851156,724525.728918974,1,ScrollLock,13,1,0,7,0,4131040,7052360,5242472,4181110,0,0,0,0,0,0,-4131040,0,0,0,0,0,0,4051180,0,0,3001180,0,0,1070150,0,0,3081131,0,1091191,0,0,0,3091010,0,0,0,0,0,0,1090100
17,299,874.928109697066,0,0,724528.305477995,724529.352498463,1,ScrollLock,13,0,0,13,20,155245173,152597737,131207747,110074036,30211409,11810409,11201709,30410309,20011209,20500019,0,0,31100109,31501119,0,3021051,-2060080,41811909,0,41101709,1101050,32000819,0,2040200,4171021,40701119,1171170,30811209,0,41501809,10811219,11300519,0,1200140,11711219,2150031,0,41700109,21601509,20410509
17,300,827.103455434553,0,0,724531.376077412,724532.423137531,1,ScrollLock,13,0,0,21,0,4150121,5271021,6322290,12401480,0,0,0,4150121,0,0,0,0,0,0,3200010,2071011,0,0,0,0,0,0,0,0,-2151110,0,0,4171180,0,0,0,4030090,4191190,0,0,0,0,0,0,4180200
17,301,1245.99879805464,1,0,724534.270239688,724535.317337918,1,ScrollLock,13,0,1,32,5,44032669,86651888,16520789,8432442,0,10900009,0,0,0,0,30101619,3031041,0,41200819,0,41301009,0,0,0,0,4150060,0,0,0,4190070,2130000,0,10200719,0,0,0,1061120,0,0,0,-1160091,4161191,0,0,2050040
17,302,700.006949948147,0,0,724537.717351238,724538.764412126,1,ScrollLock,13,1,0,28,10,45974529,65153537,134165526,30732451,1111020,11111319,0,1041100,2200071,0,0,0,30511019,0,30801719,0,0,21000619,0,3040190,10311009,0,0,1051090,0,0,40700809,30202009,30610009,31601609,0,-3140030,4001061,20410319,0,0,0,3181041,0,0
17,303,1374.76103601512,1,0,724540.623308762,724541.670348863,1,ScrollLock,13,1,1,25,5,28241470,0,61663608,43723029,2200001,1080120,0,0,0,2030010,0,21901209,1030130,0,0,0,0,0,0,0,0,0,0,0,21810709,0,2101170,31501519,-2130050,0,4120160,20311919,0,2111101,0,0,0,0,21300009,0
17,304,726.908510434441,1,0,724544.223337019,724545.270402142,1,ScrollLock,13,1,1,20,20,127407147,97826265,132413606,155839905,40111709,10612019,30711819,0,41711409,0,2080100,0,2180091,0,31401919,0,31701209,3201190,0,10010219,11301609,10210119,10300719,-3140080,41400319,0,4160151,0,22000319,11310009,40102009,4101091,2200000,11301709,2110130,40910419,41711719,31301009,11401919,10801909
17,305,627.900019637309,0,0,724547.035132345,724548.082256752,1,ScrollLock,13,0,0,10,5,127974337,36892169,5131090,10232482,0,41210419,2031081,0,0,41910609,0,31311319,11510909,-4071000,0,0,0,31800109,0,0,1021060,0,0,0,2031040,0,0,0,0,3100050,0,4011121,0,0,0,4060201,0,2161160,0,0
17,306,512.624556082301,1,0,724549.776357511,724550.823421094,1,ScrollLock,13,0,1,16,0,5191350,8261362,7211322,4090171,0,0,2050160,0,3141190,0,0,0,0,3030081,0,0,0,0,2071100,-3160181,0,0,0,0,3190201,0,0,0,0,0,4021121,0,0,0,0,0,0,0,0,4090171
17,307,1271.11836732365,1,0,724552.435226507,724553.482346295,1,ScrollLock,13,1,1,1,5,19802979,69044489,67344770,0,-2181050,4200200,2120110,0,0,0,0,0,11301619,0,0,0,0,4200111,41701309,2031160,21111909,0,1131111,1081100,0,0,41110909,0,20010619,0,4011031,0,0,0,0,0,0,0,0,0
17,308,860.512805986218,1,0,724555.917631798,724556.964699231,1,ScrollLock,13,0,1,5,5,23402009,18603889,38421721,49733509,0,0,21211909,0,-2190100,0,0,0,0,0,10310419,4111160,0,0,0,0,3031140,1151170,3140181,0,4170031,0,0,0,0,0,31111509,0,0,0,30610819,3190030,0,4021141,11911519,0
17,309,981.564631219953,1,0,724559.023551135,724560.070627037,1,ScrollLock,13,1,1,23,5,23301950,33332479,9574293,64231657,0,0,2050091,0,20201819,0,0,1050040,0,30211309,0,0,3121170,0,0,0,0,0,0,0,2201171,0,-1201011,2131041,4041070,0,0,0,0,0,31600309,20310009,2121030,0,10200309,0
17,310,1680.51976617426,0,0,724562.12947817,724563.176555613,1,ScrollLock,13,1,0,17,0,2020151,7270252,0,8451312,0,0,0,0,0,2020151,0,0,0,0,3040141,2130041,0,0,1100020,0,-1000050,0,0,0,0,0,0,0,0,0,0,0,0,2201041,2140200,0,0,0,4110071,0
17,311,748.821727582254,0,0,724566.000144648,724567.047207077,1,ScrollLock,13,0,0,12,10,118595436,54902750,66802638,77203529,20400619,41500709,30501619,22001419,0,0,0,4191070,0,3040161,20811509,-4180180,0,2170010,21600709,0,0,3100181,0,0,41400819,0,0,0,1051200,4140010,20210609,0,0,0,4101101,0,41700419,0,31402009,0
17,312,651.338843046688,0,0,724568.917837753,724569.964892482,1,ScrollLock,13,0,0,27,10,82002279,75286138,80416278,15971589,4191181,0,4010061,40700609,0,21200019,0,11900409,0,21611309,0,11401819,0,41111909,0,0,0,1161101,1151060,10411919,0,41611409,4150081,0,20010709,0,-3081100,3091180,11710319,1170090,0,0,0,0,0,0
17,313,1250.85086468607,1,0,724575.21210189,724576.259118508,1,ScrollLock,14,1,1,1,5,19802979,69044489,67344770,0,-2181050,4200200,2120110,0,0,0,0,0,11301619,0,0,0,0,4200111,41701309,2031160,21111909,0,1131111,1081100,0,0,41110909,0,20010619,0,4011031,0,0,0,0,0,0,0,0,0
17,314,1498.80286445841,0,0,724578.706248921,724579.753289791,1,ScrollLock,14,1,0,25,5,28241470,0,61663608,43723029,2200001,1080120,0,0,0,2030010,0,21901209,1030130,0,0,0,0,0,0,0,0,0,0,0,21810709,0,2101170,31501519,-2130050,0,4120160,20311919,0,2111101,0,0,0,0,21300009,0
17,315,1459.29878845345,1,0,724582.341570534,724583.388637967,1,ScrollLock,14,0,1,5,20,140024937,148117994,134049714,111413939,11111119,30200419,0,41800609,-3090111,20810919,0,1101141,31910619,41700819,0,30011509,0,10711809,11901809,21510809,30110219,2171020,4031130,10211409,21501519,11911019,40000419,0,21311309,3171000,21911909,41600009,0,41001519,0,0,4190020,2191171,1020201,21411019
17,316,1262.77546130586,1,0,724585.871040179,724586.918151113,1,ScrollLock,14,0,1,35,5,6232222,33641630,37743128,49913998,0,0,3161051,0,3071171,0,0,0,0,0,0,0,0,1120091,0,0,2121020,30400519,0,20200409,10311519,4120170,0,0,0,0,3111030,4081080,11811809,30000909,0,0,0,0,-4020200,0
17,317,1074.07534087542,0,0,724589.341702576,724590.388742292,1,ScrollLock,14,0,0,24,10,108575896,107983448,47100440,58284170,4151140,0,20200719,0,31911909,0,40301219,12010909,0,32010519,0,0,2120201,41010609,30702009,0,2140110,0,42010409,0,0,0,1020001,-4070030,0,0,0,1050080,0,31411519,1190171,3121081,21511319,0,0,0
17,318,689.308843691833,0,0,724592.647630305,724593.694681184,1,ScrollLock,14,1,0,29,20,118686697,188445573,92995519,151593804,2070091,10801909,0,31101719,30001909,0,4011060,40700009,0,0,20601819,3090050,20510019,20911319,30210619,21110019,30501409,41510319,11600019,41100809,2001110,0,0,3121041,30910219,1151141,3111180,10410519,-4150100,41911219,0,41910519,20310419,11500909,0,21400119
17,319,1649.06987443101,0,0,724595.494710518,724596.541775642,1,ScrollLock,14,1,0,2,10,45114319,45453029,64224245,80413798,30110709,-1170100,0,0,1011061,0,0,11811319,1011130,0,0,0,0,0,41311709,1011200,3130120,0,20501309,10500319,0,10410119,0,1100170,11501809,0,10210519,30411419,41801119,0,0,4050190,4151070,0,0,0
17,320,1423.6843730323,1,0,724599.33007363,724600.377132594,1,ScrollLock,14,0,1,32,0,8421582,1090130,4161140,9351410,4121200,0,0,0,0,0,1170181,0,3130201,0,0,1090130,0,0,0,0,0,0,0,0,0,0,0,0,0,4161140,0,4091170,0,0,0,-1200170,0,0,4060070,0
17,321,993.534268462099,1,0,724602.977179714,724604.024254076,1,ScrollLock,14,1,1,18,10,43832069,70424837,79106046,37363170,0,21410119,0,0,0,1110031,0,0,21311919,31801809,0,10810409,0,0,0,21611409,2101100,-4100110,20511719,0,10502019,0,4100160,1050180,11610819,30310019,1021130,0,0,3121081,0,0,3130080,0,31112009,0
17,322,988.82771760691,0,0,724606.094918552,724607.141945949,1,ScrollLock,14,1,0,20,20,127407147,97826265,132413606,155839905,40111709,10612019,30711819,0,41711409,0,2080100,0,2180091,0,31401919,0,31701209,3201190,0,10010219,11301609,10210119,10300719,-3140080,41400319,0,4160151,0,22000319,11310009,40102009,4101091,2200000,11301709,2110130,40910419,41711719,31301009,11401919,10801909
17,323,865.227056085132,1,0,724609.306686007,724610.35375652,1,ScrollLock,14,1,1,28,10,45974529,65153537,134165526,30732451,1111020,11111319,0,1041100,2200071,0,0,0,30511019,0,30801719,0,0,21000619,0,3040190,10311009,0,0,1051090,0,0,40700809,30202009,30610009,31601609,0,-3140030,4001061,20410319,0,0,0,3181041,0,0
17,324,810.420338064432,1,0,724612.236170897,724613.283218696,1,ScrollLock,14,1,1,34,0,6110102,4011061,10432372,5131251,0,0,4100051,0,0,0,2010051,0,0,0,0,0,0,0,0,4011061,0,0,0,0,4170160,0,0,0,4131191,2131021,0,0,2080161,0,0,0,0,-3051090,0,0
17,325,1755.92389970552,0,0,724615.200904102,724616.24797423,1,ScrollLock,14,0,0,11,5,23403009,17421330,13601711,66516019,0,0,0,21302009,0,0,2101000,0,0,4040161,-3081060,0,0,0,10300109,0,0,0,0,11201609,0,0,0,0,1200061,0,1200041,0,1011061,0,21011919,0,40211919,2090100,2191020,0
17,326,653.785664238967,0,0,724619.212717445,724620.259825684,1,ScrollLock,14,1,0,17,0,2020151,7270252,0,8451312,0,0,0,0,0,2020151,0,0,0,0,3040141,2130041,0,0,1100020,0,-1000050,0,0,0,0,0,0,0,0,0,0,0,0,2201041,2140200,0,0,0,4110071,0
17,327,898.125946405344,1,0,724621.91863886,724622.965709373,1,ScrollLock,14,0,1,10,10,125802815,27352429,35333641,78842738,10511419,11700019,40210109,0,0,30000309,2070040,31310919,0,-4090080,0,20111219,0,0,0,0,3151130,0,0,0,1010140,0,2141201,30111109,0,0,2071191,3140041,2190150,21401419,0,0,21310209,0,0,30800919
17,328,1457.98414177261,1,0,724625.071634869,724626.118707306,1,ScrollLock,14,1,1,7,0,4131040,7052360,5242472,4181110,0,0,0,0,0,0,-4131040,0,0,0,0,0,0,4051180,0,0,3001180,0,0,1070150,0,0,3081131,0,1091191,0,0,0,3091010,0,0,0,0,0,0,1090100
17,329,780.263920081779,0,0,724628.777579767,724629.824646815,1,ScrollLock,14,0,0,8,10,12123373,116296476,55592518,74913867,0,4041081,4021141,0,0,0,0,-4061151,0,1051151,0,0,10601609,21000919,40110819,20000609,20511319,3020050,2170050,0,21901009,30510319,0,1011140,0,0,0,20611409,0,0,10600119,0,3101130,0,0,40601209
