sub_id,Trial,RT,Resp,Error,Fix_onset,Disp_onset,q1,q2,block,repeat,tid,tloc,d_setsize,quad1,quad2,quad3,quad4,loc1,loc2,loc3,loc4,loc5,loc6,loc7,loc8,loc9,loc10,loc11,loc12,loc13,loc14,loc15,loc16,loc17,loc18,loc19,loc20,loc21,loc22,loc23,loc24,loc25,loc26,loc27,loc28,loc29,loc30,loc31,loc32,loc33,loc34,loc35,loc36
2,1,405.181570109562,1,0,118783.899809911,118784.946874083,0,9,1,0,1,21,0,5201202,8311302,4381171,1081070,0,0,0,0,4060151,0,1141051,0,0,0,0,0,3130131,2181091,0,3000080,0,0,1191110,0,-3190061,0,0,0,0,0,0,0,1081070,0,0,0,0,0,0,0
2,2,818.97302751895,0,1,118786.499844711,118787.546906189,0,9,1,0,1,4,5,17360749,44243419,14451060,17502490,2120060,0,0,-4040070,0,11200619,0,0,0,1131111,0,20011709,0,0,0,2200090,0,20900509,0,3091041,0,0,10310019,0,0,1050000,0,0,3001171,11410209,0,0,0,0,0,3091110
2,3,1306.24121364963,1,0,118789.558703702,118790.605771339,0,9,1,1,1,8,5,5161121,23633869,23121481,36112399,0,0,0,0,0,2061031,0,-3100090,0,0,10511309,1111151,0,0,0,0,0,12011409,10900209,0,0,0,0,1020041,4070061,4031120,3100050,0,11801919,0,0,0,3010061,0,21300419,0
2,4,1342.35247659672,0,0,118793.076390734,118794.123454521,0,9,1,1,0,12,10,68303058,75996227,104921037,39302730,0,0,21401609,1051031,3010000,21610009,1020190,20210219,0,30801309,11311309,-2161090,0,0,0,0,1011200,30711319,0,31310109,0,0,0,0,0,31800619,41810309,0,0,4051180,2020001,0,0,0,30211519,3020030
2,5,834.349523182027,1,0,118796.629372911,118797.676439778,0,9,1,1,1,20,20,81193646,89146929,132847896,222589933,11110519,0,11410819,11601319,21010809,0,4060071,0,22000109,0,2061031,41101219,10801509,0,1171150,30911819,3100201,0,1090011,-3131120,41911209,20801819,0,2201000,31510619,21901709,10300409,22012009,31011419,0,21510419,21410819,3121020,41801119,40712019,41011109
2,6,548.20727086917,0,0,118799.723530897,118800.770588525,0,9,1,0,0,19,0,7201202,4041201,5051301,9292200,0,4141171,0,0,0,3060031,0,0,0,0,0,0,0,0,0,4041201,0,0,-2021201,0,0,0,0,0,3030100,0,0,4070020,4121130,1101050,0,0,0,0,0,0
2,7,783.935805651709,1,0,118802.41766671,118803.464738581,0,9,1,1,1,33,10,34625759,78835858,39005717,58661369,0,10301909,0,0,4161131,12001519,4070140,0,4091060,3041080,30400519,11701709,0,30511419,0,0,3181131,0,11901919,0,0,0,11911509,0,11011209,4181080,0,0,3100180,10911009,0,0,-4050161,0,40600019,0
2,8,1255.42752166803,1,0,118805.347116069,118806.394186016,0,9,1,0,1,22,10,42672339,109856776,81204019,42603239,0,0,10010019,0,0,0,30611319,2051001,0,11411419,1151120,0,0,41301309,0,11000409,3081000,41911519,30101609,0,0,-3110040,1000160,2071040,0,41810019,3111151,0,0,11410819,30001419,0,1191001,0,0,0
2,9,1077.08588728565,1,1,118808.829517194,118809.876580211,0,9,1,1,0,34,5,20800309,71444901,26960321,18071880,0,0,0,0,20800309,0,0,0,0,0,3001021,0,4030131,30101709,3200131,31111909,0,0,21700009,0,0,0,0,3150131,0,0,2110181,0,0,2171180,3000091,10810519,0,-2090090,0,0
2,10,1590.82475902687,0,0,118812.12366163,118813.170722337,0,9,1,0,0,36,20,135787667,111054198,80468277,130595904,1110181,40302009,0,21211409,40400119,1061021,11001809,20701119,0,3140201,40500419,41500809,0,11411919,10410719,0,0,4090131,3200110,40511209,0,11311319,10201919,0,2011170,2021031,11211519,11411909,11401719,10810109,0,31501109,10210609,20810109,31410319,-3040021
2,11,1022.81447596033,0,0,118815.923772191,118816.970782083,0,9,1,1,0,5,10,44200620,126914675,26054472,73031377,0,0,0,0,-1060191,0,3040110,40100319,0,41302009,30600119,0,0,11900419,0,0,21811209,21300919,2090010,0,3101111,0,0,4151201,2021000,3091141,11600009,10010319,0,0,0,0,0,1200130,20810009,41010919
2,12,1028.59774447279,0,0,118819.159037617,118820.206108719,0,9,1,1,0,32,20,197438203,65424377,141316465,131234989,41401819,0,41901409,0,11202019,40301019,20510219,30210509,11911209,4000200,0,3050190,11010309,4030050,1011000,0,30910809,11411819,11000619,31810309,11610809,0,10700909,4181191,31412019,0,40600609,2020011,1111151,11710119,41101609,-3080061,0,31000919,41211119,0
2,13,1481.52856776142,0,0,118822.417899996,118823.464969943,0,9,1,0,0,13,10,100573628,50933999,102904447,32464300,0,3120191,21511219,0,30000709,21000419,0,3040071,21901019,0,12011919,0,-3130050,3010090,0,2080021,0,30701919,0,0,0,0,0,40001609,0,21702019,41200819,0,0,0,21001119,0,4141041,0,3141040,4181100
2,14,1013.9461302897,1,0,118826.088531247,118827.135655089,0,9,1,1,1,3,0,5371302,5301080,4281191,0,1061080,0,-1070021,2070000,0,0,1170201,0,0,0,0,0,0,2141080,3160000,0,0,0,0,0,3171171,0,1110020,0,0,0,0,0,0,0,0,0,0,0,0,0
2,15,868.673412391217,1,1,118829.323868662,118830.37092552,0,9,1,0,0,24,20,128627205,150487035,100125928,199605166,0,20311009,11611909,11310409,10801119,41601719,2080131,30910909,0,41610819,0,41612009,3090090,0,11610519,41201319,1061070,10301209,1021001,32010819,2070060,0,40100809,-3101101,10411719,11410419,0,41210219,1161010,40900509,40501319,0,4011081,0,40110319,31710709
2,16,1015.85322688334,0,0,118832.394477816,118833.441549303,0,9,1,1,0,27,5,27033130,64220278,28642119,41413671,3200111,0,0,21711819,0,2121200,0,0,0,0,3100150,0,20410009,0,0,0,40710119,0,0,0,21311909,0,0,0,4190010,0,-3140200,0,32010519,3191020,3161051,0,0,0,0,3051081
2,17,862.947888017516,1,0,118835.50040098,118836.547466307,0,9,1,0,1,26,20,184289545,143256056,133076987,129614975,3201171,21510919,40512009,4051100,0,31500019,30600909,21511509,31401909,32010509,4130130,4191061,10101619,40500109,0,40810609,0,11512019,20301809,0,41301419,2080100,0,4160190,30111619,-4010041,31111809,4000000,0,20200519,12000819,0,0,30500509,31002019,31911109
2,18,923.508791529457,0,0,118838.523971754,118839.571028227,0,9,1,0,0,30,10,160845678,25373379,14742720,93183699,2201001,40401919,0,4130111,0,41501309,40700219,0,31911119,0,0,2071051,0,0,11701109,0,11601219,0,0,0,3050191,0,0,10511509,0,0,1181020,21411419,0,-3140140,4040101,2090111,0,31600919,30901009,0
2,19,1563.42747238523,1,0,118841.523999087,118842.571062489,0,9,1,1,1,35,0,3111171,0,7444391,5342142,0,3111171,0,0,0,0,0,0,0,0,0,0,0,0,0,0,0,0,1001120,0,1201161,3191000,0,2051110,0,0,0,1161031,0,0,0,0,0,0,-1161001,3020110
2,20,1502.2999063367,1,0,118845.182863621,118846.229924714,0,9,1,0,1,6,5,9343333,31400919,124083937,17805752,0,0,4201131,0,0,-3141001,2001201,0,0,0,0,31400919,0,0,0,0,0,0,0,0,40310819,2061090,40211519,0,41500509,0,0,0,1011081,0,0,1021171,4101041,10611419,0,1061040
2,21,803.128034356632,1,0,118848.877026766,118849.924085934,0,9,1,0,1,28,0,1001150,7392192,7231223,3080201,0,1001150,0,0,0,0,0,0,0,0,0,3131021,0,0,0,0,3180161,1081010,0,0,0,4151071,1050081,2030071,0,0,0,-3080201,0,0,0,0,0,0,0,0
2,22,648.402215112583,1,0,118851.935879213,118852.982951084,0,9,1,0,1,18,5,58102938,74743000,49273501,1070041,0,41911009,0,0,0,10911609,3180180,0,2100140,0,0,40011519,0,0,2030061,0,30610219,-2091201,41901309,2200101,0,0,0,3081001,0,0,2091090,0,1070041,0,0,0,0,0,0,0
2,23,955.967929854523,0,0,118854.712391282,118855.759451989,0,9,1,1,0,25,0,5242482,2021000,7331031,2130200,2130100,0,0,0,2091201,0,0,1021181,0,0,0,0,2021000,0,0,0,0,0,0,3190030,0,0,0,0,-4141001,0,0,0,0,0,0,1040040,0,0,0,1090160
2,24,1135.88790416543,0,0,118857.912423542,118858.959487714,0,9,1,1,0,7,20,171796476,82927068,149975157,219056003,20401309,41700209,0,41511319,21900019,1141031,-4031070,0,41111519,2091100,2010161,30301209,10811309,21100609,4011201,10511319,0,2090160,3151070,0,0,3090021,31011919,40800119,41110019,0,30812009,0,41511019,21901919,31610509,22010309,30510909,30210419,0,41300919
2,25,694.924747251207,0,0,118866.336040743,118867.383101065,0,9,2,0,0,22,0,10321421,0,5181351,5310401,0,0,0,0,3140161,3080130,0,0,4101130,0,0,0,0,0,0,0,0,0,0,0,0,-1010100,0,3041101,0,1130150,0,0,1140200,0,0,0,0,4170201,0,0
2,26,972.578225409961,1,0,118869.112549732,118870.159616214,0,9,2,1,1,7,20,171796476,82927068,149975157,219056003,20401309,41700209,0,41511319,21900019,1141031,-4031070,0,41111519,2091100,2010161,30301209,10811309,21100609,4011201,10511319,0,2090160,3151070,0,0,3090021,31011919,40800119,41110019,0,30812009,0,41511019,21901919,31610509,22010309,30510909,30210419,0,41300919
2,27,923.146158311283,1,0,118872.253766501,118873.300825669,0,9,2,1,1,5,10,44200620,126914675,26054472,73031377,0,0,0,0,-1060191,0,3040110,40100319,0,41302009,30600119,0,0,11900419,0,0,21811209,21300919,2090010,0,3101111,0,0,4151201,2021000,3091141,11600009,10010319,0,0,0,0,0,1200130,20810009,41010919
2,28,1051.43285875965,1,0,118875.418492836,118876.465561243,0,9,2,0,1,6,20,147890734,131644107,241146594,50565878,11911819,20102009,31211609,30711719,0,-3031050,30311209,0,20611319,40410209,21100619,31101409,31800519,1020200,3020111,0,3191040,0,31900109,0,30710519,20100219,42002019,40910709,30911719,4100181,40511119,2131020,3161120,11110909,21801319,1051191,0,11310319,0,0
2,29,1558.7490418402,0,0,118878.642170938,118879.689153883,0,9,2,0,0,18,10,71162871,63212348,66953579,35742078,1140011,4060081,0,1201181,20110809,0,30510609,12000119,2140061,20810219,0,10001809,0,0,0,30300319,0,-2100001,31601419,0,0,0,0,0,4180111,1061030,30111019,0,0,11001019,0,21600019,0,3141040,0,0
2,30,842.873328787391,0,0,118882.289169821,118883.336246697,0,9,2,0,0,26,20,98046445,119596584,139374768,149325969,21511609,2020170,0,10000609,31501419,0,11400719,21611919,0,11811919,21001119,40700409,11600319,21601309,0,11711409,1170100,0,0,0,0,20511509,31710219,41600719,40301009,-3121171,2130141,20210609,4130141,20501109,4111121,3180201,30410519,21811119,41810009,3161141
2,31,1032.13746051188,1,0,118885.253909321,118886.300971954,0,9,2,0,1,36,0,6331452,4001120,0,9333511,0,0,1150141,0,4000111,0,0,0,1181200,4001120,0,0,0,0,0,0,0,0,0,0,0,0,0,0,0,0,0,0,4131160,0,0,2081050,0,0,1111141,-2010160
2,32,900.22019323078,1,0,118888.418642971,118889.465716767,0,9,2,1,1,25,0,5242482,2021000,7331031,2130200,2130100,0,0,0,2091201,0,0,1021181,0,0,0,0,2021000,0,0,0,0,0,0,3190030,0,0,0,0,-4141001,0,0,0,0,0,0,1040040,0,0,0,1090160
2,33,954.568211804144,0,0,118891.536331311,118892.583398563,0,9,2,1,0,32,20,197438203,65424377,141316465,131234989,41401819,0,41901409,0,11202019,40301019,20510219,30210509,11911209,4000200,0,3050190,11010309,4030050,1011000,0,30910809,11411819,11000619,31810309,11610809,0,10700909,4181191,31412019,0,40600609,2020011,1111151,11710119,41101609,-3080061,0,31000919,41211119,0
2,34,703.966710309032,1,0,118894.618719501,118895.665785213,0,9,2,0,1,28,20,134695687,202210065,86813275,103076637,31600709,0,41011909,4141131,0,11100509,41710209,2030070,3101150,32011909,40801819,4191091,0,31701909,41401219,21000609,0,31101509,11311219,20710009,0,10101619,10510019,4070200,30110209,0,0,-1201101,10701209,4140021,0,11401819,11210819,30910509,31501009,2010150
2,35,1087.41785452003,0,0,118897.395218481,118898.442284963,0,9,2,1,0,33,10,34625759,78835858,39005717,58661369,0,10301909,0,0,4161131,12001519,4070140,0,4091060,3041080,30400519,11701709,0,30511419,0,0,3181131,0,11901919,0,0,0,11911509,0,11011209,4181080,0,0,3100180,10911009,0,0,-4050161,0,40600019,0
2,36,1303.64426699816,1,1,118900.548190803,118901.59526614,0,9,2,1,0,8,5,5161121,23633869,23121481,36112399,0,0,0,0,0,2061031,0,-3100090,0,0,10511309,1111151,0,0,0,0,0,12011409,10900209,0,0,0,0,1020041,4070061,4031120,3100050,0,11801919,0,0,0,3010061,0,21300419,0
2,37,921.864238320268,1,0,118903.912938234,118904.960000482,0,9,2,0,1,4,10,46035038,42835469,78525446,16972971,20011209,0,0,-4110191,11301619,10612019,0,0,0,3051131,11111709,0,21411509,3100070,0,0,0,4161050,41611619,10100219,11912019,4101170,0,10800419,0,0,0,0,3040180,0,2130091,0,10711519,1091181,0,0
2,38,1351.6858551011,0,0,118907.018888345,118908.065925955,0,9,2,1,0,34,5,20800309,71444901,26960321,18071880,0,0,0,0,20800309,0,0,0,0,0,3001021,0,4030131,30101709,3200131,31111909,0,0,21700009,0,0,0,0,3150131,0,0,2110181,0,0,2171180,3000091,10810519,0,-2090090,0,0
2,39,1049.7209373716,1,0,118910.524840611,118911.5718455,0,9,2,1,1,20,20,81193646,89146929,132847896,222589933,11110519,0,11410819,11601319,21010809,0,4060071,0,22000109,0,2061031,41101219,10801509,0,1171150,30911819,3100201,0,1090011,-3131120,41911209,20801819,0,2201000,31510619,21901709,10300409,22012009,31011419,0,21510419,21410819,3121020,41801119,40712019,41011109
2,40,1247.63437196088,1,0,118913.760108348,118914.807178679,0,9,2,1,1,12,10,68303058,75996227,104921037,39302730,0,0,21401609,1051031,3010000,21610009,1020190,20210219,0,30801309,11311309,-2161090,0,0,0,0,1011200,30711319,0,31310109,0,0,0,0,0,31800619,41810309,0,0,4051180,2020001,0,0,0,30211519,3020030
2,41,1313.04000919044,1,0,118917.195442221,118918.242508703,0,9,2,0,1,19,5,17002321,63614229,85774200,12301411,0,0,11801209,1140051,4061061,0,0,0,0,0,0,0,0,2100201,0,40312009,21202019,0,-1151111,40711219,0,0,2010061,0,41901809,0,0,0,4040191,0,4061120,0,0,0,0,4200100
2,42,1185.60522733605,0,0,118920.677843345,118921.724893274,0,9,2,0,0,30,10,86763128,33794139,82134849,101062359,20210109,4140081,0,0,0,30711019,0,0,31701919,21201209,0,2191111,0,0,0,0,10401819,0,0,4171041,31500719,0,0,40301919,0,3090120,3071050,0,0,-4030141,40510219,41901109,0,2160200,2060171,10400519
2,43,650.877514082822,1,0,118924.089696139,118925.136699103,0,9,2,0,1,24,0,4071070,7091211,7112192,7351072,0,0,0,4071070,0,0,0,0,0,0,0,0,4000141,0,0,3091070,0,0,0,0,0,0,0,-4091191,0,0,3021001,0,4121001,0,2070011,0,1160060,0,0,0
2,44,1383.08134629915,0,0,118926.854376048,118927.901432906,0,9,2,0,0,13,5,18172390,6371241,48061420,91524937,0,0,0,0,10811219,2010091,0,4191060,1160020,0,0,1070090,-4140100,0,0,0,0,1161051,3071070,0,0,0,0,0,3180041,41810309,0,31001509,0,0,30511819,0,0,30011609,0,0
2,45,991.973328549648,0,0,118930.348533881,118931.395593433,0,9,2,0,0,21,5,9521271,33382320,139593037,6292172,0,4200120,0,0,0,3200041,2121110,0,0,0,1120131,0,0,2051080,0,0,0,30211109,32010809,31201409,-3060101,0,42010409,0,0,0,31310309,4101121,0,2191051,0,0,0,0,0,0
2,46,2222.44291163224,0,0,118933.430917451,118934.477982778,0,9,2,1,0,3,0,5371302,5301080,4281191,0,1061080,0,-1070021,2070000,0,0,1170201,0,0,0,0,0,0,2141080,3160000,0,0,0,0,0,3171171,0,1110020,0,0,0,0,0,0,0,0,0,0,0,0,0
2,47,1146.11477707513,1,0,118937.866264798,118938.913322425,0,9,2,1,1,35,0,3111171,0,7444391,5342142,0,3111171,0,0,0,0,0,0,0,0,0,0,0,0,0,0,0,0,1001120,0,1201161,3191000,0,2051110,0,0,0,1161031,0,0,0,0,0,0,-1161001,3020110
2,48,718.557885615155,0,0,118941.195710923,118942.242771631,0,9,2,1,0,27,5,27033130,64220278,28642119,41413671,3200111,0,0,21711819,0,2121200,0,0,0,0,3100150,0,20410009,0,0,0,40710119,0,0,0,21311909,0,0,0,4190010,0,-3140200,0,32010519,3191020,3161051,0,0,0,0,3051081
2,49,978.3537947078,1,0,118947.88990217,118948.936965573,0,9,3,0,1,22,20,181047913,133277336,158606247,117744637,40810719,11900119,31001019,31900109,20711219,3121000,10601819,0,31001909,4110030,40601409,11111219,1131000,31901509,0,20111919,20300109,4010141,31011819,40600909,10801309,-2071061,2110121,0,30600909,41410119,0,30310919,0,41300719,4081150,1140030,40911819,0,0,0
2,50,669.594316015719,1,0,118951.007580887,118952.054646599,0,9,3,1,1,3,0,5371302,5301080,4281191,0,1061080,0,-1070021,2070000,0,0,1170201,0,0,0,0,0,0,2141080,3160000,0,0,0,0,0,3171171,0,1110020,0,0,0,0,0,0,0,0,0,0,0,0,0
2,51,1157.47689983982,0,0,118953.748789726,118954.795858517,0,9,3,0,0,26,10,69042440,166044046,54782698,47273980,0,21600409,3100200,40101619,3080171,1160041,0,0,0,0,11100009,2031081,31102009,0,41100019,0,40300009,40410919,0,0,10011719,0,0,0,0,-3060170,41710809,0,3121060,40900819,0,0,0,0,2081071,1171030
2,52,1666.87187209027,0,0,118957.019421901,118958.066479914,0,9,3,0,0,30,20,131187596,206557502,87312957,143284278,0,2111090,11200109,31311809,0,40901719,40501809,4121000,1040060,10910819,40611019,20001119,31300209,11211109,0,11210609,40501309,40811309,0,0,0,2000010,40801309,0,30910519,2090000,11511119,11110009,4190091,-3110111,31100619,0,31100219,1161191,30300519,31211519
2,53,966.324149630964,0,0,118960.901811323,118961.948882424,0,9,3,0,0,4,0,8403362,2130040,4461192,0,3171181,2180040,1021100,-2031041,0,0,0,0,0,0,0,0,0,0,2130040,0,0,0,0,0,0,0,1131010,0,2170041,1160141,0,0,0,0,0,0,0,0,0,0
2,54,1092.98477497941,0,0,118964.043028477,118965.090093419,0,9,3,1,0,33,10,34625759,78835858,39005717,58661369,0,10301909,0,0,4161131,12001519,4070140,0,4091060,3041080,30400519,11701709,0,30511419,0,0,3181131,0,11901919,0,0,0,11911509,0,11011209,4181080,0,0,3100180,10911009,0,0,-4050161,0,40600019,0
2,55,805.412392684957,1,0,118967.313649103,118968.360716355,0,9,3,0,1,19,5,45202009,61910728,26453931,21852012,0,0,3180050,1120150,0,0,0,40901809,0,40410219,21500509,0,0,0,0,0,0,0,-1071100,0,0,0,3201001,0,21001719,0,1180111,11500619,0,3041141,4150201,3160051,0,0,0,0
2,56,904.59296478366,1,0,118970.231336751,118971.278393994,0,9,3,1,1,12,10,68303058,75996227,104921037,39302730,0,0,21401609,1051031,3010000,21610009,1020190,20210219,0,30801309,11311309,-2161090,0,0,0,0,1011200,30711319,0,31310109,0,0,0,0,0,31800619,41810309,0,0,4051180,2020001,0,0,0,30211519,3020030
2,57,954.222901826142,1,0,118973.36076717,118974.407847126,0,9,3,0,1,24,10,118747516,112507609,13622219,4062032,2000070,41911619,0,10200819,2100071,0,20011209,20511819,22011909,30501209,2161201,3191161,30001109,0,0,31500509,4141111,11011309,0,11601109,0,0,0,-2021110,0,0,0,0,0,0,0,0,0,2051001,0,2011031
2,58,1319.52044200443,0,0,118976.572576925,118977.619648412,0,9,3,1,0,8,5,5161121,23633869,23121481,36112399,0,0,0,0,0,2061031,0,-3100090,0,0,10511309,1111151,0,0,0,0,0,12011409,10900209,0,0,0,0,1020041,4070061,4031120,3100050,0,11801919,0,0,0,3010061,0,21300419,0
2,59,1125.01006230013,1,0,118980.102028364,118981.149143351,0,9,3,0,1,18,5,37211790,105137019,1091060,44183049,0,0,0,4080141,0,30010609,0,0,3121040,0,41502009,0,4011100,42001109,4111091,0,11510519,-2001191,0,0,0,0,0,0,1091060,0,0,0,0,3011150,0,0,0,1061080,0,40110819
2,60,1046.10307424446,0,0,118983.419715087,118984.466785419,0,9,3,1,0,34,5,20800309,71444901,26960321,18071880,0,0,0,0,20800309,0,0,0,0,0,3001021,0,4030131,30101709,3200131,31111909,0,0,21700009,0,0,0,0,3150131,0,0,2110181,0,0,2171180,3000091,10810519,0,-2090090,0,0
2,61,1022.1819850849,0,0,118986.713868762,118987.760932549,0,9,3,1,0,25,0,5242482,2021000,7331031,2130200,2130100,0,0,0,2091201,0,0,1021181,0,0,0,0,2021000,0,0,0,0,0,0,3190030,0,0,0,0,-4141001,0,0,0,0,0,0,1040040,0,0,0,1090160
2,62,1500.95369786141,1,0,118989.81979077,118990.866848783,0,9,3,0,1,36,20,136975698,190753122,89004720,117717187,40300509,0,30310619,40011519,0,0,2121181,3131061,21100809,20502019,11701119,11511309,21901819,41711719,40201409,3111200,30012009,10100519,0,31000409,1180091,2151141,0,11400519,2071151,41201409,0,0,20401409,4201181,20401019,31410419,20101809,0,20111219,-1090131
2,63,1451.20904246869,0,1,118993.572767866,118994.619828959,0,9,3,1,1,20,20,81193646,89146929,132847896,222589933,11110519,0,11410819,11601319,21010809,0,4060071,0,22000109,0,2061031,41101219,10801509,0,1171150,30911819,3100201,0,1090011,-3131120,41911209,20801819,0,2201000,31510619,21901709,10300409,22012009,31011419,0,21510419,21410819,3121020,41801119,40712019,41011109
2,64,1061.24974823615,1,0,118997.137510216,118998.184579007,0,9,3,1,1,35,0,3111171,0,7444391,5342142,0,3111171,0,0,0,0,0,0,0,0,0,0,0,0,0,0,0,0,1001120,0,1201161,3191000,0,2051110,0,0,0,1161031,0,0,0,0,0,0,-1161001,3020110
2,65,993.50085365586,1,0,119000.302280436,119001.349318816,0,9,3,1,1,7,20,171796476,82927068,149975157,219056003,20401309,41700209,0,41511319,21900019,1141031,-4031070,0,41111519,2091100,2010161,30301209,10811309,21100609,4011201,10511319,0,2090160,3151070,0,0,3090021,31011919,40800119,41110019,0,30812009,0,41511019,21901919,31610509,22010309,30510909,30210419,0,41300919
2,66,661.931668088073,1,0,119003.431707006,119004.478770023,0,9,3,1,1,27,5,27033130,64220278,28642119,41413671,3200111,0,0,21711819,0,2121200,0,0,0,0,3100150,0,20410009,0,0,0,40710119,0,0,0,21311909,0,0,0,4190010,0,-3140200,0,32010519,3191020,3161051,0,0,0,0,3051081
2,67,629.723524296423,0,0,119006.172917,119007.219976938,0,9,3,0,0,21,0,3361330,0,8210221,9523441,1181160,0,0,0,0,0,2180170,0,0,0,0,0,0,0,0,0,0,0,0,0,-4130110,0,0,0,0,4080111,0,4201090,1121140,0,0,0,0,2040010,0,2161201
2,68,1292.33988838678,1,0,119009.00823609,119010.055307192,0,9,3,1,1,5,10,44200620,126914675,26054472,73031377,0,0,0,0,-1060191,0,3040110,40100319,0,41302009,30600119,0,0,11900419,0,0,21811209,21300919,2090010,0,3101111,0,0,4151201,2021000,3091141,11600009,10010319,0,0,0,0,0,1200130,20810009,41010919
2,69,944.606577017112,0,0,119012.420035375,119013.467103012,0,9,3,0,0,6,5,12473642,43701679,2260310,84533137,0,1031171,0,3171131,3090170,-1001010,0,0,4180160,0,1090151,30900219,0,0,0,0,0,11711309,0,0,1190130,0,0,0,0,0,1070180,0,0,11610109,0,0,0,0,41211619,31711409
2,70,1595.44852514227,1,1,119015.573010391,119016.620083803,0,9,3,0,0,28,10,45152500,45560949,66874137,106824679,0,0,2081100,0,2071091,0,0,0,41000309,0,1060080,0,1100031,0,0,31800319,11600519,0,11201009,11710209,1070160,21601619,20200019,0,0,1091121,0,-2120051,0,0,31400809,0,40802009,2090101,30411709,0
2,71,1644.87058324448,0,0,119019.396585093,119020.443655424,0,9,3,1,0,32,20,197438203,65424377,141316465,131234989,41401819,0,41901409,0,11202019,40301019,20510219,30210509,11911209,4000200,0,3050190,11010309,4030050,1011000,0,30910809,11411819,11000619,31810309,11610809,0,10700909,4181191,31412019,0,40600609,2020011,1111151,11710119,41101609,-3080061,0,31000919,41211119,0
2,72,1561.45801210369,0,0,119023.231925356,119024.278992993,0,9,3,0,0,13,0,6300182,5251251,3010191,10222130,0,4200041,0,0,0,0,0,2100141,0,0,0,0,-3121131,0,2130120,0,0,0,0,0,0,3010191,0,0,0,0,0,0,4011090,0,0,2120010,4091030,0,0,0
2,73,819.667112125899,1,0,119034.749712092,119035.796767025,0,9,4,0,1,4,5,35072830,9452501,37511458,61922428,30000719,0,0,-2031050,0,0,0,3041061,0,0,0,1040190,2190130,0,4031161,2191020,0,0,0,4080100,0,20511209,0,0,1020130,11900019,0,0,0,20611809,0,0,41310619,0,0,0
2,74,1498.04531779955,0,0,119037.667381646,119038.714448513,0,9,4,0,0,6,10,44852018,52673398,108794488,39692138,10211719,3140140,30310119,0,0,-1190040,0,0,0,2160060,0,30512019,0,0,20001319,0,0,0,4091070,0,30400119,1020090,0,30801809,2081191,0,40400209,0,3040051,0,11800119,11910309,11901509,0,1040150,0
2,75,1329.71613305563,0,0,119041.361549026,119042.408660933,0,9,4,1,0,20,20,81193646,89146929,132847896,222589933,11110519,0,11410819,11601319,21010809,0,4060071,0,22000109,0,2061031,41101219,10801509,0,1171150,30911819,3100201,0,1090011,-3131120,41911209,20801819,0,2201000,31510619,21901709,10300409,22012009,31011419,0,21510419,21410819,3121020,41801119,40712019,41011109
2,76,729.688261882984,0,0,119044.902756787,119045.949820574,0,9,4,0,0,22,20,108347420,145936564,198436283,88266198,2111030,0,40411109,1070140,3011101,4181171,11900419,41611309,4051141,30702009,0,21110409,21900409,40200509,0,12011609,20011619,0,20510109,0,41100419,-3201180,40710119,31011309,10700619,21101819,30100709,10110719,20800719,0,21911919,0,0,4171131,1170091,30101619
2,77,1103.33175570122,0,0,119047.738082806,119048.785148903,0,9,4,0,0,24,10,44790869,49554968,57485048,88175506,3080150,0,41710719,0,0,0,0,0,0,0,31200509,1131190,2081060,12001119,3141090,0,0,0,2121110,1001000,20401109,0,20800819,-2150091,0,11010919,0,11811609,0,0,0,3041160,12001409,0,21210609,40110719
2,78,992.315173891257,0,0,119050.949888327,119051.99694788,0,9,4,1,0,35,0,3111171,0,7444391,5342142,0,3111171,0,0,0,0,0,0,0,0,0,0,0,0,0,0,0,0,1001120,0,1201161,3191000,0,2051110,0,0,0,1161031,0,0,0,0,0,0,-1161001,3020110
2,79,735.936178287375,0,0,119054.126437198,119055.17345479,0,9,4,0,0,13,5,3210280,21302490,27713168,50413869,0,0,0,2040110,0,1170170,0,0,0,0,0,0,-1101081,0,20201409,0,0,0,0,0,2141070,0,4061170,11010819,0,10500109,0,0,2001151,2131090,0,10810409,0,0,4170000,31301219
2,80,786.441131567699,1,0,119056.91465593,119057.961727032,0,9,4,1,1,32,20,197438203,65424377,141316465,131234989,41401819,0,41901409,0,11202019,40301019,20510219,30210509,11911209,4000200,0,3050190,11010309,4030050,1011000,0,30910809,11411819,11000619,31810309,11610809,0,10700909,4181191,31412019,0,40600609,2020011,1111151,11710119,41101609,-3080061,0,31000919,41211119,0
2,81,782.616929383948,1,0,119059.773510379,119060.820575706,0,9,4,1,1,12,10,68303058,75996227,104921037,39302730,0,0,21401609,1051031,3010000,21610009,1020190,20210219,0,30801309,11311309,-2161090,0,0,0,0,1011200,30711319,0,31310109,0,0,0,0,0,31800619,41810309,0,0,4051180,2020001,0,0,0,30211519,3020030
2,82,792.597427265719,0,0,119062.773553879,119063.820612277,0,9,4,0,0,26,0,8291172,1151021,7150390,3372382,2061020,0,0,3140081,0,0,3090071,0,0,0,0,0,0,0,1151021,0,0,0,0,0,0,0,3150200,0,0,-4000190,0,0,0,0,0,1181181,0,0,0,2191201
2,83,709.830050705932,1,0,119065.785353318,119066.832409406,0,9,4,0,1,19,0,1111171,6181352,2071252,7182152,0,0,0,0,0,0,1111171,0,0,1020100,4000201,0,0,0,0,0,1161051,0,-1041121,0,0,0,0,1030131,0,0,0,0,0,0,0,4071111,0,0,3111041,0
2,84,1634.56055877032,0,0,119068.63243489,119069.679507147,0,9,4,1,0,8,5,5161121,23633869,23121481,36112399,0,0,0,0,0,2061031,0,-3100090,0,0,10511309,1111151,0,0,0,0,0,12011409,10900209,0,0,0,0,1020041,4070061,4031120,3100050,0,11801919,0,0,0,3010061,0,21300419,0
2,85,1134.55324452661,0,0,119072.47954264,119073.526605272,0,9,4,1,0,3,0,5371302,5301080,4281191,0,1061080,0,-1070021,2070000,0,0,1170201,0,0,0,0,0,0,2141080,3160000,0,0,0,0,0,3171171,0,1110020,0,0,0,0,0,0,0,0,0,0,0,0,0
2,86,996.383056364721,1,0,119075.83251681,119076.879577902,0,9,4,0,1,18,5,41295288,7612410,0,120126249,4171120,0,3101150,0,0,22011509,0,0,12011509,4140110,1141120,0,0,0,0,0,1171090,-1160090,0,0,0,0,0,0,0,0,0,42012019,4200201,40001119,30901809,0,0,0,3011101,0
2,87,789.807230219594,1,0,119079.044321946,119080.091385348,0,9,4,1,1,5,10,44200620,126914675,26054472,73031377,0,0,0,0,-1060191,0,3040110,40100319,0,41302009,30600119,0,0,11900419,0,0,21811209,21300919,2090010,0,3101111,0,0,4151201,2021000,3091141,11600009,10010319,0,0,0,0,0,1200130,20810009,41010919
2,88,588.501904596342,0,0,119082.032586411,119083.079648658,0,9,4,0,0,21,0,0,12372152,4270171,7333292,0,0,0,0,0,0,0,0,0,4131071,0,0,0,0,0,0,4040031,4201050,0,0,-1180040,0,0,0,0,3090131,0,0,0,3041101,0,1091030,0,0,0,3201161
2,89,1116.17559321166,1,0,119084.820855957,119085.867916665,0,9,4,1,1,34,5,20800309,71444901,26960321,18071880,0,0,0,0,20800309,0,0,0,0,0,3001021,0,4030131,30101709,3200131,31111909,0,0,21700009,0,0,0,0,3150131,0,0,2110181,0,0,2171180,3000091,10810519,0,-2090090,0,0
2,90,822.036161873257,1,0,119088.079708327,119089.126779814,0,9,4,1,1,25,0,5242482,2021000,7331031,2130200,2130100,0,0,0,2091201,0,0,1021181,0,0,0,0,2021000,0,0,0,0,0,0,3190030,0,0,0,0,-4141001,0,0,0,0,0,0,1040040,0,0,0,1090160
2,91,1294.1411207139,1,0,119090.973868315,119092.020927868,0,9,4,0,1,30,20,192355366,219448213,110552888,145916008,40800919,0,4030081,31311009,41301209,21210409,1000101,21700719,31000919,40710209,41211509,0,21501219,0,41711519,21711619,21701319,30900819,2000021,41810019,30210619,0,0,3021020,0,3000100,30511109,0,41810909,-3121141,0,31600409,4201160,40410819,21711509,3060061
2,92,1331.67827906436,0,0,119094.468028458,119095.515093015,0,9,4,0,0,28,20,130329648,116517593,107863296,124254996,10810409,1121200,4201190,4191181,42011509,2121140,41600619,20111319,4161081,10800109,10301419,21401809,0,21402019,10701009,10800909,0,31110319,10511409,0,31901319,3040140,0,20400119,0,0,42010309,-4130191,21311909,0,31710519,0,4080030,21611119,31000719,10410509
2,93,1075.99105831468,0,0,119098.032762723,119099.079828435,0,9,4,1,0,7,20,171796476,82927068,149975157,219056003,20401309,41700209,0,41511319,21900019,1141031,-4031070,0,41111519,2091100,2010161,30301209,10811309,21100609,4011201,10511319,0,2090160,3151070,0,0,3090021,31011919,40800119,41110019,0,30812009,0,41511019,21901919,31610509,22010309,30510909,30210419,0,41300919
2,94,1443.96292229067,0,0,119101.33868042,119102.385744977,0,9,4,1,0,33,10,34625759,78835858,39005717,58661369,0,10301909,0,0,4161131,12001519,4070140,0,4091060,3041080,30400519,11701709,0,30511419,0,0,3181131,0,11901919,0,0,0,11911509,0,11011209,4181080,0,0,3100180,10911009,0,0,-4050161,0,40600019,0
2,95,610.107068598154,1,0,119104.938727539,119105.985790171,0,9,4,1,1,27,5,27033130,64220278,28642119,41413671,3200111,0,0,21711819,0,2121200,0,0,0,0,3100150,0,20410009,0,0,0,40710119,0,0,0,21311909,0,0,0,4190010,0,-3140200,0,32010519,3191020,3161051,0,0,0,0,3051081
2,96,1692.21847169683,1,0,119107.703462882,119108.750527054,0,9,4,0,1,36,10,41300749,97802219,38912581,87757918,0,0,0,0,10100609,30200019,0,0,1000121,0,2070041,0,1020031,0,31300619,0,31410509,32001019,0,0,0,2091021,0,0,1080170,31611309,4130081,0,11011609,2201031,40111809,0,0,11802009,21510309,-1121151
2,97,1311.43318212708,1,0,119116.280023148,119117.327095405,0,9,5,1,1,34,5,20800309,71444901,26960321,18071880,0,0,0,0,20800309,0,0,0,0,0,3001021,0,4030131,30101709,3200131,31111909,0,0,21700009,0,0,0,0,3150131,0,0,2110181,0,0,2171180,3000091,10810519,0,-2090090,0,0
2,98,612.716333998833,0,0,119119.785954627,119120.833019184,0,9,5,0,0,19,0,12422373,6141231,9311312,0,4151171,0,4160201,0,0,0,0,0,4111001,0,0,0,2060160,0,4081071,0,0,0,-4071021,0,0,1160120,0,0,0,4080171,0,0,0,0,0,0,0,0,0,0
2,99,766.9378543942,1,0,119122.597751447,119123.644821779,0,9,5,1,1,25,0,5242482,2021000,7331031,2130200,2130100,0,0,0,2091201,0,0,1021181,0,0,0,0,2021000,0,0,0,0,0,0,3190030,0,0,0,0,-4141001,0,0,0,0,0,0,1040040,0,0,0,1090160
2,100,552.97347252781,1,0,119125.515421002,119126.562484019,0,9,5,0,1,26,20,91977657,101658256,147064986,187135474,1081001,10510609,12010809,4161160,10211909,2190051,10611709,41200409,0,0,11811119,4161181,12001119,0,30611309,21501919,1070090,20501519,21900709,0,32001009,3141050,41400909,4020170,0,-4200020,40401119,0,41400809,0,32001009,21201909,0,40010019,31810719,20711009
2,101,852.864990534727,1,0,119128.162513815,119129.209578757,0,9,5,1,1,7,20,171796476,82927068,149975157,219056003,20401309,41700209,0,41511319,21900019,1141031,-4031070,0,41111519,2091100,2010161,30301209,10811309,21100609,4011201,10511319,0,2090160,3151070,0,0,3090021,31011919,40800119,41110019,0,30812009,0,41511019,21901919,31610509,22010309,30510909,30210419,0,41300919
2,102,1155.45123525953,0,1,119131.139021187,119132.186086899,0,9,5,0,1,6,10,69645149,49272390,106923399,67334587,0,4070151,0,30411909,0,-4161080,0,31002009,0,0,0,0,0,4191121,0,42001209,0,3080060,0,0,3080161,0,40701109,1031001,40110719,0,22000409,4000191,0,10300409,21510319,0,0,10211609,20211919,1100140
2,103,2123.75277979299,1,1,119134.362584956,119135.409651823,0,9,5,0,0,4,0,6080160,0,8471371,9312153,0,3080010,0,-3000150,0,0,0,0,0,0,0,0,0,0,0,0,0,0,4160181,0,0,3171170,0,0,0,0,1140020,0,3181031,0,0,0,3020091,0,3111031,0
2,104,1034.45492549508,1,0,119138.550875521,119139.597931224,0,9,5,0,1,18,10,59714519,65902270,31623838,79977776,0,40700909,4061071,11911419,0,0,3041120,0,0,30101619,0,30500309,0,1120111,0,0,2030060,-2150171,0,0,0,0,0,20811819,0,0,10812019,30001919,11900909,3191170,0,0,3130050,1041200,10001909,20710619
2,105,912.162067208556,0,0,119141.833259785,119142.880322417,0,9,5,1,0,20,20,81193646,89146929,132847896,222589933,11110519,0,11410819,11601319,21010809,0,4060071,0,22000109,0,2061031,41101219,10801509,0,1171150,30911819,3100201,0,1090011,-3131120,41911209,20801819,0,2201000,31510619,21901709,10300409,22012009,31011419,0,21510419,21410819,3121020,41801119,40712019,41011109
2,106,507.374076754786,1,0,119144.903886262,119145.950942735,0,9,5,0,1,22,20,90623070,247250482,93995849,186938183,40110419,4131141,0,0,0,0,40311409,4000010,2070091,40701309,11311319,11801209,40001109,1010180,40801309,40411919,31111409,30100719,4181000,10701109,2060011,-1001111,0,30701809,41210609,0,4140200,30801409,11911509,30810009,10201019,41501509,41001909,0,0,20710819
2,107,1222.28815732524,0,0,119147.503908744,119148.550979461,0,9,5,0,0,30,20,177738512,137686086,69194560,204014965,0,41001309,10601619,11900519,40711509,11001619,10800709,41310319,10410909,41711009,0,0,0,31111019,1001020,40910519,21811509,1141010,1041090,0,0,2161171,2131001,2060170,31200119,0,30601009,41700719,21300119,-4011030,11101109,41110219,40400219,0,4190031,40201519
2,108,1077.06933395821,0,0,119150.986303709,119152.033362877,0,9,5,0,0,36,5,60111718,13324440,15450919,54143640,30110709,0,30001009,0,0,0,0,0,0,0,0,4071100,0,0,4061050,3011150,0,2181140,0,0,4150200,0,0,0,11300719,0,0,30311319,0,4201150,0,11511109,0,0,4090051,-4030011
2,109,1723.17125777772,0,0,119154.198099606,119155.245163393,0,9,5,1,0,8,5,5161121,23633869,23121481,36112399,0,0,0,0,0,2061031,0,-3100090,0,0,10511309,1111151,0,0,0,0,0,12011409,10900209,0,0,0,0,1020041,4070061,4031120,3100050,0,11801919,0,0,0,3010061,0,21300419,0
2,110,1017.76109341881,0,0,119158.139328771,119159.186386784,0,9,5,0,0,24,5,50034260,21211309,30683900,8181302,11311509,0,3090201,0,0,0,0,31511409,4121141,0,0,0,0,0,21211309,0,0,0,11910619,11401019,4120031,0,1111201,-2141030,0,0,0,0,2001071,0,4050171,0,0,2130060,0,0
2,111,1077.55130509031,0,0,119161.221711572,119162.268773819,0,9,5,1,0,27,5,27033130,64220278,28642119,41413671,3200111,0,0,21711819,0,2121200,0,0,0,0,3100150,0,20410009,0,0,0,40710119,0,0,0,21311909,0,0,0,4190010,0,-3140200,0,32010519,3191020,3161051,0,0,0,0,3051081
2,112,697.583672619658,0,0,119164.374685819,119165.421758075,0,9,5,0,0,21,10,93566148,125113566,44463518,37073109,11701919,0,3140011,41411219,30100709,0,3171130,0,4041160,0,31500319,0,31600119,0,41911319,0,20101809,0,11201509,0,-4160140,3201160,21700609,4200100,0,0,0,0,2131010,4141090,0,30801009,0,0,0,0
2,113,1333.91567217768,0,0,119167.151192883,119168.19825667,0,9,5,1,0,5,10,44200620,126914675,26054472,73031377,0,0,0,0,-1060191,0,3040110,40100319,0,41302009,30600119,0,0,11900419,0,0,21811209,21300919,2090010,0,3101111,0,0,4151201,2021000,3091141,11600009,10010319,0,0,0,0,0,1200130,20810009,41010919
2,114,1837.90232789761,1,0,119170.598296167,119171.645355335,0,9,5,1,1,33,10,34625759,78835858,39005717,58661369,0,10301909,0,0,4161131,12001519,4070140,0,4091060,3041080,30400519,11701709,0,30511419,0,0,3181131,0,11901919,0,0,0,11911509,0,11011209,4181080,0,0,3100180,10911009,0,0,-4050161,0,40600019,0
2,115,1124.49305971677,1,0,119174.633632889,119175.680699371,0,9,5,1,1,3,0,5371302,5301080,4281191,0,1061080,0,-1070021,2070000,0,0,1170201,0,0,0,0,0,0,2141080,3160000,0,0,0,0,0,3171171,0,1110020,0,0,0,0,0,0,0,0,0,0,0,0,0
2,116,1375.98112632986,0,0,119178.010139722,119179.057202355,0,9,5,1,0,35,0,3111171,0,7444391,5342142,0,3111171,0,0,0,0,0,0,0,0,0,0,0,0,0,0,0,0,1001120,0,1201161,3191000,0,2051110,0,0,0,1161031,0,0,0,0,0,0,-1161001,3020110
2,117,581.206509421463,0,0,119181.586647249,119182.633713731,0,9,5,0,0,28,0,0,6132171,0,15443362,0,0,0,0,0,0,0,0,0,2001001,0,3100170,0,1031000,0,0,0,0,0,0,0,0,0,0,0,0,0,-3010060,0,2041181,3200000,3071071,0,0,0,4121050
2,118,978.614028324955,1,0,119184.398443684,119185.445512861,0,9,5,1,1,12,10,68303058,75996227,104921037,39302730,0,0,21401609,1051031,3010000,21610009,1020190,20210219,0,30801309,11311309,-2161090,0,0,0,0,1011200,30711319,0,31310109,0,0,0,0,0,31800619,41810309,0,0,4051180,2020001,0,0,0,30211519,3020030
2,119,954.484290326945,1,0,119187.45730306,119188.504364538,0,9,5,1,1,32,20,197438203,65424377,141316465,131234989,41401819,0,41901409,0,11202019,40301019,20510219,30210509,11911209,4000200,0,3050190,11010309,4030050,1011000,0,30910809,11411819,11000619,31810309,11610809,0,10700909,4181191,31412019,0,40600609,2020011,1111151,11710119,41101609,-3080061,0,31000919,41211119,0
2,120,1535.33995072939,1,0,119190.492635547,119191.53969125,0,9,5,0,1,13,5,5091310,46192181,59772890,49552538,0,0,0,1090170,0,0,0,0,4001140,0,0,0,-2110141,0,0,2171121,0,41910919,0,3020101,4040061,0,0,21011819,31700909,0,0,0,0,10100619,4080010,0,0,4170100,31201809,0
2,121,1129.03559906408,1,0,119197.280939355,119198.328002758,0,9,6,1,1,33,10,34625759,78835858,39005717,58661369,0,10301909,0,0,4161131,12001519,4070140,0,4091060,3041080,30400519,11701709,0,30511419,0,0,3181131,0,11901919,0,0,0,11911509,0,11011209,4181080,0,0,3100180,10911009,0,0,-4050161,0,40600019,0
2,122,1748.862397435,0,0,119200.539804429,119201.586868216,0,9,6,0,0,36,20,193992156,129443576,128057087,162525616,30110009,41500419,31410019,0,30510919,3160131,11210219,42000309,4090131,2170101,21310109,41300719,11310919,0,0,40710009,1040100,11601619,10501509,0,40401209,2060170,40211809,30801119,1000070,0,3081201,0,31900819,31510209,42011009,0,0,21412019,31600419,-4091141
2,123,1219.53145189036,1,0,119204.528082368,119205.57514654,0,9,6,1,1,20,20,81193646,89146929,132847896,222589933,11110519,0,11410819,11601319,21010809,0,4060071,0,22000109,0,2061031,41101219,10801509,0,1171150,30911819,3100201,0,1090011,-3131120,41911209,20801819,0,2201000,31510619,21901709,10300409,22012009,31011419,0,21510419,21410819,3121020,41801119,40712019,41011109
2,124,934.662650426617,0,0,119207.975182957,119209.02224559,0,9,6,0,0,26,5,66673600,84513158,10562431,25331109,0,20600309,0,0,3041201,0,42002009,0,1030081,41701619,0,0,0,1110030,0,0,0,41701509,0,3120141,0,2191020,0,0,1191200,-4060070,0,4130200,0,21200909,0,0,0,0,0,0
2,125,843.6551844934,1,0,119211.034038099,119212.081096881,0,9,6,0,1,19,20,88253428,230650402,135312927,139115188,41501319,4150031,0,1080160,0,10410009,30101909,1010000,0,0,41511819,10801509,40701609,21610409,41800919,21701109,11511219,41011809,-3191061,30410019,31211009,4070091,21710409,2010120,11900109,30810109,0,41601619,0,40101819,0,0,3050111,32000819,2050001,20310819
2,126,2425.47671197099,0,1,119214.03407082,119215.081136147,0,9,6,1,1,12,10,68303058,75996227,104921037,39302730,0,0,21401609,1051031,3010000,21610009,1020190,20210219,0,30801309,11311309,-2161090,0,0,0,0,1011200,30711319,0,31310109,0,0,0,0,0,31800619,41810309,0,0,4051180,2020001,0,0,0,30211519,3020030
2,127,1089.55862243602,1,0,119218.692943054,119219.740008381,0,9,6,0,1,24,0,6451323,6071181,6141122,1031021,0,0,0,3101191,1160061,0,0,0,2190071,2040131,0,0,0,0,4031050,0,0,0,0,0,0,4120121,0,-2021001,0,0,0,0,0,0,0,0,0,0,1031021,0
2,128,831.077739974717,1,0,119221.869448425,119222.916516062,0,9,6,0,1,18,0,8500502,4220161,4141130,1010170,1190181,0,0,0,1100031,0,3190100,0,3020190,0,0,0,0,0,0,3130080,0,-1090081,4141130,0,0,0,0,0,0,0,0,1010170,0,0,0,0,0,0,0,0
2,129,556.275282680872,1,0,119224.881254407,119225.928317425,0,9,6,0,1,22,10,56986316,84087196,54482289,6200171,10411009,11201719,0,0,1170000,12010609,0,2091070,20101909,0,4171150,4111190,12000809,10501709,32001019,0,21301319,0,0,20101019,0,-2020131,0,1161120,0,0,31200019,0,0,0,0,3130140,0,0,0,3070031
2,130,1171.25080303231,1,0,119227.575400614,119228.622454777,0,9,6,1,1,34,5,20800309,71444901,26960321,18071880,0,0,0,0,20800309,0,0,0,0,0,3001021,0,4030131,30101709,3200131,31111909,0,0,21700009,0,0,0,0,3150131,0,0,2110181,0,0,2171180,3000091,10810519,0,-2090090,0,0
2,131,611.396687818342,1,0,119230.798969772,119231.84602663,0,9,6,0,1,28,5,23871459,47304841,46753469,67230209,0,0,0,0,0,0,3071150,0,20800309,0,41911819,0,2191020,2091001,0,1111001,0,0,0,40611319,0,2091090,0,0,0,4051060,0,-4000170,0,1020011,0,30900019,0,31310009,0,0
2,132,1476.9117309479,0,0,119233.575468752,119234.622527535,0,9,6,1,0,8,5,5161121,23633869,23121481,36112399,0,0,0,0,0,2061031,0,-3100090,0,0,10511309,1111151,0,0,0,0,0,12011409,10900209,0,0,0,0,1020041,4070061,4031120,3100050,0,11801919,0,0,0,3010061,0,21300419,0
2,133,1161.50513132743,1,0,119237.199033521,119238.246100773,0,9,6,0,1,6,0,5081211,0,2050181,12453503,0,0,0,0,4061171,-1020040,0,0,0,0,0,0,0,0,0,0,0,0,0,0,0,0,2050181,0,0,0,0,0,0,3001060,2140081,1151200,3060081,3101081,0,0
2,134,1618.29133864376,0,0,119240.504960072,119241.55201847,0,9,6,0,0,13,20,155176148,152318604,159578546,78963046,4060201,2180011,21301509,0,11510419,40011419,3100061,41611309,31401219,41211809,31510309,21011919,-3130030,10911709,0,3040200,30601519,10901109,0,30111809,0,3150121,31711419,40811919,10300809,41311409,2181060,3050090,11800409,0,0,31710009,0,11500619,0,20901919
2,135,1141.69196058356,0,0,119244.363819525,119245.410889472,0,9,6,0,0,30,5,51713571,63881499,33821208,8222482,4131200,41410119,0,3011071,0,0,0,0,3161181,0,0,21810419,0,0,41010009,0,1061071,0,21611019,0,10210119,0,0,0,2000070,0,0,0,0,-1021141,3171141,0,0,0,0,4030200
2,136,645.090010977583,1,0,119247.752091536,119248.799163792,0,9,6,1,1,25,0,5242482,2021000,7331031,2130200,2130100,0,0,0,2091201,0,0,1021181,0,0,0,0,2021000,0,0,0,0,0,0,3190030,0,0,0,0,-4141001,0,0,0,0,0,0,1040040,0,0,0,1090160
2,137,753.225544962334,0,0,119250.599192741,119251.646255759,0,9,6,1,0,27,5,27033130,64220278,28642119,41413671,3200111,0,0,21711819,0,2121200,0,0,0,0,3100150,0,20410009,0,0,0,40710119,0,0,0,21311909,0,0,0,4190010,0,-3140200,0,32010519,3191020,3161051,0,0,0,0,3051081
2,138,564.16736736719,0,0,119253.505100198,119254.552164755,0,9,6,0,0,21,10,67233698,51663979,141234267,31911828,0,41000219,0,3121141,0,11200519,11911819,0,0,3090090,2001200,0,0,4101080,41300419,1171190,0,0,40711419,0,-1050141,31310019,3110200,0,2040150,41901219,21111119,0,0,0,10800209,0,21111619,0,0,0
2,139,1425.44360533066,0,0,119256.163955879,119257.211011197,0,9,6,1,0,5,10,44200620,126914675,26054472,73031377,0,0,0,0,-1060191,0,3040110,40100319,0,41302009,30600119,0,0,11900419,0,0,21811209,21300919,2090010,0,3101111,0,0,4151201,2021000,3091141,11600009,10010319,0,0,0,0,0,1200130,20810009,41010919
2,140,909.741817653412,0,0,119259.846345378,119260.893417634,0,9,6,1,0,35,0,3111171,0,7444391,5342142,0,3111171,0,0,0,0,0,0,0,0,0,0,0,0,0,0,0,0,1001120,0,1201161,3191000,0,2051110,0,0,0,1161031,0,0,0,0,0,0,-1161001,3020110
2,141,917.051456388435,1,0,119262.85814982,119263.905204369,0,9,6,1,1,32,20,197438203,65424377,141316465,131234989,41401819,0,41901409,0,11202019,40301019,20510219,30210509,11911209,4000200,0,3050190,11010309,4030050,1011000,0,30910809,11411819,11000619,31810309,11610809,0,10700909,4181191,31412019,0,40600609,2020011,1111151,11710119,41101609,-3080061,0,31000919,41211119,0
2,142,870.931978352019,0,0,119265.858174843,119266.90523786,0,9,6,1,0,3,0,5371302,5301080,4281191,0,1061080,0,-1070021,2070000,0,0,1170201,0,0,0,0,0,0,2141080,3160000,0,0,0,0,0,3171171,0,1110020,0,0,0,0,0,0,0,0,0,0,0,0,0
2,143,1054.08600970986,0,0,119268.822917423,119269.86998737,0,9,6,1,0,7,20,171796476,82927068,149975157,219056003,20401309,41700209,0,41511319,21900019,1141031,-4031070,0,41111519,2091100,2010161,30301209,10811309,21100609,4011201,10511319,0,2090160,3151070,0,0,3090021,31011919,40800119,41110019,0,30812009,0,41511019,21901919,31610509,22010309,30510909,30210419,0,41300919
2,144,961.08290614211,0,0,119272.022962772,119273.07001809,0,9,6,0,0,4,10,86243529,67573620,80233649,95073447,0,0,4091171,-1151030,40100819,0,0,0,40900509,0,40511519,0,4060071,1191021,21811009,0,0,0,10110019,31200819,0,3061011,0,2050020,31701609,0,2110171,0,31900219,1051200,0,42010019,20112009,0,0,0
2,145,1047.89083295327,1,0,119278.164216497,119279.211320705,0,9,7,1,1,33,10,34625759,78835858,39005717,58661369,0,10301909,0,0,4161131,12001519,4070140,0,4091060,3041080,30400519,11701709,0,30511419,0,0,3181131,0,11901919,0,0,0,11911509,0,11011209,4181080,0,0,3100180,10911009,0,0,-4050161,0,40600019,0
2,146,1195.22809647606,1,0,119281.293648072,119282.340715708,0,9,7,0,1,18,20,140619165,35713850,178137283,149556755,2040120,41901509,20401909,11011219,32001819,0,2161170,31101419,0,3160110,0,0,3180160,3120151,11301619,10801809,0,-4150001,11300309,22002009,0,0,41601919,10600709,30910209,40611409,21110719,21001109,11000719,1060011,11300809,40501209,20910019,40701709,0,3081170
2,147,808.773486860446,0,0,119284.576040419,119285.623150787,0,9,7,1,0,3,0,5371302,5301080,4281191,0,1061080,0,-1070021,2070000,0,0,1170201,0,0,0,0,0,0,2141080,3160000,0,0,0,0,0,3171171,0,1110020,0,0,0,0,0,0,0,0,0,0,0,0,0
2,148,700.872779052588,1,0,119287.529010508,119288.576112792,0,9,7,0,1,13,0,4381010,7221230,5110121,4190152,0,2190000,0,0,0,0,2191010,0,0,0,0,0,-3200090,4021140,0,0,0,0,0,0,2040071,0,3070050,0,0,0,0,3070101,0,0,0,0,1120051,0,0,0
2,149,729.966203696677,0,0,119290.281982215,119291.329086423,0,9,7,0,0,24,0,5252211,6152072,6371160,4001161,0,0,0,3111121,2141090,0,0,0,0,4041041,0,2111031,0,0,0,0,0,0,0,3120050,0,0,0,-1051110,0,0,2200000,0,0,0,0,0,0,0,0,4001161
2,150,1208.06962421921,1,0,119293.199657928,119294.246731724,0,9,7,0,1,19,5,4180152,63521828,17576022,26883418,0,0,0,0,3040041,0,0,0,1140111,0,0,41511009,0,22010819,0,0,0,0,-4151160,0,1001141,0,10301419,1121181,0,0,1001121,11811719,0,0,0,3000050,1070140,11001509,0,0
2,151,840.134716505418,1,0,119296.505579475,119297.552650576,0,9,7,1,1,27,5,27033130,64220278,28642119,41413671,3200111,0,0,21711819,0,2121200,0,0,0,0,3100150,0,20410009,0,0,0,40710119,0,0,0,21311909,0,0,0,4190010,0,-3140200,0,32010519,3191020,3161051,0,0,0,0,3051081
2,152,793.710349404137,0,0,119299.482122263,119300.529152944,0,9,7,1,0,20,20,81193646,89146929,132847896,222589933,11110519,0,11410819,11601319,21010809,0,4060071,0,22000109,0,2061031,41101219,10801509,0,1171150,30911819,3100201,0,1090011,-3131120,41911209,20801819,0,2201000,31510619,21901709,10300409,22012009,31011419,0,21510419,21410819,3121020,41801119,40712019,41011109
2,153,959.065325761912,1,0,119302.458592295,119303.505663781,0,9,7,0,1,30,0,6251262,4080000,6160250,5132090,3181061,0,0,0,1040061,0,2030140,0,0,0,0,0,0,0,0,4080000,0,0,3100120,0,0,0,0,0,0,0,3060130,0,0,-1071060,0,4061030,0,0,0,0
2,154,1080.56285469502,1,0,119305.529216463,119306.576282945,0,9,7,1,1,32,20,197438203,65424377,141316465,131234989,41401819,0,41901409,0,11202019,40301019,20510219,30210509,11911209,4000200,0,3050190,11010309,4030050,1011000,0,30910809,11411819,11000619,31810309,11610809,0,10700909,4181191,31412019,0,40600609,2020011,1111151,11710119,41101609,-3080061,0,31000919,41211119,0
2,155,1198.49372030876,1,0,119308.776307505,119309.823371292,0,9,7,1,1,7,20,171796476,82927068,149975157,219056003,20401309,41700209,0,41511319,21900019,1141031,-4031070,0,41111519,2091100,2010161,30301209,10811309,21100609,4011201,10511319,0,2090160,3151070,0,0,3090021,31011919,40800119,41110019,0,30812009,0,41511019,21901919,31610509,22010309,30510909,30210419,0,41300919
2,156,511.620196164586,0,0,119312.046992805,119313.094001543,0,9,7,0,0,21,10,31801460,60872608,87166048,161675167,0,0,0,0,0,30611309,0,1190151,0,11900609,0,0,4151200,3020080,0,41800719,0,0,1181140,0,-2051060,0,0,41811609,0,2021020,40101219,22000509,0,40401919,3180191,21710419,30900619,2171001,0,41310509
2,157,536.419766242034,1,0,119314.635196215,119315.682267317,0,9,7,0,1,26,5,13762250,68542499,47801582,26892111,2061131,0,0,0,11701119,0,0,0,0,0,40410809,0,0,22000409,0,3021110,0,3110171,0,0,0,0,2070071,3011121,40610319,-2110071,0,4101161,0,1090141,21700809,0,0,0,0,0
2,158,1710.32819018001,0,0,119317.235224856,119318.282287874,0,9,7,0,0,36,10,179627984,43343000,107102497,5191322,21110409,4001020,40112009,30211819,20311119,41210209,20610319,2061080,0,0,0,1111070,1131011,0,0,0,41100919,0,0,2100070,3090190,0,20000709,40600609,0,0,41310919,3031121,0,0,0,0,0,0,0,-2160201
2,159,1323.43357015634,0,0,119321.094097783,119322.141156181,0,9,7,1,0,12,10,68303058,75996227,104921037,39302730,0,0,21401609,1051031,3010000,21610009,1020190,20210219,0,30801309,11311309,-2161090,0,0,0,0,1011200,30711319,0,31310109,0,0,0,0,0,31800619,41810309,0,0,4051180,2020001,0,0,0,30211519,3020030
2,160,1049.95191394119,0,0,119324.623546912,119325.670611854,0,9,7,0,0,22,10,91735468,77226168,55351138,35611590,30000219,4120060,0,2071170,0,0,40701709,11701309,3141001,20511819,20811519,10610509,3111191,0,0,0,1171021,21010109,0,0,0,-3130000,11210619,0,0,0,41010519,1141080,0,0,3060101,0,31410409,0,0,0
2,161,1007.73940472573,0,0,119327.764763296,119328.811821309,0,9,7,1,0,5,10,44200620,126914675,26054472,73031377,0,0,0,0,-1060191,0,3040110,40100319,0,41302009,30600119,0,0,11900419,0,0,21811209,21300919,2090010,0,3101111,0,0,4151201,2021000,3091141,11600009,10010319,0,0,0,0,0,1200130,20810009,41010919
2,162,1052.57696274202,0,0,119330.964787471,119332.011854723,0,9,7,0,0,6,20,102506879,170716224,153746376,77756165,2070131,10901109,3011160,0,1191191,-3010151,40200619,10711109,31411409,31710719,0,11711109,10801619,40000509,3110160,41100919,2070180,30211009,10610409,40811919,30601019,0,0,40211609,1011111,30500309,0,0,11712009,21211519,21500309,11801319,10510909,0,0,1020100
2,163,1503.21495854587,0,0,119334.247187133,119335.294249766,0,9,7,1,0,8,5,5161121,23633869,23121481,36112399,0,0,0,0,0,2061031,0,-3100090,0,0,10511309,1111151,0,0,0,0,0,12011409,10900209,0,0,0,0,1020041,4070061,4031120,3100050,0,11801919,0,0,0,3010061,0,21300419,0
2,164,1428.20877992199,1,0,119337.941340269,119338.988403286,0,9,7,1,1,34,5,20800309,71444901,26960321,18071880,0,0,0,0,20800309,0,0,0,0,0,3001021,0,4030131,30101709,3200131,31111909,0,0,21700009,0,0,0,0,3150131,0,0,2110181,0,0,2171180,3000091,10810519,0,-2090090,0,0
2,165,612.180083393469,1,0,119341.553145251,119342.600214813,0,9,7,0,1,28,5,6221262,46952199,22440710,60564679,0,0,1200030,0,0,1000081,0,0,4021151,0,0,0,30000209,1060051,0,0,4190020,11701919,0,2130091,0,20310619,0,0,0,0,0,-4061061,30910819,0,0,4081190,0,0,0,21511609
2,166,991.329288866837,1,0,119344.412004704,119345.459072726,0,9,7,0,1,4,20,140535435,63725539,188307173,121087565,30611219,30300619,21810019,-4191160,12012009,0,0,41610409,0,3140050,0,31800109,1001111,0,2151120,1071170,3051070,21510909,40600119,11300119,30401109,40401119,0,30701509,4090180,10001809,20811209,21512019,0,22010019,20200909,21701819,0,10511619,4141061,21010119
2,167,936.474276706576,0,0,119347.470855611,119348.517926712,0,9,7,1,0,35,0,3111171,0,7444391,5342142,0,3111171,0,0,0,0,0,0,0,0,0,0,0,0,0,0,0,0,1001120,0,1201161,3191000,0,2051110,0,0,0,1161031,0,0,0,0,0,0,-1161001,3020110
2,168,749.860986165004,0,0,119350.494427541,119351.541489403,0,9,7,1,0,25,0,5242482,2021000,7331031,2130200,2130100,0,0,0,2091201,0,0,1021181,0,0,0,0,2021000,0,0,0,0,0,0,3190030,0,0,0,0,-4141001,0,0,0,0,0,0,1040040,0,0,0,1090160
2,169,997.433229858871,1,0,119356.52978428,119357.576855382,0,9,8,1,1,8,5,5161121,23633869,23121481,36112399,0,0,0,0,0,2061031,0,-3100090,0,0,10511309,1111151,0,0,0,0,0,12011409,10900209,0,0,0,0,1020041,4070061,4031120,3100050,0,11801919,0,0,0,3010061,0,21300419,0
2,170,541.688726909342,0,0,119359.600414607,119360.647479165,0,9,8,1,0,27,5,27033130,64220278,28642119,41413671,3200111,0,0,21711819,0,2121200,0,0,0,0,3100150,0,20410009,0,0,0,40710119,0,0,0,21311909,0,0,0,4190010,0,-3140200,0,32010519,3191020,3161051,0,0,0,0,3051081
2,171,1431.72270356445,1,0,119362.294550805,119363.341634995,0,9,8,0,1,19,5,127046968,45241620,5301112,7261271,20601919,1140051,41510319,0,0,1081151,21701509,41012019,0,0,0,40210319,3021110,2010191,0,0,0,0,-4191101,0,0,0,0,0,0,1110011,0,0,0,0,4191121,0,0,0,3070150,0
2,172,1018.95293254347,1,0,119365.812243226,119366.859338965,0,9,8,0,1,24,0,4161041,2100110,14622650,4020150,0,0,0,0,0,0,4161041,0,0,0,2100110,0,0,0,0,0,0,0,1151190,3161150,0,4130140,0,-3100110,0,0,3080060,0,4020150,0,0,0,0,0,0,0
2,173,1237.61383813689,1,0,119369.059336578,119370.106398826,0,9,8,0,1,4,10,59392370,18023010,113713037,94722097,2110181,1100140,2070201,-1051030,2140190,0,20810419,0,30110209,10911909,0,0,0,4081040,0,3030061,0,0,41411909,30400409,0,0,41900719,0,0,0,0,40800109,11010619,0,0,0,1000041,31711209,10200119,0
2,174,945.577448554104,1,0,119372.506434088,119373.553497875,0,9,8,1,1,7,20,171796476,82927068,149975157,219056003,20401309,41700209,0,41511319,21900019,1141031,-4031070,0,41111519,2091100,2010161,30301209,10811309,21100609,4011201,10511319,0,2090160,3151070,0,0,3090021,31011919,40800119,41110019,0,30812009,0,41511019,21901919,31610509,22010309,30510909,30210419,0,41300919
2,175,1408.46297732787,0,0,119375.553527517,119376.60058938,0,9,8,0,0,22,0,4311092,8481473,4111030,1031170,0,0,0,1160021,0,0,3151071,0,0,4131101,0,0,0,0,0,3170181,1180191,0,0,0,0,-2101020,0,0,2010010,0,0,0,0,0,1031170,0,0,0,0,0
2,176,962.778274231823,1,0,119379.212394746,119380.259456994,0,9,8,0,1,13,5,3242310,39652770,72155171,56253238,0,0,0,0,1041130,0,0,0,2201180,0,0,31401409,-4171191,0,0,0,0,4080170,3041081,0,0,32011919,30911019,0,3191041,3000111,0,0,0,0,4151020,0,0,0,20901609,31200609
2,177,948.542417885619,0,0,119382.318305206,119383.365379387,0,9,8,1,0,34,5,20800309,71444901,26960321,18071880,0,0,0,0,20800309,0,0,0,0,0,3001021,0,4030131,30101709,3200131,31111909,0,0,21700009,0,0,0,0,3150131,0,0,2110181,0,0,2171180,3000091,10810519,0,-2090090,0,0
2,178,867.626318577095,0,0,119385.412461268,119386.459528905,0,9,8,1,0,25,0,5242482,2021000,7331031,2130200,2130100,0,0,0,2091201,0,0,1021181,0,0,0,0,2021000,0,0,0,0,0,0,3190030,0,0,0,0,-4141001,0,0,0,0,0,0,1040040,0,0,0,1090160
2,179,1255.89640412363,1,0,119388.38896941,119389.436025883,0,9,8,1,1,20,20,81193646,89146929,132847896,222589933,11110519,0,11410819,11601319,21010809,0,4060071,0,22000109,0,2061031,41101219,10801509,0,1171150,30911819,3100201,0,1090011,-3131120,41911209,20801819,0,2201000,31510619,21901709,10300409,22012009,31011419,0,21510419,21410819,3121020,41801119,40712019,41011109
2,180,1671.51527119859,1,0,119391.824296739,119392.871362836,0,9,8,0,1,6,10,59462648,58602339,124031946,41944639,4020140,0,0,0,11500719,-2130180,0,41811609,0,31101909,21400119,0,0,2070150,0,0,4030161,0,0,31110009,0,41600419,0,0,41010709,10310809,0,10502019,1150070,0,1151020,4130090,4201021,20810419,0,0
2,181,1070.42375289893,1,0,119395.671401409,119396.718467891,0,9,8,1,1,33,10,34625759,78835858,39005717,58661369,0,10301909,0,0,4161131,12001519,4070140,0,4091060,3041080,30400519,11701709,0,30511419,0,0,3181131,0,11901919,0,0,0,11911509,0,11011209,4181080,0,0,3100180,10911009,0,0,-4050161,0,40600019,0
2,182,942.321063790587,0,0,119398.918488986,119399.965558933,0,9,8,1,0,35,0,3111171,0,7444391,5342142,0,3111171,0,0,0,0,0,0,0,0,0,0,0,0,0,0,0,0,1001120,0,1201161,3191000,0,2051110,0,0,0,1161031,0,0,0,0,0,0,-1161001,3020110
2,183,744.752169252024,1,0,119402.000886801,119403.04798177,0,9,8,1,1,3,0,5371302,5301080,4281191,0,1061080,0,-1070021,2070000,0,0,1170201,0,0,0,0,0,0,2141080,3160000,0,0,0,0,0,3171171,0,1110020,0,0,0,0,0,0,0,0,0,0,0,0,0
2,184,1471.93072107621,0,0,119404.859740479,119405.906803112,0,9,8,0,0,36,20,147135265,291037433,123179066,71591660,0,31801719,40110509,11301209,41011109,0,0,20800719,2110000,40600809,40600519,41311209,4191041,40200019,41110109,20312009,31210209,31501509,11010809,11211919,21810419,30311709,2091200,0,41610809,4131061,1001140,0,41811019,0,0,21510419,0,4090010,2120031,-2060181
2,185,756.469995947555,0,0,119408.542134598,119409.58919492,0,9,8,1,0,32,20,197438203,65424377,141316465,131234989,41401819,0,41901409,0,11202019,40301019,20510219,30210509,11911209,4000200,0,3050190,11010309,4030050,1011000,0,30910809,11411819,11000619,31810309,11610809,0,10700909,4181191,31412019,0,40600609,2020011,1111151,11710119,41101609,-3080061,0,31000919,41211119,0
2,186,922.394329551025,0,0,119411.530397908,119412.577469394,0,9,8,1,0,5,10,44200620,126914675,26054472,73031377,0,0,0,0,-1060191,0,3040110,40100319,0,41302009,30600119,0,0,11900419,0,0,21811209,21300919,2090010,0,3101111,0,0,4151201,2021000,3091141,11600009,10010319,0,0,0,0,0,1200130,20810009,41010919
2,187,1212.12018346705,1,0,119414.577495572,119415.624564748,0,9,8,0,1,21,0,5392341,4260281,7081261,4001031,0,0,2101120,0,0,0,2140121,0,1151100,0,0,0,0,3150190,0,1110091,0,0,0,0,-4080100,3001161,0,0,0,0,0,0,0,0,0,0,0,0,4001031,0
2,188,1060.45826849004,1,0,119417.942241463,119418.989307175,0,9,8,0,1,28,10,46660611,107765068,179447696,48342380,0,4140171,0,0,0,1110031,0,41410409,0,2011131,30701719,0,0,3040080,41212019,0,30800119,0,40111409,0,40201919,4131031,0,31601909,31801009,0,31600419,-2201181,4070030,1170160,40901009,0,0,0,0,0
2,189,2131.67527638143,1,0,119421.212927147,119422.259928571,0,9,8,0,1,18,20,113668427,202869385,144614455,80916237,2081151,31801909,0,1021021,11300409,31210009,4141100,11911309,20201519,0,31211919,30801119,20500519,42011309,4151150,40700409,30411809,-3081151,42001419,0,20601809,40200909,10800309,0,0,31010009,0,0,0,4200140,1201201,2000040,20501509,20901419,11911809,20200119
2,190,757.877028256189,0,0,119425.530557282,119426.577615679,0,9,8,1,0,12,10,68303058,75996227,104921037,39302730,0,0,21401609,1051031,3010000,21610009,1020190,20210219,0,30801309,11311309,-2161090,0,0,0,0,1011200,30711319,0,31310109,0,0,0,0,0,31800619,41810309,0,0,4051180,2020001,0,0,0,30211519,3020030
2,191,899.289357636007,0,0,119428.354123514,119429.401179217,0,9,8,0,0,30,20,108373406,130104868,162858975,173308236,0,0,11411009,0,0,4130050,20710509,30110919,42010919,21100109,0,20101109,3201151,41600319,0,1061001,3031160,40010019,20900909,0,31601609,2140051,31810719,3101050,31901009,21201609,20202019,0,2191161,-4171101,21311619,11301419,20110109,41910809,31000009,41312009
2,192,1719.02753798349,0,0,119431.330628961,119432.377692364,0,9,8,0,0,26,5,78043488,45594151,7253251,64012308,0,0,0,2180150,3140110,31611819,0,41111409,0,0,0,0,0,0,1161111,0,41302009,3131031,0,0,0,0,2051020,0,0,-3041090,2161141,0,0,30300309,2000190,0,0,0,0,31711809
2,193,1235.31754601572,0,0,119438.554228146,119439.601303867,0,9,9,1,0,7,20,171796476,82927068,149975157,219056003,20401309,41700209,0,41511319,21900019,1141031,-4031070,0,41111519,2091100,2010161,30301209,10811309,21100609,4011201,10511319,0,2090160,3151070,0,0,3090021,31011919,40800119,41110019,0,30812009,0,41511019,21901919,31610509,22010309,30510909,30210419,0,41300919
2,194,878.967653465224,1,0,119441.895452538,119442.94251286,0,9,9,1,1,5,10,44200620,126914675,26054472,73031377,0,0,0,0,-1060191,0,3040110,40100319,0,41302009,30600119,0,0,11900419,0,0,21811209,21300919,2090010,0,3101111,0,0,4151201,2021000,3091141,11600009,10010319,0,0,0,0,0,1200130,20810009,41010919
2,195,1083.28452869318,1,0,119444.860183569,119445.907252361,0,9,9,0,1,30,10,79094609,68082358,32040660,124555978,4110101,11311719,0,0,2170161,20701819,40800809,0,0,30002009,31700219,0,0,4190010,0,2190120,0,0,0,0,0,2030051,0,0,0,30010609,0,3041021,0,-3080151,0,40600519,20211509,4011050,11600809,42010919
2,196,835.308075984358,1,0,119448.07198447,119449.119045178,0,9,9,0,1,22,5,62322118,49442872,54452429,13451462,0,40710509,0,0,0,0,0,0,21611609,4201081,0,3100141,0,0,1030041,0,41111609,0,0,0,40510319,-2040191,0,11901919,0,0,0,3140140,3151170,0,3130081,0,0,0,4030071,0
2,197,1483.84141321003,1,0,119451.142612103,119452.189693984,0,9,9,0,1,36,5,70052910,4041091,39421931,25192799,4130161,0,30101019,0,3111030,0,30700509,2010191,0,0,0,0,0,0,0,4041091,0,0,2180160,30910709,3160061,0,3171001,0,0,0,0,0,11312019,0,0,0,0,0,10800609,-3080171
2,198,852.439608657733,0,0,119454.730892506,119455.777953983,0,9,9,0,0,19,0,3121171,4040061,6212421,4262272,0,0,0,1121151,0,2000020,0,0,0,0,0,0,0,4040061,0,0,0,0,-2000190,0,2171090,0,0,0,2041141,0,0,0,0,0,0,2101121,2161151,0,0,0
2,199,645.704023729195,0,0,119457.74268078,119458.789747262,0,9,9,0,0,28,20,86853668,104884719,187178192,172907565,1090090,30400009,10311209,1030190,0,40001109,4021061,0,0,0,3140200,30810519,4161071,31301519,0,31410319,4061091,0,20511309,40710609,0,20510119,11801209,31311709,30011209,11110909,21211119,-2201200,0,20801619,30001419,42010519,3061071,21710509,21910419,31210809
2,200,943.636090436485,1,0,119460.495655951,119461.542718968,0,9,9,0,1,13,5,22100670,50324172,10482072,86321968,0,20010519,0,0,0,0,2090151,0,0,2110161,0,40911919,-4191011,0,3111081,0,0,0,0,3131021,0,4161051,3190000,0,0,0,0,0,0,4190131,0,30110709,10210619,0,0,41810509
2,201,707.536838250235,0,0,119463.495690212,119464.54275631,0,9,9,1,0,3,0,5371302,5301080,4281191,0,1061080,0,-1070021,2070000,0,0,1170201,0,0,0,0,0,0,2141080,3160000,0,0,0,0,0,3171171,0,1110020,0,0,0,0,0,0,0,0,0,0,0,0,0
2,202,808.85894819221,0,0,119466.4133794,119467.460435488,0,9,9,0,0,26,20,116165127,107596886,130852338,169355835,41411819,21301719,3000190,4120001,21210209,10011019,3110151,12000019,0,20300809,30111919,4171011,0,20611919,11400109,0,21001119,0,31010809,30310319,31300319,0,0,31910709,0,-4150031,2170151,11011019,20200009,30300619,0,20210509,40900819,40401609,4170071,2161180
2,203,534.830647389754,1,0,119469.472229537,119470.519322966,0,9,9,0,1,21,10,43421329,39592040,40084090,147176774,0,40410209,0,3011120,0,0,0,0,0,0,31200819,1080140,3160011,0,0,0,4151070,0,3160140,11501009,-1030191,4191031,0,0,0,20201719,0,2141000,10110209,0,10211719,32000309,0,40800809,40301919,11610809
2,204,1160.18009569962,1,0,119472.095787762,119473.142855783,0,9,9,0,1,6,0,8322172,5072201,3080021,5191032,3131011,0,0,0,0,-2150051,0,3041110,0,3041070,0,0,0,0,2031131,0,0,0,0,0,0,0,0,0,0,0,3080021,2110011,0,3081021,0,0,0,0,0,0
2,205,698.664258030476,1,0,119475.366408773,119476.41347487,0,9,9,1,1,8,5,5161121,23633869,23121481,36112399,0,0,0,0,0,2061031,0,-3100090,0,0,10511309,1111151,0,0,0,0,0,12011409,10900209,0,0,0,0,1020041,4070061,4031120,3100050,0,11801919,0,0,0,3010061,0,21300419,0
2,206,566.748530603945,1,0,119478.319388871,119479.366448809,0,9,9,1,1,25,0,5242482,2021000,7331031,2130200,2130100,0,0,0,2091201,0,0,1021181,0,0,0,0,2021000,0,0,0,0,0,0,3190030,0,0,0,0,-4141001,0,0,0,0,0,0,1040040,0,0,0,1090160
2,207,682.68144884496,0,0,119480.96647668,119482.013537773,0,9,9,1,0,32,20,197438203,65424377,141316465,131234989,41401819,0,41901409,0,11202019,40301019,20510219,30210509,11911209,4000200,0,3050190,11010309,4030050,1011000,0,30910809,11411819,11000619,31810309,11610809,0,10700909,4181191,31412019,0,40600609,2020011,1111151,11710119,41101609,-3080061,0,31000919,41211119,0
2,208,1445.02348973765,0,0,119483.837092841,119484.884162403,0,9,9,1,0,12,10,68303058,75996227,104921037,39302730,0,0,21401609,1051031,3010000,21610009,1020190,20210219,0,30801309,11311309,-2161090,0,0,0,0,1011200,30711319,0,31310109,0,0,0,0,0,31800619,41810309,0,0,4051180,2020001,0,0,0,30211519,3020030
2,209,981.633277129731,1,0,119487.37831523,119488.425379788,0,9,9,0,1,24,10,76224028,99423637,5372300,85683229,0,21911519,0,41610409,0,10600919,0,0,2101181,21910009,21111809,0,2070150,31511519,21710019,0,0,1110131,0,2141010,0,0,0,-2171200,0,0,1060090,0,1180201,0,0,0,41010919,2080091,30910309,10501709
2,210,899.151926569175,0,0,119490.61364764,119491.660704883,0,9,9,1,0,33,10,34625759,78835858,39005717,58661369,0,10301909,0,0,4161131,12001519,4070140,0,4091060,3041080,30400519,11701709,0,30511419,0,0,3181131,0,11901919,0,0,0,11911509,0,11011209,4181080,0,0,3100180,10911009,0,0,-4050161,0,40600019,0
2,211,1235.25441241509,1,0,119493.707800622,119494.754857865,0,9,9,0,1,4,20,141690310,147815217,155754816,238287473,40401609,30011419,2011171,-2121010,2171151,1080131,41311309,20511309,2071201,41611009,4181071,0,0,0,40010209,0,20012009,42000919,20411409,40311709,11110209,2010161,0,0,41910119,40001209,0,40401919,20611119,0,20311919,31010609,3040170,41610409,40500309,40801019
2,212,732.434573379578,0,0,119497.084302066,119498.131365854,0,9,9,1,0,20,20,81193646,89146929,132847896,222589933,11110519,0,11410819,11601319,21010809,0,4060071,0,22000109,0,2061031,41101219,10801509,0,1171150,30911819,3100201,0,1090011,-3131120,41911209,20801819,0,2201000,31510619,21901709,10300409,22012009,31011419,0,21510419,21410819,3121020,41801119,40712019,41011109
2,213,911.70973808039,0,0,119500.049048496,119501.096105354,0,9,9,1,0,35,0,3111171,0,7444391,5342142,0,3111171,0,0,0,0,0,0,0,0,0,0,0,0,0,0,0,0,1001120,0,1201161,3191000,0,2051110,0,0,0,1161031,0,0,0,0,0,0,-1161001,3020110
2,214,703.485509104212,0,0,119503.037312192,119504.084380213,0,9,9,0,0,18,0,4120111,8380300,8473212,4100181,0,0,0,0,4120111,0,0,0,0,1070060,0,0,3130070,0,0,0,0,-4180170,0,0,0,0,4101031,1191000,0,0,3181181,4100181,0,0,0,0,0,0,0,0
2,215,847.59064039099,0,0,119505.802061393,119506.849110937,0,9,9,1,0,27,5,27033130,64220278,28642119,41413671,3200111,0,0,21711819,0,2121200,0,0,0,0,3100150,0,20410009,0,0,0,40710119,0,0,0,21311909,0,0,0,4190010,0,-3140200,0,32010519,3191020,3161051,0,0,0,0,3051081
2,216,674.615746786003,1,0,119508.802081796,119509.849149818,0,9,9,1,1,34,5,20800309,71444901,26960321,18071880,0,0,0,0,20800309,0,0,0,0,0,3001021,0,4030131,30101709,3200131,31111909,0,0,21700009,0,0,0,0,3150131,0,0,2110181,0,0,2171180,3000091,10810519,0,-2090090,0,0
2,217,2427.42076484137,0,0,119514.696264497,119515.743331749,0,9,10,0,0,13,10,45003900,107884478,18812351,80446525,0,0,40801709,3151020,0,0,0,0,1051171,2000030,31511409,0,-3160111,0,30201419,0,0,41011509,4011171,3140021,0,0,1151140,10510019,0,0,0,0,11411719,3010160,11901609,0,10801309,0,11711219,31610509
2,218,747.443816289888,1,0,119519.308087187,119520.35515136,0,9,10,1,1,7,20,171796476,82927068,149975157,219056003,20401309,41700209,0,41511319,21900019,1141031,-4031070,0,41111519,2091100,2010161,30301209,10811309,21100609,4011201,10511319,0,2090160,3151070,0,0,3090021,31011919,40800119,41110019,0,30812009,0,41511019,21901919,31610509,22010309,30510909,30210419,0,41300919
2,219,823.472836185829,1,0,119522.308123374,119523.355182541,0,9,10,0,1,26,20,141485255,158903895,84105691,158948765,41700109,2120030,41601819,0,20201309,3150060,0,20710809,12001119,20710619,20710009,11600309,40710119,31610019,0,0,2161111,31401709,2181131,0,31100809,10811209,3130001,31711319,2041141,-3130081,0,12001719,41800609,31011619,3121071,20510919,0,40000919,10501909,0
2,220,532.763407027232,0,0,119525.225795238,119526.27285941,0,9,10,1,0,27,5,27033130,64220278,28642119,41413671,3200111,0,0,21711819,0,2121200,0,0,0,0,3100150,0,20410009,0,0,0,40710119,0,0,0,21311909,0,0,0,4190010,0,-3140200,0,32010519,3191020,3161051,0,0,0,0,3051081
2,221,564.11154801026,0,0,119527.849353078,119528.896419944,0,9,10,0,0,21,5,31933080,37492901,38102739,74134068,0,0,30902009,0,0,1031071,0,0,0,0,0,2000160,1170021,1051130,2070171,0,31201419,0,4141000,0,-2151130,0,0,0,0,31810609,0,0,0,0,0,0,40201809,30911209,3021050,0
2,222,809.94222832669,1,0,119530.590566921,119531.637623009,0,9,10,1,1,32,20,197438203,65424377,141316465,131234989,41401819,0,41901409,0,11202019,40301019,20510219,30210509,11911209,4000200,0,3050190,11010309,4030050,1011000,0,30910809,11411819,11000619,31810309,11610809,0,10700909,4181191,31412019,0,40600609,2020011,1111151,11710119,41101609,-3080061,0,31000919,41211119,0
2,223,757.022029953077,1,0,119533.602365205,119534.649429377,0,9,10,1,1,34,5,20800309,71444901,26960321,18071880,0,0,0,0,20800309,0,0,0,0,0,3001021,0,4030131,30101709,3200131,31111909,0,0,21700009,0,0,0,0,3150131,0,0,2110181,0,0,2171180,3000091,10810519,0,-2090090,0,0
2,224,1251.08400714817,1,0,119536.555332599,119537.602395616,0,9,10,1,1,8,5,5161121,23633869,23121481,36112399,0,0,0,0,0,2061031,0,-3100090,0,0,10511309,1111151,0,0,0,0,0,12011409,10900209,0,0,0,0,1020041,4070061,4031120,3100050,0,11801919,0,0,0,3010061,0,21300419,0
2,225,1159.6977396257,0,0,119540.03772333,119541.084788657,0,9,10,1,0,5,10,44200620,126914675,26054472,73031377,0,0,0,0,-1060191,0,3040110,40100319,0,41302009,30600119,0,0,11900419,0,0,21811209,21300919,2090010,0,3101111,0,0,4151201,2021000,3091141,11600009,10010319,0,0,0,0,0,1200130,20810009,41010919
2,226,812.520311883418,0,0,119543.437763212,119544.484836238,0,9,10,0,0,28,20,124233546,222039205,171056925,62564457,31210909,32000509,0,30510309,30511819,0,0,0,0,11711209,31711319,2180181,1111131,30910419,40201909,41401619,21600209,41211209,1050140,1170191,11110819,30801019,4111090,40900319,40011919,20901209,21000219,-2011050,11211619,4180040,11810209,0,30311519,0,0,3040020
2,227,1192.94758775504,1,0,119546.308387457,119547.355451244,0,9,10,0,1,18,5,63893639,15041521,16601773,22611118,0,0,2071111,0,40711309,0,21111219,0,0,0,0,0,0,10811319,3060161,0,0,-1170041,4160061,0,0,1021201,0,0,4180140,4130180,3110191,0,12010209,0,0,10600909,0,0,0,0
2,228,852.715625675046,1,0,119549.649652269,119550.696664472,0,9,10,0,1,6,5,10500221,67325477,11083282,32412328,0,0,4180141,0,0,-4150020,2170060,0,0,0,30900609,0,4141170,20501709,1071080,0,0,10710909,0,0,4001101,3081070,0,0,0,0,4001111,0,11001619,0,0,0,0,21410709,0,0
2,229,813.008057419211,1,0,119552.720225622,119553.767288255,0,9,10,1,1,20,20,81193646,89146929,132847896,222589933,11110519,0,11410819,11601319,21010809,0,4060071,0,22000109,0,2061031,41101219,10801509,0,1171150,30911819,3100201,0,1090011,-3131120,41911209,20801819,0,2201000,31510619,21901709,10300409,22012009,31011419,0,21510419,21410819,3121020,41801119,40712019,41011109
2,230,1025.75750250253,0,0,119555.708497787,119556.755587751,0,9,10,0,0,24,0,4070141,0,7442283,7331110,0,0,0,0,0,0,0,4070141,0,0,0,0,0,0,0,0,0,0,1070060,0,0,0,0,-2051041,1090170,1201011,2030001,3191040,0,4140070,0,0,0,0,0,0
2,231,886.4643832203,0,0,119558.99088513,119560.037942758,0,9,10,0,0,19,20,131565497,185694275,124956637,156485086,2171031,31111819,4120170,0,0,2160150,40000009,31900709,20101609,40401119,1150071,40510809,0,30100319,41311219,11010019,0,21210719,-4061170,0,11000309,30811209,4071201,21310319,1080011,20911209,31711209,41702009,30100609,41110909,0,0,21201119,20210319,2160121,0
2,232,1074.74763441132,0,0,119562.120391772,119563.167397815,0,9,10,0,0,30,0,9141460,3111121,4031371,3190102,0,0,4020100,0,0,2121160,3000200,0,0,0,0,0,0,3111121,0,0,0,0,0,0,0,3010191,0,0,0,1021180,0,1080041,0,-2110061,0,0,0,0,0,0
2,233,727.838139500818,1,0,119565.42624903,119566.473311662,0,9,10,1,1,25,0,5242482,2021000,7331031,2130200,2130100,0,0,0,2091201,0,0,1021181,0,0,0,0,2021000,0,0,0,0,0,0,3190030,0,0,0,0,-4141001,0,0,0,0,0,0,1040040,0,0,0,1090160
2,234,1398.31656128808,0,0,119568.355691845,119569.402756787,0,9,10,0,0,36,10,52813747,88521607,30012631,62356770,0,21201219,0,0,0,0,10802019,0,20810509,0,0,1091130,3120040,0,42000209,0,21310119,21000109,2001111,0,0,0,20800319,3121100,0,0,4090101,2151051,10502009,0,0,31810909,10711509,0,3090101,-4091191
2,235,784.208357988973,0,0,119571.849848137,119572.896914619,0,9,10,1,0,35,0,3111171,0,7444391,5342142,0,3111171,0,0,0,0,0,0,0,0,0,0,0,0,0,0,0,0,1001120,0,1201161,3191000,0,2051110,0,0,0,1161031,0,0,0,0,0,0,-1161001,3020110
2,236,1561.35753729905,1,0,119574.86165027,119575.908717907,0,9,10,0,1,4,10,41253151,68903038,119084086,44800161,3021000,0,0,-3131201,32000909,0,3100041,0,0,4000191,21900319,0,21501709,0,21500819,0,0,0,1160171,10401319,40910109,11910409,40401919,4190150,10110009,0,0,40610109,3080021,0,0,0,0,0,0,1110031
2,237,480.640847788891,0,0,119578.579373796,119579.626402937,0,9,10,0,0,22,0,1111080,8360262,10431211,0,0,1111080,0,0,0,0,0,0,0,3100100,0,0,0,0,0,0,2060161,3200001,0,0,3041020,-1180010,3110181,3100000,0,0,0,0,0,0,0,0,0,0,0,0
2,238,880.67611020233,1,0,119581.179365096,119582.226431963,0,9,10,1,1,3,0,5371302,5301080,4281191,0,1061080,0,-1070021,2070000,0,0,1170201,0,0,0,0,0,0,2141080,3160000,0,0,0,0,0,3171171,0,1110020,0,0,0,0,0,0,0,0,0,0,0,0,0
2,239,1262.0503900398,1,0,119584.249990419,119585.297044197,0,9,10,1,1,12,10,68303058,75996227,104921037,39302730,0,0,21401609,1051031,3010000,21610009,1020190,20210219,0,30801309,11311309,-2161090,0,0,0,0,1011200,30711319,0,31310109,0,0,0,0,0,31800619,41810309,0,0,4051180,2020001,0,0,0,30211519,3020030
2,240,747.69250107056,0,0,119587.591206341,119588.638275133,0,9,10,1,0,33,10,34625759,78835858,39005717,58661369,0,10301909,0,0,4161131,12001519,4070140,0,4091060,3041080,30400519,11701709,0,30511419,0,0,3181131,0,11901919,0,0,0,11911509,0,11011209,4181080,0,0,3100180,10911009,0,0,-4050161,0,40600019,0
2,241,885.158980585402,1,0,119593.61478751,119594.661862846,0,9,11,1,1,35,0,3111171,0,7444391,5342142,0,3111171,0,0,0,0,0,0,0,0,0,0,0,0,0,0,0,0,1001120,0,1201161,3191000,0,2051110,0,0,0,1161031,0,0,0,0,0,0,-1161001,3020110
2,242,519.036854049773,0,0,119596.708942802,119597.756056249,0,9,11,0,0,21,10,28073740,69323738,116687187,44922248,0,2180121,0,0,10811409,0,4181101,0,10901109,30511109,1061010,30610509,0,4001000,0,0,0,3140110,0,30311909,-1161000,31400009,0,20901909,0,30801319,2111041,3110030,0,0,0,21812009,20000209,0,0,0
2,243,980.398322368274,1,0,119599.438391853,119600.485464879,0,9,11,1,1,33,10,34625759,78835858,39005717,58661369,0,10301909,0,0,4161131,12001519,4070140,0,4091060,3041080,30400519,11701709,0,30511419,0,0,3181131,0,11901919,0,0,0,11911509,0,11011209,4181080,0,0,3100180,10911009,0,0,-4050161,0,40600019,0
2,244,1447.05800841621,1,0,119602.579604773,119603.626675489,0,9,11,1,1,12,10,68303058,75996227,104921037,39302730,0,0,21401609,1051031,3010000,21610009,1020190,20210219,0,30801309,11311309,-2161090,0,0,0,0,1011200,30711319,0,31310109,0,0,0,0,0,31800619,41810309,0,0,4051180,2020001,0,0,0,30211519,3020030
2,245,1070.02339349128,1,0,119606.179649197,119607.226712984,0,9,11,0,1,4,5,22463983,53232369,52912428,6320270,0,0,1061001,-2021041,4060000,4180061,10100819,0,1041061,40801219,0,1021031,11410119,0,0,0,0,0,0,0,0,10901409,0,42011019,0,0,0,0,0,0,2120120,0,0,0,0,4200150
2,246,1018.61724659102,1,0,119609.403006341,119610.450277138,0,9,11,0,1,18,5,57226940,109013068,4262160,1001031,31811819,0,1161170,1071171,0,2181061,0,0,21001719,20111709,0,40910009,40800109,0,3160051,0,0,-4031190,0,0,0,0,1201040,3061120,0,0,0,0,1001031,0,0,0,0,0,0,0
2,247,699.332165298983,1,0,119612.497369027,119613.5444255,0,9,11,1,1,25,0,5242482,2021000,7331031,2130200,2130100,0,0,0,2091201,0,0,1021181,0,0,0,0,2021000,0,0,0,0,0,0,3190030,0,0,0,0,-4141001,0,0,0,0,0,0,1040040,0,0,0,1090160
2,248,711.367584779509,0,0,119615.403352321,119616.450341811,0,9,11,1,0,20,20,81193646,89146929,132847896,222589933,11110519,0,11410819,11601319,21010809,0,4060071,0,22000109,0,2061031,41101219,10801509,0,1171150,30911819,3100201,0,1090011,-3131120,41911209,20801819,0,2201000,31510619,21901709,10300409,22012009,31011419,0,21510419,21410819,3121020,41801119,40712019,41011109
2,249,726.687876143842,1,0,119618.273903809,119619.320961437,0,9,11,1,1,34,5,20800309,71444901,26960321,18071880,0,0,0,0,20800309,0,0,0,0,0,3001021,0,4030131,30101709,3200131,31111909,0,0,21700009,0,0,0,0,3150131,0,0,2110181,0,0,2171180,3000091,10810519,0,-2090090,0,0
2,250,829.152165242704,0,0,119621.191577598,119622.23863561,0,9,11,0,0,19,20,202235924,146524945,116476979,117866247,4000050,21600409,40010709,10300709,20410019,3080091,21310809,40511509,41011619,30010519,0,10410609,31010509,0,41901219,2180070,31012019,0,-4101081,3071031,20511419,21310909,0,41810409,2061121,20610809,3000200,0,0,0,3131091,31210119,20711919,32001209,30811909,0
2,251,1090.9452518099,1,0,119624.144545377,119625.191609934,0,9,11,0,1,30,20,87958037,188315774,147216693,69365279,21511009,31511719,0,4100030,10611619,2091100,4131050,11001309,3000201,4091090,0,20400509,40611209,10210919,30800119,41801819,0,40400109,32000909,10601209,40600919,20801009,11800919,11301609,0,20110119,0,20611009,0,-1050161,20701009,21802009,2200011,0,0,3001080
2,252,764.962619708967,0,0,119627.285762916,119628.332837867,0,9,11,1,0,7,20,171796476,82927068,149975157,219056003,20401309,41700209,0,41511319,21900019,1141031,-4031070,0,41111519,2091100,2010161,30301209,10811309,21100609,4011201,10511319,0,2090160,3151070,0,0,3090021,31011919,40800119,41110019,0,30812009,0,41511019,21901919,31610509,22010309,30510909,30210419,0,41300919
2,253,652.926276321523,1,1,119630.144623524,119631.191681922,0,9,11,0,0,28,5,32572119,55604239,35152260,30683192,0,0,0,0,2161000,0,30411119,0,0,2101191,0,1001020,31501119,0,21000909,0,0,0,30001019,0,0,0,0,0,4150180,1001061,0,-3130151,3031141,0,0,0,21411719,0,3110181,0
2,254,519.504966578097,0,0,119632.932881522,119633.979948774,0,9,11,0,0,22,10,106776376,37854069,62214991,73092279,0,21201409,21211509,0,41401309,0,21801119,0,1161030,2121021,0,0,0,10911719,20710319,0,4111010,0,3071081,2091101,21111919,-4030080,0,30810619,1100191,0,0,0,31601019,1081041,0,0,0,40410219,0,0
2,255,679.284938290948,1,0,119635.674093056,119636.721164542,0,9,11,0,1,24,0,3060061,5461152,9492171,4190101,0,0,0,3060061,0,0,0,0,0,1100111,0,0,0,3171020,0,1190021,0,0,0,4170060,0,0,0,-1151070,0,0,4171041,0,0,0,0,0,0,0,4190101,0
2,256,1005.60210146068,0,0,119638.438824934,119639.48590412,0,9,11,1,0,32,20,197438203,65424377,141316465,131234989,41401819,0,41901409,0,11202019,40301019,20510219,30210509,11911209,4000200,0,3050190,11010309,4030050,1011000,0,30910809,11411819,11000619,31810309,11610809,0,10700909,4181191,31412019,0,40600609,2020011,1111151,11710119,41101609,-3080061,0,31000919,41211119,0
2,257,1342.79171706294,1,1,119641.603577062,119642.650636999,0,9,11,0,0,36,0,7221253,3130231,1091021,5221261,2170011,0,2031041,0,0,0,3020201,0,0,0,0,1130080,0,2000151,0,0,0,0,0,0,0,1091021,0,0,0,0,0,0,1201120,0,0,0,0,0,0,-4020141
2,258,825.447685914696,0,0,119645.133016566,119646.180088823,0,9,11,1,0,3,0,5371302,5301080,4281191,0,1061080,0,-1070021,2070000,0,0,1170201,0,0,0,0,0,0,2141080,3160000,0,0,0,0,0,3171171,0,1110020,0,0,0,0,0,0,0,0,0,0,0,0,0
2,259,888.734882973949,0,0,119648.097759917,119649.144831018,0,9,11,0,0,26,10,25290150,35553068,60614240,145054965,0,0,0,0,0,2180090,21000019,0,2110041,0,2140160,0,0,20900309,11411419,0,1101180,0,0,4151091,0,2031011,41111419,11210619,0,-2110100,0,10610119,0,40810809,0,21301119,1021090,30211519,0,41100309
2,260,914.754779281793,0,0,119651.109562435,119652.156616983,0,9,11,0,0,13,20,177236254,126666735,110894717,105034536,41100909,31500509,30410719,20010709,20300209,1141110,0,31601009,1171080,10412019,32000719,12010409,-4081071,10701209,21600109,4161090,0,31700109,10811519,40810409,1200140,40011009,2020020,0,4040111,0,12001509,0,10300619,40501119,0,40601319,0,10610409,0,3021070
2,261,874.5375227154,0,0,119654.156652399,119655.203715802,0,9,11,1,0,8,5,5161121,23633869,23121481,36112399,0,0,0,0,0,2061031,0,-3100090,0,0,10511309,1111151,0,0,0,0,0,12011409,10900209,0,0,0,0,1020041,4070061,4031120,3100050,0,11801919,0,0,0,3010061,0,21300419,0
2,262,1114.09680401266,1,0,119657.086098294,119658.133161697,0,9,11,1,1,5,10,44200620,126914675,26054472,73031377,0,0,0,0,-1060191,0,3040110,40100319,0,41302009,30600119,0,0,11900419,0,0,21811209,21300919,2090010,0,3101111,0,0,4151201,2021000,3091141,11600009,10010319,0,0,0,0,0,1200130,20810009,41010919
2,263,1034.87645775022,1,1,119660.274370766,119661.321432629,0,9,11,0,0,6,0,6233422,11391182,3091311,0,0,0,0,0,2071141,-3051170,0,1111111,0,0,0,0,3140061,4151051,4100070,0,0,0,0,0,0,2080181,0,0,1011130,0,0,0,0,0,0,0,0,0,0,0
2,264,670.229886556626,1,0,119663.49793415,119664.545001402,0,9,11,1,1,27,5,27033130,64220278,28642119,41413671,3200111,0,0,21711819,0,2121200,0,0,0,0,3100150,0,20410009,0,0,0,40710119,0,0,0,21311909,0,0,0,4190010,0,-3140200,0,32010519,3191020,3161051,0,0,0,0,3051081
2,265,669.821058007074,1,0,119672.980401488,119674.027456806,0,9,12,0,1,28,10,106051658,25052341,100353697,81576457,0,0,30500409,30611109,3130021,0,41810119,0,0,0,3051201,0,21001109,0,0,0,1000031,0,1100060,0,1171070,21101019,0,32011109,0,4060130,40910309,-4181170,0,0,4081050,0,30511509,21200809,21601919,0
2,266,1809.18308530818,0,1,119675.85100995,119676.898076816,0,9,12,1,1,5,10,44200620,126914675,26054472,73031377,0,0,0,0,-1060191,0,3040110,40100319,0,41302009,30600119,0,0,11900419,0,0,21811209,21300919,2090010,0,3101111,0,0,4151201,2021000,3091141,11600009,10010319,0,0,0,0,0,1200130,20810009,41010919
2,267,764.54763179936,1,0,119679.73341092,119680.780475477,0,9,12,1,1,3,0,5371302,5301080,4281191,0,1061080,0,-1070021,2070000,0,0,1170201,0,0,0,0,0,0,2141080,3160000,0,0,0,0,0,3171171,0,1110020,0,0,0,0,0,0,0,0,0,0,0,0,0
2,268,1524.66652313888,1,0,119682.733443642,119683.780505504,0,9,12,0,1,18,5,8192030,27352502,25811250,73223537,0,0,0,4051010,4141020,0,0,0,0,3160140,0,4080080,3030001,10811209,2151031,0,0,-4120041,0,0,0,21710109,0,4101141,0,0,0,0,0,0,0,31711419,0,20801009,0,20711109
2,269,959.099202314974,1,0,119686.462904242,119687.509949936,0,9,12,0,1,13,5,33330199,35411722,42653149,44130651,31210019,1120160,0,0,0,0,0,0,1000020,0,0,30100409,-2160041,0,0,0,2060201,1091071,0,0,30012009,1030131,11611009,0,0,0,0,0,40910519,0,1090091,0,0,0,0,2130041
2,270,642.866476482595,0,0,119689.498272916,119690.545291662,0,9,12,0,0,22,5,50911738,57001650,12522171,36332569,0,0,0,0,0,0,40701619,0,10210119,0,11100419,1050011,0,0,4151001,0,0,40700219,4160051,0,0,-3140020,0,0,0,4181090,1041010,0,0,0,0,3041020,31111409,2180140,0,0
2,271,1315.68507594056,0,0,119692.298257594,119693.345318687,0,9,12,1,0,33,10,34625759,78835858,39005717,58661369,0,10301909,0,0,4161131,12001519,4070140,0,4091060,3041080,30400519,11701709,0,30511419,0,0,3181131,0,11901919,0,0,0,11911509,0,11011209,4181080,0,0,3100180,10911009,0,0,-4050161,0,40600019,0
2,272,1185.33459979517,1,0,119695.68657118,119696.733596856,0,9,12,1,1,35,0,3111171,0,7444391,5342142,0,3111171,0,0,0,0,0,0,0,0,0,0,0,0,0,0,0,0,1001120,0,1201161,3191000,0,2051110,0,0,0,1161031,0,0,0,0,0,0,-1161001,3020110
2,273,1052.18622737448,1,0,119699.027745912,119700.074808159,0,9,12,1,1,34,5,20800309,71444901,26960321,18071880,0,0,0,0,20800309,0,0,0,0,0,3001021,0,4030131,30101709,3200131,31111909,0,0,21700009,0,0,0,0,3150131,0,0,2110181,0,0,2171180,3000091,10810519,0,-2090090,0,0
2,274,1079.42529504362,1,0,119702.204248203,119703.25131122,0,9,12,1,1,20,20,81193646,89146929,132847896,222589933,11110519,0,11410819,11601319,21010809,0,4060071,0,22000109,0,2061031,41101219,10801509,0,1171150,30911819,3100201,0,1090011,-3131120,41911209,20801819,0,2201000,31510619,21901709,10300409,22012009,31011419,0,21510419,21410819,3121020,41801119,40712019,41011109
2,275,1190.66438429581,0,0,119705.404355915,119706.451350794,0,9,12,0,0,6,0,4342081,7440303,1151150,4302011,0,0,0,0,0,-3181081,1161000,0,0,2140201,0,0,4100051,0,1200051,0,0,0,0,0,0,1151150,0,0,0,0,0,2101010,0,2201001,0,0,0,0,0,0
2,276,1274.14316871727,0,0,119708.792564022,119709.839626654,0,9,12,0,0,30,20,71645677,159601143,107714466,100966737,3000060,31910519,1151051,0,11810609,2070110,0,10802009,10901319,0,2060050,40102019,20112009,20410609,12001909,31301819,21800909,11811819,0,20910519,11901409,0,21210719,21810419,1081091,0,30800309,31600619,40701609,-3091080,1161191,0,0,3111100,11100319,10200819
2,277,1332.85356489068,1,0,119712.274961297,119713.32201469,0,9,12,0,1,4,20,86453045,77435198,132126976,193854323,11001719,12010319,20400319,-1030160,10700119,31310409,0,0,0,3070041,30601319,2031070,0,4040020,3181020,20311519,11000119,3200090,0,0,21801119,1100090,31601419,31911619,3100191,11301919,31310619,20010009,40000419,40711019,20610219,31010919,0,30100719,0,11411019
2,278,948.432703997241,0,0,119715.804400801,119716.851470748,0,9,12,0,0,36,10,78757088,83994087,86551929,48590430,3091091,2180150,30411809,0,11501909,0,30402009,1170120,0,21700709,0,0,1181050,20200709,40911619,0,0,0,40001019,0,0,4020131,40410709,0,0,2120070,0,0,10600119,0,30910019,4080091,0,0,0,-3000201
2,279,587.246931856498,0,0,119718.957376203,119720.004445765,0,9,12,1,0,27,5,27033130,64220278,28642119,41413671,3200111,0,0,21711819,0,2121200,0,0,0,0,3100150,0,20410009,0,0,0,40710119,0,0,0,21311909,0,0,0,4190010,0,-3140200,0,32010519,3191020,3161051,0,0,0,0,3051081
2,280,687.452270038193,1,0,119721.616238043,119722.663300675,0,9,12,1,1,25,0,5242482,2021000,7331031,2130200,2130100,0,0,0,2091201,0,0,1021181,0,0,0,0,2021000,0,0,0,0,0,0,3190030,0,0,0,0,-4141001,0,0,0,0,0,0,1040040,0,0,0,1090160
2,281,630.677072593244,1,0,119724.439796576,119725.486866522,0,9,12,0,1,19,20,148106035,121066047,199407725,122316750,41211509,21511019,1160041,21511119,11700119,0,0,10700719,40311509,41911109,40200819,0,11600819,0,2151010,3201181,22001109,0,-2070041,41601019,0,40811119,0,21101919,40301709,21510109,32011809,30810809,2130051,22010909,40210209,3091081,21811419,0,1201171,1051101
2,282,634.614453316317,0,0,119727.133942782,119728.18100426,0,9,12,1,0,7,20,171796476,82927068,149975157,219056003,20401309,41700209,0,41511319,21900019,1141031,-4031070,0,41111519,2091100,2010161,30301209,10811309,21100609,4011201,10511319,0,2090160,3151070,0,0,3090021,31011919,40800119,41110019,0,30812009,0,41511019,21901919,31610509,22010309,30510909,30210419,0,41300919
2,283,1361.25559963693,0,0,119730.016334514,119731.063395991,0,9,12,1,0,12,10,68303058,75996227,104921037,39302730,0,0,21401609,1051031,3010000,21610009,1020190,20210219,0,30801309,11311309,-2161090,0,0,0,0,1011200,30711319,0,31310109,0,0,0,0,0,31800619,41810309,0,0,4051180,2020001,0,0,0,30211519,3020030
2,284,753.186278947396,0,0,119733.616356996,119734.663435026,0,9,12,1,0,32,20,197438203,65424377,141316465,131234989,41401819,0,41901409,0,11202019,40301019,20510219,30210509,11911209,4000200,0,3050190,11010309,4030050,1011000,0,30910809,11411819,11000619,31810309,11610809,0,10700909,4181191,31412019,0,40600609,2020011,1111151,11710119,41101609,-3080061,0,31000919,41211119,0
2,285,694.024323558551,0,0,119736.463460511,119737.510524298,0,9,12,0,0,24,0,5011201,5331121,10300272,4161051,1000180,0,0,0,0,0,0,0,4011021,4170121,0,0,0,0,0,1161000,0,0,4200161,0,0,0,0,-4080050,0,0,2020061,0,0,0,0,0,0,0,4161051,0
2,286,676.50090061943,1,0,119739.345842234,119740.39290987,0,9,12,0,1,26,10,62664718,74275170,27852159,63173748,30011909,2141090,0,0,30511719,0,0,0,0,0,31110919,1131091,0,4200081,3160001,20811709,10801219,3060150,12000919,0,0,0,0,3140081,10610109,-2101050,0,40411409,10611119,0,0,2040011,0,10111209,0,0
2,287,579.050728032598,0,0,119742.216466864,119743.263521797,0,9,12,0,0,21,0,7261242,0,9423333,5250140,0,0,0,0,0,4171141,0,0,3090101,0,0,0,0,0,0,0,0,0,0,3030121,-4161121,0,1131030,1101061,0,0,0,1190060,0,0,0,0,0,0,0,4060080
2,288,1818.62078823906,0,0,119744.910614225,119745.957679552,0,9,12,1,0,8,5,5161121,23633869,23121481,36112399,0,0,0,0,0,2061031,0,-3100090,0,0,10511309,1111151,0,0,0,0,0,12011409,10900209,0,0,0,0,1020041,4070061,4031120,3100050,0,11801919,0,0,0,3010061,0,21300419,0
2,289,992.153105325997,0,0,119751.993034752,119753.040105083,0,9,13,0,0,36,5,33774388,35833039,34522831,48392520,0,0,20901909,2161060,0,0,0,10711419,0,0,0,31801919,0,4031120,0,0,0,0,4120041,4071181,0,0,4071050,0,2150140,0,20110419,0,0,3090020,41101319,0,0,0,0,-4201181
2,290,1648.2528502529,1,0,119755.193075096,119756.240143887,0,9,13,0,1,30,10,32275402,109554286,43023028,75501429,21901809,2030130,1081131,2040040,3121141,2101151,0,0,0,11911519,20310519,4080131,0,1130180,10500009,40410409,0,21211519,21111819,21911209,0,0,0,0,0,0,0,31300619,0,-2200001,42000809,0,0,0,0,0
2,291,1031.84719994897,1,0,119758.922536851,119759.969594479,0,9,13,0,1,4,20,123798589,152475467,144645374,141597275,0,3091041,0,-2171081,31701919,31301319,4121011,11211509,40200709,21801309,1080140,4121161,41400209,21201519,30410409,0,31410719,1050001,30600719,0,20310019,0,21801609,21411109,30510009,0,20011909,31800119,41900319,0,2090140,41301919,0,10701609,10702009,3101160
2,292,679.706085575162,1,0,119762.181440421,119763.228464942,0,9,13,1,1,25,0,5242482,2021000,7331031,2130200,2130100,0,0,0,2091201,0,0,1021181,0,0,0,0,2021000,0,0,0,0,0,0,3190030,0,0,0,0,-4141001,0,0,0,0,0,0,1040040,0,0,0,1090160
2,293,478.20250505174,1,0,119765.052008076,119766.099080718,0,9,13,1,1,20,20,81193646,89146929,132847896,222589933,11110519,0,11410819,11601319,21010809,0,4060071,0,22000109,0,2061031,41101219,10801509,0,1171150,30911819,3100201,0,1090011,-3131120,41911209,20801819,0,2201000,31510619,21901709,10300409,22012009,31011419,0,21510419,21410819,3121020,41801119,40712019,41011109
2,294,715.294956506114,0,0,119767.663809978,119768.71087723,0,9,13,0,0,28,20,103095289,177085854,129756466,97463107,2060041,2001121,10601509,4100091,1120090,0,21010609,21301719,40900109,31101219,1170181,40400309,0,11001309,10900509,11410609,30301209,40800509,20310619,3081070,0,31110119,10401809,0,1141121,42010509,21701219,-3040041,0,11410909,0,0,0,11810419,41101719,30100019
2,295,1052.16659435246,0,0,119770.45207683,119771.499137538,0,9,13,1,0,5,10,44200620,126914675,26054472,73031377,0,0,0,0,-1060191,0,3040110,40100319,0,41302009,30600119,0,0,11900419,0,0,21811209,21300919,2090010,0,3101111,0,0,4151201,2021000,3091141,11600009,10010319,0,0,0,0,0,1200130,20810009,41010919
2,296,819.374926752062,1,0,119773.61680971,119774.663887356,0,9,13,1,1,34,5,20800309,71444901,26960321,18071880,0,0,0,0,20800309,0,0,0,0,0,3001021,0,4030131,30101709,3200131,31111909,0,0,21700009,0,0,0,0,3150131,0,0,2110181,0,0,2171180,3000091,10810519,0,-2090090,0,0
2,297,846.741801477037,0,0,119776.546289481,119777.59338676,0,9,13,1,0,3,0,5371302,5301080,4281191,0,1061080,0,-1070021,2070000,0,0,1170201,0,0,0,0,0,0,2141080,3160000,0,0,0,0,0,3171171,0,1110020,0,0,0,0,0,0,0,0,0,0,0,0,0
2,298,674.296229190077,1,0,119779.47569611,119780.522786075,0,9,13,0,1,19,0,6171071,2061252,3140290,4141311,0,0,4070071,0,0,0,0,2101000,0,0,0,0,0,1051051,0,0,1010201,0,-1070190,2070100,0,0,0,0,0,0,0,0,0,0,0,2111110,0,0,2030201,0
2,299,1083.34766227927,0,0,119782.369859178,119783.416905257,0,9,13,0,0,24,10,97112849,111222747,48193240,95973078,2171041,0,21601009,0,0,1020071,31210319,41110409,0,0,0,0,31212009,0,0,40010119,0,40000619,3151021,0,1070100,2091050,0,-1180060,0,0,40701009,0,2190051,0,40410919,1151090,10810809,0,0,41410209
2,300,1077.83964085684,0,0,119785.699296835,119786.746370246,0,9,13,0,0,21,20,89216267,129657176,162365826,141376066,30300609,0,11711519,11811509,1001050,0,30211509,4180071,0,2131131,31600909,21801509,21210409,0,21701809,31211409,0,0,40710009,21510909,-2141060,2101091,31000619,31400319,30411719,0,3090100,0,41600509,10600409,20410109,40901209,11810119,10701509,4151011,1201191
2,301,664.933593652677,0,0,119788.958172302,119790.005232625,0,9,13,1,0,35,0,3111171,0,7444391,5342142,0,3111171,0,0,0,0,0,0,0,0,0,0,0,0,0,0,0,0,1001120,0,1201161,3191000,0,2051110,0,0,0,1161031,0,0,0,0,0,0,-1161001,3020110
2,302,1232.79143219406,1,0,119791.817020591,119792.864080144,0,9,13,1,1,12,10,68303058,75996227,104921037,39302730,0,0,21401609,1051031,3010000,21610009,1020190,20210219,0,30801309,11311309,-2161090,0,0,0,0,1011200,30711319,0,31310109,0,0,0,0,0,31800619,41810309,0,0,4051180,2020001,0,0,0,30211519,3020030
2,303,733.919367805356,1,0,119795.217054314,119796.264123106,0,9,13,1,1,27,5,27033130,64220278,28642119,41413671,3200111,0,0,21711819,0,2121200,0,0,0,0,3100150,0,20410009,0,0,0,40710119,0,0,0,21311909,0,0,0,4190010,0,-3140200,0,32010519,3191020,3161051,0,0,0,0,3051081
2,304,1343.23865674378,1,0,119798.087672785,119799.134744271,0,9,13,0,1,18,0,10283542,4200061,0,5271201,0,0,3201070,0,2000141,0,3001151,2081180,0,0,0,0,0,0,0,0,0,-4200061,0,0,0,0,0,0,0,0,0,0,0,0,0,2021110,2160071,0,0,1090020
2,305,978.820367396111,0,0,119801.570072754,119802.617132692,0,9,13,0,0,13,0,6111161,10522450,2140081,3151051,3091030,0,0,3020131,0,0,0,0,0,3180050,0,0,-4081150,0,1201120,0,2060130,0,0,0,0,2140081,0,0,0,0,0,0,0,0,0,0,0,3151051,0,0
2,306,1268.61204962188,1,0,119804.723049696,119805.770128112,0,9,13,0,1,26,5,1021120,14111300,28082050,112193450,1021120,0,0,0,0,0,0,0,0,2100091,0,12011209,0,0,0,0,0,0,0,0,0,2080051,0,20800909,0,-3121070,2080020,31401519,3070061,2080131,0,40800209,4140111,0,30701419,0
2,307,873.37494060921,1,0,119808.158373945,119809.205442352,0,9,13,1,1,32,20,197438203,65424377,141316465,131234989,41401819,0,41901409,0,11202019,40301019,20510219,30210509,11911209,4000200,0,3050190,11010309,4030050,1011000,0,30910809,11411819,11000619,31810309,11610809,0,10700909,4181191,31412019,0,40600609,2020011,1111151,11710119,41101609,-3080061,0,31000919,41211119,0
2,308,710.067571606487,1,0,119811.146653423,119812.193728759,0,9,13,1,1,8,5,5161121,23633869,23121481,36112399,0,0,0,0,0,2061031,0,-3100090,0,0,10511309,1111151,0,0,0,0,0,12011409,10900209,0,0,0,0,1020041,4070061,4031120,3100050,0,11801919,0,0,0,3010061,0,21300419,0
2,309,1491.66381993564,0,0,119813.93492528,119814.981983293,0,9,13,0,0,6,10,94525248,49834040,125742936,18132561,40810719,0,0,31201409,21511919,-1001201,0,0,0,3100161,0,31610519,1020150,10002019,0,0,4101191,0,31710819,0,40110319,1121160,0,12000219,0,40800419,0,0,1090131,0,0,10711209,4180140,2151081,0,0
2,310,527.977957317489,1,0,119817.546722947,119818.593781345,0,9,13,0,1,22,5,25901940,142904256,6241201,11411391,21700719,2060151,0,0,0,0,2141070,0,0,0,40301409,0,0,20101909,40500119,0,0,42000819,0,0,0,-3060070,3181131,0,0,0,0,4150091,0,2061140,0,0,0,1030050,4170110,0
2,311,1169.67246307468,0,0,119820.182045194,119821.229104362,0,9,13,1,0,33,10,34625759,78835858,39005717,58661369,0,10301909,0,0,4161131,12001519,4070140,0,4091060,3041080,30400519,11701709,0,30511419,0,0,3181131,0,11901919,0,0,0,11911509,0,11011209,4181080,0,0,3100180,10911009,0,0,-4050161,0,40600019,0
2,312,990.189034506329,0,0,119823.570314895,119824.617382532,0,9,13,1,0,7,20,171796476,82927068,149975157,219056003,20401309,41700209,0,41511319,21900019,1141031,-4031070,0,41111519,2091100,2010161,30301209,10811309,21100609,4011201,10511319,0,2090160,3151070,0,0,3090021,31011919,40800119,41110019,0,30812009,0,41511019,21901919,31610509,22010309,30510909,30210419,0,41300919
2,313,683.369374077301,1,0,119829.923324096,119830.970397892,0,9,14,1,1,8,5,5161121,23633869,23121481,36112399,0,0,0,0,0,2061031,0,-3100090,0,0,10511309,1111151,0,0,0,0,0,12011409,10900209,0,0,0,0,1020041,4070061,4031120,3100050,0,11801919,0,0,0,3010061,0,21300419,0
2,314,984.635202723439,1,0,119832.699859648,119833.746894563,0,9,14,1,1,33,10,34625759,78835858,39005717,58661369,0,10301909,0,0,4161131,12001519,4070140,0,4091060,3041080,30400519,11701709,0,30511419,0,0,3181131,0,11901919,0,0,0,11911509,0,11011209,4181080,0,0,3100180,10911009,0,0,-4050161,0,40600019,0
2,315,2082.58813430439,1,1,119835.793986452,119836.8410487,0,9,14,1,0,12,10,68303058,75996227,104921037,39302730,0,0,21401609,1051031,3010000,21610009,1020190,20210219,0,30801309,11311309,-2161090,0,0,0,0,1011200,30711319,0,31310109,0,0,0,0,0,31800619,41810309,0,0,4051180,2020001,0,0,0,30211519,3020030
2,316,990.94740759756,0,0,119839.970502602,119841.017560615,0,9,14,0,0,28,0,3011180,2080120,3331352,8301451,0,0,0,0,0,1011030,2000150,0,0,2080120,0,0,0,0,0,0,0,0,0,0,0,0,2161191,0,1170161,0,0,-4150140,0,0,0,0,0,3091171,0,1060140
2,317,889.888995923684,1,0,119843.017633372,119844.064655969,0,9,14,1,1,32,20,197438203,65424377,141316465,131234989,41401819,0,41901409,0,11202019,40301019,20510219,30210509,11911209,4000200,0,3050190,11010309,4030050,1011000,0,30910809,11411819,11000619,31810309,11610809,0,10700909,4181191,31412019,0,40600609,2020011,1111151,11710119,41101609,-3080061,0,31000919,41211119,0
2,318,915.552033431595,0,0,119846.099978832,119847.147044159,0,9,14,0,0,13,5,96404287,37253270,12631679,10123532,41700819,0,0,0,21301919,2090130,31311419,0,0,32012009,0,0,-3100121,0,0,0,0,2141140,0,0,0,0,0,0,11501619,0,1130060,4020200,0,1091060,0,0,2001161,0,3011111,0
2,319,527.983731735731,0,0,119849.123579633,119850.170611084,0,9,14,0,0,21,20,116022407,153556836,117306776,163348605,40810419,11800919,0,2100141,0,0,21310419,0,40000509,2051201,41900109,3151110,41501119,12000309,0,30500209,1051160,21401619,0,41301009,-1061150,3021051,10610419,40312019,10300409,0,10700719,0,21101209,41810219,11602009,30711219,31100219,21801519,4051151,1171060
2,320,701.003280832083,0,0,119851.88827725,119852.935342192,0,9,14,0,0,19,0,1151131,3000201,10353422,8101331,0,0,0,0,0,0,0,1151131,0,0,0,0,0,3000201,0,0,0,0,-4181180,0,3020081,1121060,0,0,0,2031101,0,4011150,0,0,0,0,0,0,0,4090181
2,321,672.606635533157,1,0,119854.829526048,119855.876614858,0,9,14,1,1,27,5,27033130,64220278,28642119,41413671,3200111,0,0,21711819,0,2121200,0,0,0,0,3100150,0,20410009,0,0,0,40710119,0,0,0,21311909,0,0,0,4190010,0,-3140200,0,32010519,3191020,3161051,0,0,0,0,3051081
2,322,617.290825102828,1,0,119857.747166345,119858.794228978,0,9,14,1,1,20,20,81193646,89146929,132847896,222589933,11110519,0,11410819,11601319,21010809,0,4060071,0,22000109,0,2061031,41101219,10801509,0,1171150,30911819,3100201,0,1090011,-3131120,41911209,20801819,0,2201000,31510619,21901709,10300409,22012009,31011419,0,21510419,21410819,3121020,41801119,40712019,41011109
2,323,1650.25310739293,1,0,119860.606024643,119861.653094975,0,9,14,0,1,6,20,129513808,152387466,168965145,142216825,11100119,1020001,42000619,0,40901719,-1141171,0,30200119,3150060,4111191,30310909,10501019,30610819,10811509,40800419,21100419,0,4141181,0,0,20700419,0,41300409,3060170,41001419,21800909,41101819,40300719,3180180,20501719,0,31201519,21611619,0,4010050,21411019
2,324,971.444130424061,0,0,119864.46489603,119865.511962127,0,9,14,1,0,5,10,44200620,126914675,26054472,73031377,0,0,0,0,-1060191,0,3040110,40100319,0,41302009,30600119,0,0,11900419,0,0,21811209,21300919,2090010,0,3101111,0,0,4151201,2021000,3091141,11600009,10010319,0,0,0,0,0,1200130,20810009,41010919
2,325,1080.3107052634,0,0,119867.559042853,119868.618074691,0,9,14,1,0,7,20,171796476,82927068,149975157,219056003,20401309,41700209,0,41511319,21900019,1141031,-4031070,0,41111519,2091100,2010161,30301209,10811309,21100609,4011201,10511319,0,2090160,3151070,0,0,3090021,31011919,40800119,41110019,0,30812009,0,41511019,21901919,31610509,22010309,30510909,30210419,0,41300919
2,326,1011.48122525774,1,0,119870.782612781,119871.829675798,0,9,14,1,1,35,0,3111171,0,7444391,5342142,0,3111171,0,0,0,0,0,0,0,0,0,0,0,0,0,0,0,0,1001120,0,1201161,3191000,0,2051110,0,0,0,1161031,0,0,0,0,0,0,-1161001,3020110
2,327,998.192372877384,1,0,119873.912048205,119874.959117766,0,9,14,0,1,4,10,47193528,76504097,117635787,52172662,0,31110619,10811709,-2130180,0,0,3141020,0,0,0,0,2181050,0,21211219,0,0,41111019,12000809,0,0,0,32010519,3000041,30712009,0,30911209,21002009,3140181,0,4160171,2051090,2110201,0,0,0,40711019
2,328,1178.35179291433,1,0,119877.123939187,119878.170918668,0,9,14,0,1,24,10,180055106,3171140,92763687,74635501,0,41210819,31810109,4201031,31511419,40310419,0,0,31011309,0,0,3171140,0,0,0,0,0,0,21201119,30301319,0,0,0,-1061030,40200219,0,0,3010070,3111051,3111050,40411119,1071021,2110071,0,0,21811119
2,329,836.685081332689,0,0,119880.500389431,119881.547430506,0,9,14,0,0,22,10,86552218,60793038,49953630,46022120,0,0,4141081,0,0,21111109,40800019,20500009,0,11400419,32000609,0,0,0,0,4100090,10110819,3181101,21611009,0,2050061,-2070101,0,0,20111309,4111150,0,21201719,0,0,0,3040081,0,20610209,0,1170111
2,330,721.231054529198,0,0,119883.535691506,119884.582761453,0,9,14,0,0,26,0,1080200,0,6292091,10723444,0,0,0,0,0,0,0,0,1080200,0,0,0,0,0,0,0,0,0,0,0,0,0,0,0,0,-4181030,2111061,3130061,2091191,1191011,0,3130141,1181040,0,0,0
2,331,693.501931542414,0,0,119886.39434877,119887.441609357,0,9,14,1,0,3,0,5371302,5301080,4281191,0,1061080,0,-1070021,2070000,0,0,1170201,0,0,0,0,0,0,2141080,3160000,0,0,0,0,0,3171171,0,1110020,0,0,0,0,0,0,0,0,0,0,0,0,0
2,332,569.738137419336,0,0,119889.218116036,119890.26516943,0,9,14,1,0,34,5,20800309,71444901,26960321,18071880,0,0,0,0,20800309,0,0,0,0,0,3001021,0,4030131,30101709,3200131,31111909,0,0,21700009,0,0,0,0,3150131,0,0,2110181,0,0,2171180,3000091,10810519,0,-2090090,0,0
2,333,1016.23125855986,0,0,119891.841659633,119892.888733429,0,9,14,0,0,30,5,39694220,35752970,71625201,32210809,0,0,3171191,31311819,0,0,4030060,0,1181150,0,0,0,0,31711919,4041051,0,0,0,0,4101061,3031081,0,0,40900819,2191021,0,21401219,0,0,-1200090,0,0,0,0,31010719,0
2,334,792.198222741717,1,0,119894.947582411,119895.994658517,0,9,14,1,1,25,0,5242482,2021000,7331031,2130200,2130100,0,0,0,2091201,0,0,1021181,0,0,0,0,2021000,0,0,0,0,0,0,3190030,0,0,0,0,-4141001,0,0,0,0,0,0,1040040,0,0,0,1090160
2,335,1268.95928439626,1,0,119897.982912588,119899.02997753,0,9,14,0,1,36,5,12522549,95073357,48860949,6301361,0,0,0,2021140,0,0,0,10501409,0,0,0,20010419,3051200,0,0,0,40110319,31901419,0,41600919,0,4170030,0,0,3090000,0,0,0,0,2160150,0,0,1041051,0,1030100,-2070060
2,336,1232.15201203129,1,0,119901.488837907,119902.535893995,0,9,14,0,1,18,20,94524065,118615466,181516476,206797686,11901119,0,11011119,30300009,20910109,0,20401709,0,0,1110110,0,0,11902009,30701319,31201009,0,40701009,-3000010,30501009,0,31411509,40000209,31600109,2101021,21901419,22000109,2001091,40401219,1100130,42001409,40112009,4200050,30910009,4131110,3131141,40810609
2,337,1032.56669196708,0,0,119908.030119196,119909.077149877,0,9,15,1,0,27,5,27033130,64220278,28642119,41413671,3200111,0,0,21711819,0,2121200,0,0,0,0,3100150,0,20410009,0,0,0,40710119,0,0,0,21311909,0,0,0,4190010,0,-3140200,0,32010519,3191020,3161051,0,0,0,0,3051081
2,338,856.632988419733,0,0,119911.288959247,119912.336062685,0,9,15,1,0,25,0,5242482,2021000,7331031,2130200,2130100,0,0,0,2091201,0,0,1021181,0,0,0,0,2021000,0,0,0,0,0,0,3190030,0,0,0,0,-4141001,0,0,0,0,0,0,1040040,0,0,0,1090160
2,339,502.586317277746,1,0,119914.277217168,119915.324274411,0,9,15,0,1,28,20,103846059,177182976,118117095,114114816,3121141,2151101,20010219,0,21811709,4160081,21400209,1091190,30100409,40710819,31700119,30910519,0,40211009,0,30600509,0,3050001,20411709,2201121,0,11800609,0,11001709,20900719,10101009,41700219,-4150161,0,31200609,4040090,0,31100719,21600219,11011809,11011209
2,340,638.769721932476,1,0,119916.889030619,119917.936073233,0,9,15,1,1,34,5,20800309,71444901,26960321,18071880,0,0,0,0,20800309,0,0,0,0,0,3001021,0,4030131,30101709,3200131,31111909,0,0,21700009,0,0,0,0,3150131,0,0,2110181,0,0,2171180,3000091,10810519,0,-2090090,0,0
