sub_id,Trial,RT,Resp,Error,Fix_onset,Disp_onset,q1,q2,block,repeat,tid,tloc,d_setsize,quad1,quad2,quad3,quad4,loc1,loc2,loc3,loc4,loc5,loc6,loc7,loc8,loc9,loc10,loc11,loc12,loc13,loc14,loc15,loc16,loc17,loc18,loc19,loc20,loc21,loc22,loc23,loc24,loc25,loc26,loc27,loc28,loc29,loc30,loc31,loc32,loc33,loc34,loc35,loc36
20,1,1786.82541311719,0,0,1501429.47232184,1501430.51933904,1,5,1,1,0,6,5,26121360,73405538,41312528,7312252,0,0,1100081,0,22010119,-3011160,0,0,0,21611509,3050060,0,0,4071110,0,0,3171140,41501719,0,0,0,20412019,0,20900509,0,0,0,1201151,4081030,0,0,0,0,2030071,0,0
20,2,1100.77993990853,1,0,1501433.46043116,1501434.50741834,1,5,1,0,1,21,0,4141221,4180050,5291221,8261430,0,0,0,0,0,0,3101110,1040111,0,0,0,0,0,0,0,0,4180050,0,0,0,-1181091,0,0,0,4110130,0,0,0,1080080,0,4130150,0,3051200,0,0,0
20,3,1330.85185848176,0,0,1501436.76619334,1501437.81328561,1,5,1,1,0,28,10,70904907,61563578,125515648,24251800,0,12000809,2181150,0,0,4011030,21711509,0,31000409,0,10610709,0,30100419,4090140,2160091,4101110,0,10501109,0,1080011,40311509,0,0,40911519,0,3101100,40111509,-3041191,0,0,0,0,0,0,0,21210609
20,4,1090.56538599543,1,0,1501440.35435748,1501441.40134966,1,5,1,1,1,29,20,154125665,181197284,62887199,105783166,4070070,0,20800219,21510419,21510209,20300319,21701919,41211319,3021191,10100019,31311209,31311319,41900409,0,41011519,10111409,4150091,11301309,3081171,0,3130001,11101819,4070180,10402009,0,1100110,30001909,0,-2170000,0,0,31400319,30300319,0,10100919,31811609
20,5,1057.90144833736,0,0,1501443.61305202,1501444.66007538,1,5,1,0,0,26,0,10370473,1190111,7222533,0,0,0,0,3200161,1020191,0,0,3060110,3090011,0,0,0,1190111,0,0,0,0,0,0,0,2001181,0,0,0,1081171,-4140181,0,0,0,0,0,0,0,0,0,0
20,6,1175.80690653995,1,0,1501446.80120784,1501447.84823468,1,5,1,1,1,32,20,159018265,161505984,112806197,122823758,30801119,0,10901909,41101219,41901519,0,3011180,0,31301319,21310919,11511009,4060000,0,21410519,0,30500809,31712009,41000719,1050081,11811919,11201019,31600909,0,3001091,41200319,10900809,2040050,31811409,3131000,0,0,-1160091,21900509,31400309,31310419,2110021
20,7,1143.52446538396,1,0,1501450.08346507,1501451.1304946,1,5,1,1,1,17,0,4100141,11302621,3091130,6170271,0,0,0,0,0,0,4100141,0,0,3011200,0,0,0,1170150,0,4111160,-3010111,0,0,0,3091130,0,0,0,0,0,0,0,0,0,2100071,0,0,4070200,0,0
20,8,898.65657244809,1,0,1501453.34222967,1501454.38922378,1,5,1,1,1,15,20,203076765,121905614,116886377,79294076,41900619,30900819,2011160,3060080,11400819,40001009,40401809,31300319,2100131,11301319,31911109,31900509,0,0,-2171140,22010709,11710119,10900709,40700709,11401519,1181020,0,0,2100101,30201519,0,31301509,0,20011109,21600119,2110050,0,0,20800909,10611819,4160070
20,9,824.660916347057,1,0,1501456.43623098,1501457.48325935,1,5,1,0,1,13,5,34854269,13392501,35051889,21532910,0,0,3041051,0,11211209,0,20602009,0,0,4121131,0,0,-1100100,0,4170150,4001120,0,0,0,2120140,10310009,0,20511719,0,2110021,0,0,0,1131001,0,0,0,0,0,20401909,0
20,10,1163.49854972214,0,0,1501459.33027124,1501460.3773,1,5,1,0,0,5,5,27402360,7362111,53423347,29272100,2080151,0,0,20011019,-4171170,0,0,0,1140020,3201060,0,0,0,0,0,4161051,0,0,0,21500419,0,20710909,11212019,0,0,0,0,2190080,2041151,21910719,0,3130150,0,0,0,0
20,11,1181.83885980397,0,0,1501462.69488432,1501463.74189229,1,5,1,1,0,8,0,4161090,3101150,0,8504434,0,0,0,0,0,0,0,-1130070,3031020,0,0,0,0,0,2080120,0,0,1021030,0,0,0,0,0,0,0,0,0,0,3021181,0,0,0,1191161,0,1161001,3131091
20,12,1012.7905679401,0,0,1501465.94185256,1501466.98887323,1,5,1,0,0,18,10,108785997,49554060,88245718,43692550,3051040,0,40500719,41001419,0,0,12010209,1121101,11101509,0,0,21310909,4151191,0,0,20900909,0,-3191051,0,0,0,0,30612019,4171110,1061051,30800619,21600919,0,0,0,2001040,1090201,0,0,40601309,0
20,13,580.293857492507,1,0,1501469.16529391,1501470.21231651,1,5,1,0,1,10,10,75604809,97163836,39285540,56202479,0,0,0,2091051,0,0,1101040,42001909,30410809,-4140180,0,20101209,21101719,0,11510609,40310119,0,0,3161120,20601709,1031181,0,2150051,10300409,0,0,2041070,11511509,4180061,0,0,0,0,0,40510909,0
20,14,1561.76414666697,0,0,1501471.88291157,1501472.92990722,1,5,1,1,0,24,5,55002159,5151351,37600802,67423029,21611509,0,0,0,31200619,0,2190031,0,0,0,3110200,0,0,0,0,0,0,2041151,2020061,0,0,0,0,-1100111,0,3070011,31410619,0,1111041,4090070,41910009,20311909,0,0,0,0
20,15,746.11733132042,0,0,1501475.60041028,1501476.64743557,1,5,1,0,0,14,20,94895287,162913624,147323995,155686106,0,2081051,40400809,10900909,21200709,0,20311809,0,0,31310109,3101050,11710119,20310419,-3030120,31510019,1031160,40810019,20100609,0,40310909,31001019,0,21000919,0,2200130,21400009,31411009,41900519,41810619,30510309,3121100,2131111,11100419,3201010,0,21911019
20,16,1398.55994703248,0,0,1501478.51798206,1501479.56500388,1,5,1,1,0,30,5,26232980,67452298,17691349,16102999,3040170,0,0,0,22001719,0,1191091,0,0,31711019,0,0,0,0,31410019,0,3151130,1180130,11501209,0,0,2010050,0,4180090,0,0,0,10810719,0,-2111170,0,0,0,0,0,3181110
20,17,694.403600646183,1,0,1501482.05905354,1501483.10607999,1,5,1,1,1,11,10,125002856,73313532,60903399,75373279,31600019,0,0,0,0,30800009,31601319,0,31001509,0,-1090121,4020091,0,31310619,4111171,0,30711419,2070111,0,4080081,0,0,0,0,31401709,4110100,21311509,0,32000609,2101010,1060041,0,0,0,0,40211619
20,18,1465.49580432475,1,0,1501484.90603464,1501485.95305647,1,5,1,0,1,19,5,49342149,22631770,5211091,57633379,0,11110719,1021010,0,0,3130021,31910209,2170190,0,0,0,0,21610619,1021151,0,0,0,0,-4190091,0,0,0,0,0,0,0,1021000,22000109,0,3201080,0,0,1031181,31401009,0,0
20,19,1114.30361843668,0,0,1501488.44710612,1501489.49413757,1,5,1,0,0,27,0,4181293,4200252,4232191,2160121,0,1010131,2131031,0,0,0,1040131,0,0,0,0,0,0,3090151,0,0,0,1110101,0,2141030,0,0,0,0,0,0,-2091161,0,0,0,0,0,0,0,0,2160121
20,20,1340.68376151845,0,0,1501491.7176128,1501492.76470315,1,5,1,0,0,35,20,169466876,138309344,133727076,119767696,10400319,0,0,41611519,41311009,0,40511919,4021001,31611109,0,0,21101919,20410819,11802019,10111509,30402019,40411009,4070050,31500019,21011809,3141070,31411819,1180061,10801609,4070180,0,30610509,11401619,2061170,41111909,31700409,0,0,2151010,-1141070,30200509
20,21,1198.62354267389,1,0,1501495.24693104,1501496.29395326,1,5,1,0,1,7,20,170939375,148514258,184397814,108196456,41302009,41701509,3080181,40301819,11200719,11611019,-1041200,20700919,0,0,1121051,30600109,0,41310419,40811509,0,3161151,31510019,21302009,21010719,41000019,2190140,31510119,2141080,30501619,3041100,31701009,4080080,10901219,20201919,31002019,0,0,0,0,42011219
20,22,995.387637987733,0,0,1501498.54094806,1501499.58798297,1,5,1,1,0,34,0,3010150,1030130,5261222,12361182,0,0,0,0,0,0,0,3010150,0,0,0,0,0,0,1030130,0,0,0,1120080,2050011,0,0,0,0,0,2091131,0,0,4160000,0,0,0,0,-4180081,4021101,0
20,23,1105.9488109313,0,0,1501501.76439441,1501502.81141893,1,5,1,0,0,33,10,64232279,74955328,67786577,29234610,1021010,0,0,0,0,0,40810919,2100141,20300209,20801209,0,40411809,0,2041191,0,0,11701119,0,0,3090110,20301719,0,1171020,0,21211819,22011909,0,0,0,3171050,0,11600909,-1061181,2200051,11201419,0
20,24,1172.45043208823,1,0,1501505.03489031,1501506.08192176,1,5,1,1,1,1,10,34176051,104813266,94516156,18863991,-4071051,3121000,0,3091000,0,1001010,1091071,0,21800919,41501219,0,20500609,0,0,0,30801319,0,12010119,0,40611909,0,21901419,10702009,21300819,0,0,0,11701609,0,0,0,0,3041061,2071171,2050150,0
20,25,1462.47193589807,0,0,1501521.66971942,1501522.71674933,1,5,2,1,0,24,5,55002159,5151351,37600802,67423029,21611509,0,0,0,31200619,0,2190031,0,0,0,3110200,0,0,0,0,0,0,2041151,2020061,0,0,0,0,-1100111,0,3070011,31410619,0,1111041,4090070,41910009,20311909,0,0,0,0
20,26,732.278369832784,1,0,1501525.35197765,1501526.3990014,1,5,2,1,1,8,0,4161090,3101150,0,8504434,0,0,0,0,0,0,0,-1130070,3031020,0,0,0,0,0,2080120,0,0,1021030,0,0,0,0,0,0,0,0,0,0,3021181,0,0,0,1191161,0,1161001,3131091
20,27,725.230504525825,0,0,1501528.23425197,1501529.29304667,1,5,2,1,0,15,20,203076765,121905614,116886377,79294076,41900619,30900819,2011160,3060080,11400819,40001009,40401809,31300319,2100131,11301319,31911109,31900509,0,0,-2171140,22010709,11710119,10900709,40700709,11401519,1181020,0,0,2100101,30201519,0,31301509,0,20011109,21600119,2110050,0,0,20800909,10611819,4160070
20,28,1330.49923414364,1,0,1501531.06946366,1501532.11649203,1,5,2,0,1,21,0,6220141,9421102,2151321,1120061,0,0,0,0,0,0,4060121,2160020,0,0,4191011,3140020,0,0,2090071,0,0,0,0,0,-1100191,0,0,0,0,0,1051130,0,0,0,0,0,1120061,0,0,0
20,29,1070.27640333399,1,0,1501534.49289916,1501535.53992406,1,5,2,0,1,19,10,40452971,105556946,56992609,47032949,2110101,31201719,0,0,4071131,3070020,0,0,0,0,10211709,3130090,40201909,0,0,0,41201719,10811519,-2121151,0,30210209,0,0,10410219,3151011,11100019,0,1070161,0,21411819,0,0,0,3150060,21400909,0
20,30,1307.47741390951,1,0,1501537.65751809,1501538.70454684,1,5,2,0,1,5,0,5270372,4170160,6192171,3210130,0,0,0,1180131,-2020120,2070121,0,0,0,4170160,0,0,0,0,0,0,0,0,0,2071171,0,0,0,0,0,0,4121000,0,0,0,0,0,0,1080120,2130010,0
20,31,948.301522992551,1,0,1501541.19859881,1501542.24562102,1,5,2,0,1,27,5,13162659,47302869,72875169,2090141,0,11001519,0,0,2161140,0,0,0,0,0,0,0,0,2021140,0,4071120,41210609,0,0,22010119,10211109,0,30401509,0,4051180,3161141,-3040111,0,0,1030130,1060011,0,0,0,0,0
20,32,820.366291794926,1,0,1501544.2455679,1501545.2926005,1,5,2,0,1,13,5,4101040,71543470,35302319,53991692,0,0,0,4101040,0,0,0,0,0,0,21300019,0,-3041091,2020140,41101209,4081011,0,0,0,0,0,0,4081181,0,0,21210219,10010919,0,41711309,0,0,0,4160121,0,4070201,4050061
20,33,1533.64852280356,0,0,1501547.21019268,1501548.25722144,1,5,2,1,0,1,10,34176051,104813266,94516156,18863991,-4071051,3121000,0,3091000,0,1001010,1091071,0,21800919,41501219,0,20500609,0,0,0,30801319,0,12010119,0,40611909,0,21901419,10702009,21300819,0,0,0,11701609,0,0,0,0,3041061,2071171,2050150,0
20,34,1078.08726141229,0,0,1501550.97479598,1501552.02181704,1,5,2,0,0,18,10,118934507,10241283,104713956,26812499,31801919,2070051,30600819,11200609,3160200,0,40100909,0,0,1180081,4060090,0,0,0,0,4001071,0,-1000041,11400419,0,0,11200609,41712009,0,40400919,0,0,0,1131001,0,0,11300809,11310619,3070070,0,0
20,35,657.647143118083,0,0,1501554.15118663,1501555.1982227,1,5,2,1,0,28,10,70904907,61563578,125515648,24251800,0,12000809,2181150,0,0,4011030,21711509,0,31000409,0,10610709,0,30100419,4090140,2160091,4101110,0,10501109,0,1080011,40311509,0,0,40911519,0,3101100,40111509,-3041191,0,0,0,0,0,0,0,21210609
20,36,800.756765296683,1,0,1501556.95109971,1501557.99818775,1,5,2,0,1,10,20,171598295,90097549,119077456,148117536,31700509,11800509,30000819,20501919,20500909,11810509,3060031,40201919,2021171,-2091111,0,30601019,11901319,0,2100190,40301719,1011081,2091110,0,30311109,0,0,22001609,11511419,41900409,3151001,10201909,11202009,41610919,0,0,40110009,2181071,0,31212009,21801519
20,37,925.173838390037,0,0,1501559.97454691,1501561.02156835,1,5,2,1,0,17,0,4100141,11302621,3091130,6170271,0,0,0,0,0,0,4100141,0,0,3011200,0,0,0,1170150,0,4111160,-3010111,0,0,0,3091130,0,0,0,0,0,0,0,0,0,2100071,0,0,4070200,0,0
20,38,1359.20500312932,1,0,1501563.02152331,1501564.06854783,1,5,2,1,1,32,20,159018265,161505984,112806197,122823758,30801119,0,10901909,41101219,41901519,0,3011180,0,31301319,21310919,11511009,4060000,0,21410519,0,30500809,31712009,41000719,1050081,11811919,11201019,31600909,0,3001091,41200319,10900809,2040050,31811409,3131000,0,0,-1160091,21900509,31400309,31310419,2110021
20,39,914.906544610858,0,0,1501566.50378085,1501567.55080113,1,5,2,0,0,7,0,5351161,6291150,7391141,1161110,0,0,0,0,1200010,0,-4151151,0,0,0,0,2170030,0,0,0,0,4121120,0,0,0,0,3150131,0,1131000,3110010,0,0,0,0,0,0,1161110,0,0,0,0
20,40,1221.87172016129,0,0,1501569.55075609,1501570.59777407,1,5,2,1,0,30,5,26232980,67452298,17691349,16102999,3040170,0,0,0,22001719,0,1191091,0,0,31711019,0,0,0,0,31410019,0,3151130,1180130,11501209,0,0,2010050,0,4180090,0,0,0,10810719,0,-2111170,0,0,0,0,0,3181110
20,41,822.338446741924,0,0,1501573.0212473,1501574.06827567,1,5,2,0,0,35,10,29802000,127458077,11581150,89525168,3070071,11711309,0,1140071,0,3180040,0,10700509,0,30010419,0,3191020,1131101,40301709,0,11512019,41311809,0,0,0,1070041,0,0,10511109,0,0,0,20911519,21110419,40301019,0,0,0,4061091,-3141120,0
20,42,782.347932225093,1,0,1501575.91527909,1501576.96230746,1,5,2,1,1,11,10,125002856,73313532,60903399,75373279,31600019,0,0,0,0,30800009,31601319,0,31001509,0,-1090121,4020091,0,31310619,4111171,0,30711419,2070111,0,4080081,0,0,0,0,31401709,4110100,21311509,0,32000609,2101010,1060041,0,0,0,0,40211619
20,43,1395.32896969467,0,0,1501578.76226481,1501579.80928741,1,5,2,1,0,29,20,154125665,181197284,62887199,105783166,4070070,0,20800219,21510419,21510209,20300319,21701919,41211319,3021191,10100019,31311209,31311319,41900409,0,41011519,10111409,4150091,11301309,3081171,0,3130001,11101819,4070180,10402009,0,1100110,30001909,0,-2170000,0,0,31400319,30300319,0,10100919,31811609
20,44,1112.91698925197,1,0,1501582.2328153,1501583.2798275,1,5,2,1,1,6,5,26121360,73405538,41312528,7312252,0,0,1100081,0,22010119,-3011160,0,0,0,21611509,3050060,0,0,4071110,0,0,3171140,41501719,0,0,0,20412019,0,20900509,0,0,0,1201151,4081030,0,0,0,0,2030071,0,0
20,45,1050.26266817003,0,0,1501585.45619428,1501586.5032188,1,5,2,0,0,14,20,75376085,162075816,143066227,100724059,21110119,0,11111109,0,10901109,10101509,1031101,10710719,10410419,0,0,31511519,31801209,-1200010,21110819,4041131,40610409,31800719,0,3041051,11601219,0,32011309,30810419,20210209,41311819,4080201,31200919,0,1141171,10810209,41200609,10210909,4030071,2130171,0
20,46,1422.40481427871,0,0,1501588.60904919,1501589.65607256,1,5,2,0,0,33,20,198205584,154575337,109368606,67353447,0,30810009,22001209,40300919,30611319,40201909,30210109,4070110,0,41601019,10501509,41000109,1060011,4141071,40310709,0,11810709,4150200,10312009,30200519,21601119,2201170,0,30011809,11901909,3140071,0,10511509,0,0,0,2140051,-3170150,10011009,20610709,20910019
20,47,826.371682807803,1,0,1501592.10307729,1501593.15009411,1,5,2,1,1,34,0,3010150,1030130,5261222,12361182,0,0,0,0,0,0,0,3010150,0,0,0,0,0,0,1030130,0,0,0,1120080,2050011,0,0,0,0,0,2091131,0,0,4160000,0,0,0,0,-4180081,4021101,0
20,48,748.589165741578,1,0,1501595.16180925,1501596.2088303,1,5,2,0,1,26,5,11601709,20214001,44204857,13590493,0,0,0,0,0,0,0,0,11601709,0,0,4111021,0,3091191,0,2011080,11000709,0,0,21111319,0,0,0,10801209,11211209,-1081120,0,4170081,0,3120171,0,4140050,2160191,0,0,0
20,49,955.134580144659,1,0,1501602.63218458,1501603.67921872,1,5,3,0,1,7,0,3151110,4160321,2271102,5201300,1030030,0,0,0,0,0,-2121080,0,0,0,0,0,1000121,0,3160200,0,0,0,0,1100011,0,0,0,0,0,1171091,0,0,2001200,0,0,0,3200100,0,0,0
20,50,601.222260156646,1,0,1501605.83210404,1501606.87912856,1,5,3,1,1,28,10,70904907,61563578,125515648,24251800,0,12000809,2181150,0,0,4011030,21711509,0,31000409,0,10610709,0,30100419,4090140,2160091,4101110,0,10501109,0,1080011,40311509,0,0,40911519,0,3101100,40111509,-3041191,0,0,0,0,0,0,0,21210609
20,51,894.102869089693,1,0,1501608.6673215,1501609.71434179,1,5,3,1,1,11,10,125002856,73313532,60903399,75373279,31600019,0,0,0,0,30800009,31601319,0,31001509,0,-1090121,4020091,0,31310619,4111171,0,30711419,2070111,0,4080081,0,0,0,0,31401709,4110100,21311509,0,32000609,2101010,1060041,0,0,0,0,40211619
20,52,765.592506388202,0,0,1501611.74960652,1501612.79665876,1,5,3,1,0,17,0,4100141,11302621,3091130,6170271,0,0,0,0,0,0,4100141,0,0,3011200,0,0,0,1170150,0,4111160,-3010111,0,0,0,3091130,0,0,0,0,0,0,0,0,0,2100071,0,0,4070200,0,0
20,53,1244.09166676924,0,0,1501614.66714865,1501615.7141801,1,5,3,1,0,32,20,159018265,161505984,112806197,122823758,30801119,0,10901909,41101219,41901519,0,3011180,0,31301319,21310919,11511009,4060000,0,21410519,0,30500809,31712009,41000719,1050081,11811919,11201019,31600909,0,3001091,41200319,10900809,2040050,31811409,3131000,0,0,-1160091,21900509,31400309,31310419,2110021
20,54,693.726839497685,1,0,1501618.09060148,1501619.13760752,1,5,3,0,1,21,20,137325347,155996728,166455715,105186696,3001001,41000809,0,21601209,0,0,30911809,40810519,0,2200101,41000919,20210019,3021011,2171200,3080131,31401119,41911309,11000919,42000709,20810209,-1011141,20210519,20611409,30201119,0,0,31610609,21201209,0,40912009,0,11711119,4060151,4000080,11900119,11402009
20,55,1094.87309888937,0,0,1501620.8552144,1501621.90223777,1,5,3,1,0,6,5,26121360,73405538,41312528,7312252,0,0,1100081,0,22010119,-3011160,0,0,0,21611509,3050060,0,0,4071110,0,0,3171140,41501719,0,0,0,20412019,0,20900509,0,0,0,1201151,4081030,0,0,0,0,2030071,0,0
20,56,688.080231891945,0,0,1501624.16100737,1501625.20802766,1,5,3,0,0,18,20,124957664,119594897,148176254,95325098,30011609,10301409,21010909,21810719,10911409,0,0,0,30911609,2180010,0,42010419,10001219,0,21901509,40411609,0,-3090131,0,20810619,10101709,1041070,21000809,21710519,41510709,32000819,0,4030081,10311409,40500419,2081040,2140090,11610909,2150110,2000121,20500919
20,57,1672.53743321635,0,0,1501627.03151189,1501628.07854835,1,5,3,1,0,24,5,55002159,5151351,37600802,67423029,21611509,0,0,0,31200619,0,2190031,0,0,0,3110200,0,0,0,0,0,0,2041151,2020061,0,0,0,0,-1100111,0,3070011,31410619,0,1111041,4090070,41910009,20311909,0,0,0,0
20,58,1239.29081880488,0,0,1501630.96081882,1501632.00784218,1,5,3,0,0,33,10,97927387,55151660,29692551,101413689,41401519,0,0,10311919,1201060,20900509,4011061,0,20101319,3200091,0,0,0,0,40310619,1140141,0,10500809,0,4001011,21611519,0,0,4080021,0,0,0,41210409,4090131,0,0,41201109,-3201031,0,0,11711009
20,59,727.676931302994,1,0,1501634.43131041,1501635.47832915,1,5,3,1,1,34,0,3010150,1030130,5261222,12361182,0,0,0,0,0,0,0,3010150,0,0,0,0,0,0,1030130,0,0,0,1120080,2050011,0,0,0,0,0,2091131,0,0,4160000,0,0,0,0,-4180081,4021101,0
20,60,1427.40776669234,1,0,1501637.25476423,1501638.30178067,1,5,3,0,1,13,20,114317527,107935416,134475775,188067854,30501219,30801519,3160050,31000319,4071000,2061050,2011051,0,10711319,0,31310009,11201909,-3000071,10310709,0,21601209,30511509,0,3041090,30511519,0,31911319,0,12000519,22000309,31901009,3110010,21610219,0,20201619,41100109,31811719,32011209,1131170,40201809,0
20,61,934.342838358134,0,0,1501640.76055019,1501641.80756817,1,5,3,0,0,19,5,25942289,77293889,3011050,44984010,10410109,0,0,0,3150201,1080060,11301919,0,0,0,0,4051020,40210709,31001019,0,0,2031141,0,-3011050,0,0,0,0,0,0,0,0,2161030,0,0,0,1071161,40610619,0,0,1141200
20,62,637.977947946638,1,0,1501643.9369266,1501644.98394804,1,5,3,1,1,8,0,4161090,3101150,0,8504434,0,0,0,0,0,0,0,-1130070,3031020,0,0,0,0,0,2080120,0,0,1021030,0,0,0,0,0,0,0,0,0,0,3021181,0,0,0,1191161,0,1161001,3131091
20,63,2085.87040216662,1,0,1501646.72508528,1501647.77217486,1,5,3,0,1,35,0,1001101,2041171,13572530,3280130,0,0,0,0,0,1001101,0,0,0,0,0,0,0,0,0,0,2041171,0,4131100,2181060,0,0,3060200,0,4200170,0,0,0,0,2090020,0,0,0,0,-1190110,0
20,64,1095.44091648422,0,0,1501650.9014282,1501651.94845965,1,5,3,1,0,30,5,26232980,67452298,17691349,16102999,3040170,0,0,0,22001719,0,1191091,0,0,31711019,0,0,0,0,31410019,0,3151130,1180130,11501209,0,0,2010050,0,4180090,0,0,0,10810719,0,-2111170,0,0,0,0,0,3181110
20,65,972.139845369384,1,0,1501654.23075652,1501655.2777899,1,5,3,1,1,15,20,203076765,121905614,116886377,79294076,41900619,30900819,2011160,3060080,11400819,40001009,40401809,31300319,2100131,11301319,31911109,31900509,0,0,-2171140,22010709,11710119,10900709,40700709,11401519,1181020,0,0,2100101,30201519,0,31301509,0,20011109,21600119,2110050,0,0,20800909,10611819,4160070
20,66,609.75415003486,1,0,1501657.31303077,1501658.36007145,1,5,3,0,1,14,0,8312363,6151371,3022400,4171031,0,0,0,3050101,0,0,4131111,0,1131151,0,0,3040171,0,-3111200,0,0,0,0,0,0,0,0,0,0,0,1001200,2021200,0,0,0,0,0,4171031,0,0,0
20,67,902.213611640036,0,0,1501660.13647189,1501661.18350526,1,5,3,0,0,27,5,76961078,3172281,61135260,11300319,0,40810319,0,0,0,30810619,0,1150140,4190000,0,0,0,0,2011160,0,1161121,0,0,1101171,0,0,4130170,0,31101119,20611709,1190070,-3001021,0,0,0,0,0,0,0,11300319,0
20,68,1083.07789522223,0,0,1501663.26580606,1501664.31282789,1,5,3,0,0,26,10,23612458,47123071,39035611,124703036,0,0,0,11310609,1000030,0,0,0,11301819,20501209,2100071,0,0,21400619,0,2101141,0,1020031,10500409,0,3191081,3001011,0,0,0,-1141201,21201909,31010719,0,0,40900619,0,40311419,11400119,1080160,0
20,69,1622.58759350516,1,0,1501666.54811834,1501667.59509282,1,5,3,1,1,1,10,34176051,104813266,94516156,18863991,-4071051,3121000,0,3091000,0,1001010,1091071,0,21800919,41501219,0,20500609,0,0,0,30801319,0,12010119,0,40611909,0,21901419,10702009,21300819,0,0,0,11701609,0,0,0,0,3041061,2071171,2050150,0
20,70,1565.69806276821,0,0,1501670.30095339,1501671.34794903,1,5,3,0,0,10,5,5381200,39431841,23432919,45125068,1140070,0,0,0,0,2120070,0,0,2121060,-3120120,0,32010509,0,0,0,1150191,0,3151021,0,0,2031010,0,21401909,0,0,0,0,2090131,10311709,0,0,0,10811309,0,0,21911919
20,71,954.492849996313,1,0,1501673.93609624,1501674.98311961,1,5,3,0,1,5,10,19281920,77732928,128984666,62343889,4001130,0,0,0,-1100171,4070110,0,10110509,0,40810909,0,10200519,0,20411209,2120111,4190180,0,0,0,40010009,30600119,21901909,0,31310409,4111160,0,1051060,0,30311719,30012019,0,0,0,0,0,2020151
20,72,2106.91583273001,0,0,1501677.05365369,1501678.10067783,1,5,3,1,0,29,20,154125665,181197284,62887199,105783166,4070070,0,20800219,21510419,21510209,20300319,21701919,41211319,3021191,10100019,31311209,31311319,41900409,0,41011519,10111409,4150091,11301309,3081171,0,3130001,11101819,4070180,10402009,0,1100110,30001909,0,-2170000,0,0,31400319,30300319,0,10100919,31811609
20,73,1357.63628734276,1,0,1501684.72402818,1501685.77106194,1,5,4,0,1,13,10,23150880,158528036,80044568,50752411,0,0,0,0,0,22010719,1140161,0,0,30811219,0,40810419,-2141041,2031120,11711409,40910809,30112019,0,0,31401719,2100051,0,22001509,20400109,0,4141180,0,4190051,0,0,0,41301309,0,1091000,0,4170051
20,74,614.091890165582,1,0,1501688.30040674,1501689.34742934,1,5,4,1,1,17,0,4100141,11302621,3091130,6170271,0,0,0,0,0,0,4100141,0,0,3011200,0,0,0,1170150,0,4111160,-3010111,0,0,0,3091130,0,0,0,0,0,0,0,0,0,2100071,0,0,4070200,0,0
20,75,1024.98536137864,0,0,1501691.04150317,1501692.08852769,1,5,4,1,0,8,0,4161090,3101150,0,8504434,0,0,0,0,0,0,0,-1130070,3031020,0,0,0,0,0,2080120,0,0,1021030,0,0,0,0,0,0,0,0,0,0,3021181,0,0,0,1191161,0,1161001,3131091
20,76,1169.04622223228,0,0,1501694.24141532,1501695.28843522,1,5,4,0,0,5,20,151497434,83197938,107261686,146669295,40910419,2030170,30000009,20701609,-4031090,10910709,11401819,0,31511609,11301119,0,40901909,4111101,0,4071191,11700609,11112009,0,40510019,0,20211309,0,20610009,20700119,3080200,2150030,0,0,40001409,1170191,2060020,10101719,10101909,11711509,30811319,40711219
20,77,1379.5571194496,0,0,1501697.46485513,1501698.51187889,1,5,4,1,0,6,5,26121360,73405538,41312528,7312252,0,0,1100081,0,22010119,-3011160,0,0,0,21611509,3050060,0,0,4071110,0,0,3171140,41501719,0,0,0,20412019,0,20900509,0,0,0,1201151,4081030,0,0,0,0,2030071,0,0
20,78,1625.64379861578,0,0,1501700.9706488,1501702.0176687,1,5,4,0,0,35,20,175537704,45054689,158144203,131518766,31501409,40411919,41401119,20201019,20311719,0,21710519,0,0,2080160,0,21010209,4100141,10501819,1061150,0,4190060,2111150,0,20010309,12011209,21000109,40410819,0,41800619,11100319,11810819,2181070,21410409,11901019,2041011,31302019,0,40401319,-2170100,20111819
20,79,1560.19851029851,1,0,1501704.68818485,1501705.73520898,1,5,4,0,1,26,5,16853110,46732589,46003890,19802161,0,0,0,2011071,3031120,0,11810919,0,0,0,21901919,0,0,0,0,21700609,0,3130061,1151061,41801819,0,0,0,0,0,-3051010,0,0,4101201,0,10510619,1110190,0,0,0,4080151
20,80,828.578278888017,0,0,1501708.35871524,1501709.40569703,1,5,4,0,0,27,10,65813788,41752137,48622880,138847857,0,1031160,0,30411109,31210409,3161110,0,0,0,0,0,0,20100009,10011109,0,1141010,0,10500009,2160090,0,0,0,0,3151201,41111509,0,-2200080,0,32002009,40001609,0,4121140,30211519,0,30511519,2000061
20,81,983.961226651445,1,0,1501711.27623928,1501712.3233046,1,5,4,0,1,19,5,12531090,26361598,21203562,47020440,11411009,0,1120081,0,0,0,0,0,0,0,0,0,0,12001509,11310009,0,3050080,0,-2040081,0,0,3060181,0,3031090,10911119,2161091,0,0,2020180,3100141,0,0,0,0,41900119,0
20,82,1046.58436612226,0,0,1501714.45261607,1501715.49964637,1,5,4,0,0,33,0,4171041,6281171,8311271,8312292,0,0,0,4171041,0,0,0,0,0,0,3101051,0,0,3180120,0,0,0,0,0,0,0,0,0,4171180,0,4140091,0,0,3111021,0,0,0,-2091120,3110151,0,0
20,83,1413.25236717239,0,0,1501717.5819464,1501718.62897169,1,5,4,1,0,30,5,26232980,67452298,17691349,16102999,3040170,0,0,0,22001719,0,1191091,0,0,31711019,0,0,0,0,31410019,0,3151130,1180130,11501209,0,0,2010050,0,4180090,0,0,0,10810719,0,-2111170,0,0,0,0,0,3181110
20,84,2603.82267157547,1,0,1501721.15844969,1501722.20533486,1,5,4,1,1,24,5,55002159,5151351,37600802,67423029,21611509,0,0,0,31200619,0,2190031,0,0,0,3110200,0,0,0,0,0,0,2041151,2020061,0,0,0,0,-1100111,0,3070011,31410619,0,1111041,4090070,41910009,20311909,0,0,0,0
20,85,743.551951367408,1,0,1501725.99353049,1501727.04052537,1,5,4,1,1,28,10,70904907,61563578,125515648,24251800,0,12000809,2181150,0,0,4011030,21711509,0,31000409,0,10610709,0,30100419,4090140,2160091,4101110,0,10501109,0,1080011,40311509,0,0,40911519,0,3101100,40111509,-3041191,0,0,0,0,0,0,0,21210609
20,86,606.151685351506,1,0,1501728.96993431,1501730.01689185,1,5,4,0,1,10,0,1020160,6101423,4121000,7423302,0,1020160,0,0,0,0,0,0,0,-2010111,0,0,0,0,1061161,3030151,0,0,0,0,0,0,0,0,4121000,0,0,3171141,3111100,0,0,0,1141061,0,0,0
20,87,622.911345679313,0,0,1501731.80508017,1501732.85211046,1,5,4,0,0,21,10,70873561,37214678,135153527,45172839,3020111,1191041,0,21600209,41911009,0,0,0,3151191,0,0,4041110,0,0,20700619,0,11311909,1161040,10900109,40011509,-3040091,40000709,0,0,0,0,41201109,3101060,0,10710719,0,0,30310909,0,0,1050151
20,88,1010.35068556666,1,0,1501734.61677035,1501735.66379295,1,5,4,0,1,7,5,22181929,14113431,70253879,5091210,0,0,21111809,0,0,0,-1070120,0,0,1191200,10911919,1000131,0,0,0,0,1010181,0,0,0,0,10610709,31000519,4071081,0,20500509,4071061,0,0,1010160,4081050,0,0,0,0,0
20,89,851.04806558229,0,0,1501737.80493619,1501738.8519507,1,5,4,1,0,34,0,3010150,1030130,5261222,12361182,0,0,0,0,0,0,0,3010150,0,0,0,0,0,0,1030130,0,0,0,1120080,2050011,0,0,0,0,0,2091131,0,0,4160000,0,0,0,0,-4180081,4021101,0
20,90,823.092970298603,0,0,1501740.80483418,1501741.85185523,1,5,4,1,0,11,10,125002856,73313532,60903399,75373279,31600019,0,0,0,0,30800009,31601319,0,31001509,0,-1090121,4020091,0,31310619,4111171,0,30711419,2070111,0,4080081,0,0,0,0,31401709,4110100,21311509,0,32000609,2101010,1060041,0,0,0,0,40211619
20,91,893.490396440029,0,0,1501743.81651043,1501744.86353649,1,5,4,1,0,32,20,159018265,161505984,112806197,122823758,30801119,0,10901909,41101219,41901519,0,3011180,0,31301319,21310919,11511009,4060000,0,21410519,0,30500809,31712009,41000719,1050081,11811919,11201019,31600909,0,3001091,41200319,10900809,2040050,31811409,3131000,0,0,-1160091,21900509,31400309,31310419,2110021
20,92,754.139917902648,1,0,1501746.94583806,1501747.99285835,1,5,4,1,1,29,20,154125665,181197284,62887199,105783166,4070070,0,20800219,21510419,21510209,20300319,21701919,41211319,3021191,10100019,31311209,31311319,41900409,0,41011519,10111409,4150091,11301309,3081171,0,3130001,11101819,4070180,10402009,0,1100110,30001909,0,-2170000,0,0,31400319,30300319,0,10100919,31811609
20,93,848.656303016469,1,0,1501749.76928765,1501750.81631949,1,5,4,0,1,14,0,4060160,5111231,13482252,4030160,0,4060160,0,0,0,0,0,0,0,0,0,1080031,0,-4031200,0,0,0,0,0,0,4081070,0,3011001,2200041,0,0,4190140,0,0,0,0,0,0,0,0,4030160
20,94,1247.83772206865,1,0,1501752.78096891,1501753.82798996,1,5,4,1,1,1,10,34176051,104813266,94516156,18863991,-4071051,3121000,0,3091000,0,1001010,1091071,0,21800919,41501219,0,20500609,0,0,0,30801319,0,12010119,0,40611909,0,21901419,10702009,21300819,0,0,0,11701609,0,0,0,0,3041061,2071171,2050150,0
20,95,840.41351871565,0,0,1501756.20440133,1501757.25142623,1,5,4,1,0,15,20,203076765,121905614,116886377,79294076,41900619,30900819,2011160,3060080,11400819,40001009,40401809,31300319,2100131,11301319,31911109,31900509,0,0,-2171140,22010709,11710119,10900709,40700709,11401519,1181020,0,0,2100101,30201519,0,31301509,0,20011109,21600119,2110050,0,0,20800909,10611819,4160070
20,96,1602.04915632494,1,0,1501759.13373366,1501760.18075741,1,5,4,0,1,18,20,143325866,130405498,205238403,138865148,1140160,3071050,4191091,11100919,21010309,31801019,40301309,0,30710009,31710919,0,20500109,4101131,30001109,2161010,0,40910109,-1021111,20001909,31001319,0,30601119,40611709,41310309,0,30601019,11111019,1160091,0,0,41411709,30710819,30811409,0,31610009,3161111
20,97,2544.89323263988,0,0,1501766.01589403,1501767.06291662,1,5,5,0,0,5,20,148825905,176365084,78323509,120819306,0,2151050,20710609,20610119,-1141081,30810209,20500309,41701519,11201009,0,40001309,30310109,40801019,20900809,11401109,2050110,30900619,0,1161040,0,2090050,0,41600919,0,2071191,0,31400309,40211019,10910619,21811609,11601019,11212019,0,20001719,4021161,1050141
20,98,1834.44662392139,1,0,1501770.74517909,1501771.79221285,1,5,5,1,1,1,10,34176051,104813266,94516156,18863991,-4071051,3121000,0,3091000,0,1001010,1091071,0,21800919,41501219,0,20500609,0,0,0,30801319,0,12010119,0,40611909,0,21901419,10702009,21300819,0,0,0,11701609,0,0,0,0,3041061,2071171,2050150,0
20,99,532.21146366559,1,0,1501774.72153401,1501775.76856431,1,5,5,1,1,8,0,4161090,3101150,0,8504434,0,0,0,0,0,0,0,-1130070,3031020,0,0,0,0,0,2080120,0,0,1021030,0,0,0,0,0,0,0,0,0,0,3021181,0,0,0,1191161,0,1161001,3131091
20,100,1184.76340826601,1,0,1501777.40381649,1501778.45083871,1,5,5,1,1,24,5,55002159,5151351,37600802,67423029,21611509,0,0,0,31200619,0,2190031,0,0,0,3110200,0,0,0,0,0,0,2041151,2020061,0,0,0,0,-1100111,0,3070011,31410619,0,1111041,4090070,41910009,20311909,0,0,0,0
20,101,861.81426839903,0,0,1501780.80372048,1501781.85073962,1,5,5,1,0,28,10,70904907,61563578,125515648,24251800,0,12000809,2181150,0,0,4011030,21711509,0,31000409,0,10610709,0,30100419,4090140,2160091,4101110,0,10501109,0,1080011,40311509,0,0,40911519,0,3101100,40111509,-3041191,0,0,0,0,0,0,0,21210609
20,102,2245.37320178933,0,0,1501783.92130643,1501784.96831555,1,5,5,1,0,11,10,125002856,73313532,60903399,75373279,31600019,0,0,0,0,30800009,31601319,0,31001509,0,-1090121,4020091,0,31310619,4111171,0,30711419,2070111,0,4080081,0,0,0,0,31401709,4110100,21311509,0,32000609,2101010,1060041,0,0,0,0,40211619
20,103,695.771367056295,0,0,1501788.28590873,1501789.33289052,1,5,5,1,0,32,20,159018265,161505984,112806197,122823758,30801119,0,10901909,41101219,41901519,0,3011180,0,31301319,21310919,11511009,4060000,0,21410519,0,30500809,31712009,41000719,1050081,11811919,11201019,31600909,0,3001091,41200319,10900809,2040050,31811409,3131000,0,0,-1160091,21900509,31400309,31310419,2110021
20,104,705.681802006438,0,0,1501791.19166335,1501792.23874831,1,5,5,0,0,13,5,30333060,4191130,70675607,28852421,3080160,20001709,0,4050071,0,0,3201120,0,0,0,0,0,-4191130,0,0,0,0,0,21012009,10601119,0,0,3141000,4011160,0,31910319,0,4011161,20711209,0,0,0,0,4130051,0,0
20,105,649.991039419547,0,0,1501794.09746456,1501795.14449293,1,5,5,0,0,33,5,46402580,9221291,5261192,66413578,30300319,3001081,0,0,0,0,1191161,11910019,0,0,0,3051051,0,3080080,0,0,0,3090160,0,0,0,0,4070071,0,1191121,0,0,10301809,31710019,0,0,21401609,-3000141,0,0,0
20,106,918.75461419113,1,0,1501796.8268347,1501797.87383073,1,5,5,0,1,10,20,108085376,117766375,150764446,166727346,10200309,1031140,31211309,10200819,0,41001519,0,10410119,4030161,-3050000,21811819,31300719,0,30901709,0,10701809,20000319,0,41611009,4160050,0,3070011,10410919,30000419,40102019,21410019,0,31901309,3191100,20401809,41111909,22010109,3110060,0,3201041,41800009
20,107,1357.7275229618,0,0,1501799.8737753,1501800.9208002,1,5,5,1,0,6,5,26121360,73405538,41312528,7312252,0,0,1100081,0,22010119,-3011160,0,0,0,21611509,3050060,0,0,4071110,0,0,3171140,41501719,0,0,0,20412019,0,20900509,0,0,0,1201151,4081030,0,0,0,0,2030071,0,0
20,108,1130.16516529024,1,0,1501803.45019159,1501804.49717222,1,5,5,1,1,30,5,26232980,67452298,17691349,16102999,3040170,0,0,0,22001719,0,1191091,0,0,31711019,0,0,0,0,31410019,0,3151130,1180130,11501209,0,0,2010050,0,4180090,0,0,0,10810719,0,-2111170,0,0,0,0,0,3181110
20,109,843.006230890751,1,0,1501806.83828189,1501807.88532066,1,5,5,1,1,29,20,154125665,181197284,62887199,105783166,4070070,0,20800219,21510419,21510209,20300319,21701919,41211319,3021191,10100019,31311209,31311319,41900409,0,41011519,10111409,4150091,11301309,3081171,0,3130001,11101819,4070180,10402009,0,1100110,30001909,0,-2170000,0,0,31400319,30300319,0,10100919,31811609
20,110,894.291500095278,1,0,1501809.84997316,1501810.8969973,1,5,5,0,1,7,10,59735589,34811319,63424980,127292587,40411909,0,4061051,0,0,11201609,-4061020,0,0,0,0,0,21900709,2110201,0,0,0,10800409,40001319,0,0,0,4021000,1051141,11000309,4181181,3170030,0,0,0,21910019,2060031,30510709,30801009,0,42010819
20,111,1537.48042415828,1,0,1501812.94400719,1501813.99102593,1,5,5,0,1,19,10,57573071,28492600,57583180,86227365,1180071,0,41311619,10810119,0,2161161,0,2110101,0,0,3021111,0,0,0,21400419,4071070,0,0,-1071191,0,1010161,4080110,0,30011009,0,0,21410709,21111009,21200919,21801719,0,0,10811709,11302009,0,0
20,112,820.750867947936,0,0,1501816.66153746,1501817.70862666,1,5,5,0,0,27,0,8321172,5271321,3251091,0,0,3100011,0,1140131,0,4081030,0,0,0,1080070,0,0,3181050,0,0,1010201,0,0,0,0,0,0,0,1111010,0,0,-2140081,0,0,0,0,0,0,0,0,0
20,113,687.996695516631,0,0,1501819.56734983,1501820.61437359,1,5,5,1,0,34,0,3010150,1030130,5261222,12361182,0,0,0,0,0,0,0,3010150,0,0,0,0,0,0,1030130,0,0,0,1120080,2050011,0,0,0,0,0,2091131,0,0,4160000,0,0,0,0,-4180081,4021101,0
20,114,548.021425260231,1,0,1501822.36727369,1501823.41429783,1,5,5,1,1,17,0,4100141,11302621,3091130,6170271,0,0,0,0,0,0,4100141,0,0,3011200,0,0,0,1170150,0,4111160,-3010111,0,0,0,3091130,0,0,0,0,0,0,0,0,0,2100071,0,0,4070200,0,0
20,115,804.161360021681,1,0,1501825.12013722,1501826.16716328,1,5,5,0,1,18,5,0,101244418,44270250,52145379,0,0,0,0,0,0,0,0,0,31111909,3100060,40910619,20000709,0,4020030,0,0,-2101091,0,0,0,40110119,0,0,0,4160131,0,0,3141060,4091170,0,0,2091200,0,2020130,40801819
20,116,684.632364893332,0,0,1501827.99064636,1501829.03747048,1,5,5,0,0,26,0,0,9362352,2001141,10382452,0,0,0,0,0,0,0,0,0,2090150,2190031,0,2051091,0,3031080,0,0,0,0,0,0,0,0,0,0,-2001141,0,0,0,3191131,3160150,0,0,4031171,0,0
20,117,591.16169041954,1,0,1501830.87295533,1501831.91995406,1,5,5,1,1,15,20,203076765,121905614,116886377,79294076,41900619,30900819,2011160,3060080,11400819,40001009,40401809,31300319,2100131,11301319,31911109,31900509,0,0,-2171140,22010709,11710119,10900709,40700709,11401519,1181020,0,0,2100101,30201519,0,31301509,0,20011109,21600119,2110050,0,0,20800909,10611819,4160070
20,118,959.96468514204,0,0,1501833.60225886,1501834.64927915,1,5,5,0,0,35,0,2051040,7612342,3160120,5220251,0,0,0,0,2051040,0,0,0,0,1171050,0,0,1191031,0,3160090,0,0,2090171,0,0,0,3160120,0,0,0,0,0,0,0,0,0,0,0,1100141,-4120110,0
20,119,911.434966605157,0,0,1501836.62569644,1501837.67272366,1,5,5,0,0,14,10,4612232,172123896,32422028,97582679,0,1081020,0,0,1191031,1150091,0,1190090,0,0,41600209,41110019,11610809,-3000120,41710319,32001319,1091101,0,0,0,0,0,20611709,11810319,0,0,0,30300519,0,0,0,30200209,2141051,31900719,3040181,0
20,120,641.11345470883,1,0,1501839.75502408,1501840.802064,1,5,5,0,1,21,20,168137332,126839013,94354079,47223931,30100209,40500119,10611909,21811819,10600319,21310619,0,21502019,11700319,30201619,0,0,11600609,10802019,21910119,20611309,21511419,10201919,3190191,40300209,-4171100,1160011,10210309,2091080,0,3030060,30201119,20011519,22011009,0,1051111,3110121,1040171,0,0,0
20,121,867.982883006334,1,0,1501847.89596599,1501848.9429959,1,5,6,0,1,35,5,125275128,27501430,22971130,10534343,40501309,0,0,0,0,3061091,41711719,40001009,0,20401219,0,3000011,4100200,0,0,0,0,0,0,0,0,0,0,2061121,20910009,0,0,0,0,0,3071051,2171041,0,0,-3151190,2141061
20,122,1227.84977871925,0,0,1501850.99000656,1501852.03702915,1,5,6,1,0,30,5,26232980,67452298,17691349,16102999,3040170,0,0,0,22001719,0,1191091,0,0,31711019,0,0,0,0,31410019,0,3151130,1180130,11501209,0,0,2010050,0,4180090,0,0,0,10810719,0,-2111170,0,0,0,0,0,3181110
20,123,1028.26715353876,1,0,1501854.35462503,1501855.40164724,1,5,6,1,1,24,5,55002159,5151351,37600802,67423029,21611509,0,0,0,31200619,0,2190031,0,0,0,3110200,0,0,0,0,0,0,2041151,2020061,0,0,0,0,-1100111,0,3070011,31410619,0,1111041,4090070,41910009,20311909,0,0,0,0
20,124,1182.05905752257,0,0,1501857.54274967,1501858.58978959,1,5,6,1,0,6,5,26121360,73405538,41312528,7312252,0,0,1100081,0,22010119,-3011160,0,0,0,21611509,3050060,0,0,4071110,0,0,3171140,41501719,0,0,0,20412019,0,20900509,0,0,0,1201151,4081030,0,0,0,0,2030071,0,0
20,125,603.169007692486,1,0,1501860.94267176,1501861.98969589,1,5,6,1,1,15,20,203076765,121905614,116886377,79294076,41900619,30900819,2011160,3060080,11400819,40001009,40401809,31300319,2100131,11301319,31911109,31900509,0,0,-2171140,22010709,11710119,10900709,40700709,11401519,1181020,0,0,2100101,30201519,0,31301509,0,20011109,21600119,2110050,0,0,20800909,10611819,4160070
20,126,1138.18813650869,1,0,1501863.69553529,1501864.74256366,1,5,6,1,1,29,20,154125665,181197284,62887199,105783166,4070070,0,20800219,21510419,21510209,20300319,21701919,41211319,3021191,10100019,31311209,31311319,41900409,0,41011519,10111409,4150091,11301309,3081171,0,3130001,11101819,4070180,10402009,0,1100110,30001909,0,-2170000,0,0,31400319,30300319,0,10100919,31811609
20,127,1587.9969263915,1,0,1501867.08368065,1501868.13070017,1,5,6,0,1,33,20,129954756,136506197,161455857,156215155,31200309,21000509,40301319,21200409,2130080,0,3011021,0,11111109,0,2080021,4061200,32011719,0,41211419,41500609,11610219,4031010,41500309,0,40800219,0,4021191,20311119,21401709,2120001,31301309,41310319,0,0,21100819,20401909,-1080071,21300519,40711209,10310309
20,128,650.06803185679,0,0,1501870.88357217,1501871.9305963,1,5,6,1,0,34,0,3010150,1030130,5261222,12361182,0,0,0,0,0,0,0,3010150,0,0,0,0,0,0,1030130,0,0,0,1120080,2050011,0,0,0,0,0,2091131,0,0,4160000,0,0,0,0,-4180081,4021101,0
20,129,723.090121522546,1,0,1501873.73054941,1501874.77757702,1,5,6,1,1,32,20,159018265,161505984,112806197,122823758,30801119,0,10901909,41101219,41901519,0,3011180,0,31301319,21310919,11511009,4060000,0,21410519,0,30500809,31712009,41000719,1050081,11811919,11201019,31600909,0,3001091,41200319,10900809,2040050,31811409,3131000,0,0,-1160091,21900509,31400309,31310419,2110021
20,130,1170.73466093279,0,0,1501876.7069463,1501877.75397044,1,5,6,0,0,5,20,74027349,196996315,141795917,177576344,42012019,11811419,3000000,10901619,-1010101,1111121,0,4181070,0,30410409,41402019,20300609,0,2161031,40910809,0,40001219,21810219,10700219,0,3000181,11500719,41401319,2091051,31701909,41400519,0,41810809,30011909,30211309,0,1120090,22010509,0,10900309,41511409
20,131,800.615484826267,1,0,1501879.95391647,1501881.00098795,1,5,6,0,1,18,10,29113350,39565211,129426105,92401747,1200000,0,0,0,20702009,4121170,0,0,3090171,0,4101021,2200151,1061110,0,0,31111819,0,-1091110,41701719,11411419,30511009,0,0,30810509,11901409,3090040,0,0,40901619,0,0,0,0,20700009,30800119,0
20,132,806.83067929931,0,0,1501882.85970882,1501883.90673065,1,5,6,1,0,11,10,125002856,73313532,60903399,75373279,31600019,0,0,0,0,30800009,31601319,0,31001509,0,-1090121,4020091,0,31310619,4111171,0,30711419,2070111,0,4080081,0,0,0,0,31401709,4110100,21311509,0,32000609,2101010,1060041,0,0,0,0,40211619
20,133,1027.48298808001,1,0,1501885.74197698,1501886.78900381,1,5,6,0,1,26,10,139825296,28862861,74523010,45792020,4200011,11800609,0,0,41511519,20111319,0,41001419,21200419,21601509,4010151,0,1131120,0,2120081,0,0,0,40910209,0,0,1070151,0,30401619,0,-2141031,0,0,0,31200209,0,2140051,1151041,0,11300719,0
20,134,742.188034811988,0,0,1501889.01248443,1501890.05950549,1,5,6,1,0,17,0,4100141,11302621,3091130,6170271,0,0,0,0,0,0,4100141,0,0,3011200,0,0,0,1170150,0,4111160,-3010111,0,0,0,3091130,0,0,0,0,0,0,0,0,0,2100071,0,0,4070200,0,0
20,135,647.878758609295,0,0,1501891.89476645,1501892.94178827,1,5,6,1,0,28,10,70904907,61563578,125515648,24251800,0,12000809,2181150,0,0,4011030,21711509,0,31000409,0,10610709,0,30100419,4090140,2160091,4101110,0,10501109,0,1080011,40311509,0,0,40911519,0,3101100,40111509,-3041191,0,0,0,0,0,0,0,21210609
20,136,821.024189935997,1,0,1501894.65938014,1501895.70640543,1,5,6,0,1,27,0,4140231,10441361,5261361,2020181,0,0,0,0,0,0,0,1020040,3120191,0,4170010,0,3160170,3111181,0,0,0,0,0,0,0,0,0,1081201,0,0,-4180160,0,0,2020181,0,0,0,0,0,0
20,137,1166.28759191372,0,0,1501897.7181248,1501898.76514432,1,5,6,1,0,8,0,4161090,3101150,0,8504434,0,0,0,0,0,0,0,-1130070,3031020,0,0,0,0,0,2080120,0,0,1021030,0,0,0,0,0,0,0,0,0,0,3021181,0,0,0,1191161,0,1161001,3131091
20,138,657.27681061253,1,0,1501901.10626246,1501902.15328583,1,5,6,0,1,13,0,0,7432252,1180041,4311281,0,0,0,0,0,0,0,0,0,0,0,0,-2170021,3071021,1150040,0,1041170,0,0,0,0,0,1180041,0,0,0,0,0,0,1180160,2091020,0,1040101,0,0,0
20,139,553.422427503392,1,0,1501903.9179461,1501904.96496485,1,5,6,0,1,19,5,17881980,24440980,89584730,45781009,0,0,4031061,0,0,10810709,2020070,0,1020140,0,0,0,0,0,21410919,0,3030061,0,-1090091,0,0,1100121,0,4181190,41501919,0,41711409,0,0,4070190,0,0,0,41710819,0,0
20,140,847.342046210542,0,0,1501906.70610285,1501907.75312853,1,5,6,0,0,21,10,57593520,36212850,67623588,78003697,0,0,3201061,32010019,4131110,11911019,3180171,3160140,0,4201031,1001200,0,0,0,0,31010619,0,0,0,0,-4110161,11610109,0,31901309,0,20002009,0,2080031,0,10910419,31500409,0,0,0,22011219,11501619
20,141,808.399780420586,0,0,1501909.741311,1501910.81187357,1,5,6,0,0,14,20,67746128,161226596,119122966,174070634,30001419,20301009,4141171,0,0,0,0,11111519,2191010,41800909,20610319,11701409,20810819,-1060181,3130141,0,20611809,41501009,11600009,0,2010100,31211509,42011009,0,31200319,1090020,0,11700509,31311909,11610509,1161081,22010119,41701409,10901919,2161160,41512019
20,142,1162.55732020363,0,0,1501912.71770442,1501913.76473356,1,5,6,1,0,1,10,34176051,104813266,94516156,18863991,-4071051,3121000,0,3091000,0,1001010,1091071,0,21800919,41501219,0,20500609,0,0,0,30801319,0,12010119,0,40611909,0,21901419,10702009,21300819,0,0,0,11701609,0,0,0,0,3041061,2071171,2050150,0
20,143,517.532517202199,0,0,1501915.96467497,1501917.01169487,1,5,6,0,0,7,0,5321353,4080030,6231242,3042190,0,1060161,1200001,0,0,0,-3061191,0,0,0,0,0,0,0,0,0,0,4080030,0,0,0,0,0,4120081,2111161,0,0,0,0,2031000,0,1011190,0,0,0,0
20,144,827.493074117228,1,0,1501918.70576909,1501919.75279631,1,5,6,0,1,10,5,97064317,46371420,15483352,35872900,0,0,41911819,0,0,20911319,4041170,0,30200009,-3111071,40210319,0,0,0,0,0,0,3050030,0,3091110,0,0,0,0,4100170,4201031,4091041,0,31811809,0,0,0,0,0,4061091,0
20,145,1108.09265845455,0,0,1501925.43499564,1501926.48202401,1,5,7,1,0,34,0,3010150,1030130,5261222,12361182,0,0,0,0,0,0,0,3010150,0,0,0,0,0,0,1030130,0,0,0,1120080,2050011,0,0,0,0,0,2091131,0,0,4160000,0,0,0,0,-4180081,4021101,0
20,146,1088.05043599568,1,0,1501928.72902651,1501929.77605142,1,5,7,0,1,13,5,24601310,10244692,56123288,37054039,0,0,20401109,0,0,4200201,0,0,0,0,2071190,0,-4091201,0,0,0,2071131,2011170,0,0,0,41511209,0,0,10511019,0,4101060,0,0,3031101,0,0,0,21202019,1120200,11700719
20,147,1146.73619461246,1,0,1501932.01129028,1501933.05835753,1,5,7,0,1,10,0,2150171,12434362,0,6121081,1150060,1000111,0,0,0,0,0,0,0,-1071010,4121031,3091161,0,0,4151160,0,0,0,0,0,0,0,0,0,0,0,0,0,0,0,3101080,0,0,3020001,0,0
20,148,1184.10551012494,1,0,1501935.37589605,1501936.42292673,1,5,7,1,1,32,20,159018265,161505984,112806197,122823758,30801119,0,10901909,41101219,41901519,0,3011180,0,31301319,21310919,11511009,4060000,0,21410519,0,30500809,31712009,41000719,1050081,11811919,11201019,31600909,0,3001091,41200319,10900809,2040050,31811409,3131000,0,0,-1160091,21900509,31400309,31310419,2110021
20,149,839.352566516027,1,0,1501938.68168671,1501939.72871277,1,5,7,0,1,21,0,4051101,9313502,2291281,2100100,0,0,0,0,0,0,0,0,4051101,1031060,0,0,4131141,0,0,3101100,0,1050201,0,0,-1180191,0,1111090,0,0,0,0,0,0,2100100,0,0,0,0,0,0
20,150,1661.41090658493,0,0,1501941.77571958,1501942.82274218,1,5,7,1,0,1,10,34176051,104813266,94516156,18863991,-4071051,3121000,0,3091000,0,1001010,1091071,0,21800919,41501219,0,20500609,0,0,0,30801319,0,12010119,0,40611909,0,21901419,10702009,21300819,0,0,0,11701609,0,0,0,0,3041061,2071171,2050150,0
20,151,879.901659442112,0,0,1501945.6462395,1501946.69322283,1,5,7,1,0,28,10,70904907,61563578,125515648,24251800,0,12000809,2181150,0,0,4011030,21711509,0,31000409,0,10610709,0,30100419,4090140,2160091,4101110,0,10501109,0,1080011,40311509,0,0,40911519,0,3101100,40111509,-3041191,0,0,0,0,0,0,0,21210609
20,152,911.699434509501,0,0,1501948.5873628,1501949.63431918,1,5,7,0,0,26,20,160316885,103577039,178646665,132845865,4071010,0,0,30811719,31011719,20810709,41911419,31700309,0,10900419,2071110,10910909,0,3141131,31910409,2110091,2131161,40401809,31500019,10211419,30510309,1110141,40400919,41310409,1111030,-2191010,20301409,0,20310609,0,0,21211619,40410009,10612009,40301619,0
20,153,643.505987245589,1,0,1501951.728374,1501952.77539775,1,5,7,1,1,8,0,4161090,3101150,0,8504434,0,0,0,0,0,0,0,-1130070,3031020,0,0,0,0,0,2080120,0,0,1021030,0,0,0,0,0,0,0,0,0,0,3021181,0,0,0,1191161,0,1161001,3131091
20,154,1206.01017377339,0,0,1501954.55183514,1501955.59885773,1,5,7,0,0,14,10,85953579,56676067,94523737,41143760,0,40911919,0,2140181,0,40710319,0,2191160,0,21601419,0,0,11101509,-2001190,0,1161040,20810909,0,0,0,41810709,0,41611919,0,0,0,11101109,3080101,20710819,0,0,1051191,0,3120130,10110419,3071100
20,155,743.158136494458,1,0,1501957.95173951,1501958.99876096,1,5,7,0,1,33,20,188937425,118036905,97335126,162546406,0,2201141,20900219,31800619,41911409,20300309,0,41511919,30311809,1151040,11011219,10011409,3041090,31210319,0,21110909,0,40500919,0,0,21500419,0,30710809,1121010,31711119,2180160,10111609,3151121,0,30600909,21210909,40711909,-1030090,3020050,41810409,21011009
20,156,1138.15272017382,0,0,1501960.77519064,1501961.8457382,1,5,7,1,0,6,5,26121360,73405538,41312528,7312252,0,0,1100081,0,22010119,-3011160,0,0,0,21611509,3050060,0,0,4071110,0,0,3171140,41501719,0,0,0,20412019,0,20900509,0,0,0,1201151,4081030,0,0,0,0,2030071,0,0
20,157,843.799250433221,0,0,1501964.12805163,1501965.17506769,1,5,7,1,0,11,10,125002856,73313532,60903399,75373279,31600019,0,0,0,0,30800009,31601319,0,31001509,0,-1090121,4020091,0,31310619,4111171,0,30711419,2070111,0,4080081,0,0,0,0,31401709,4110100,21311509,0,32000609,2101010,1060041,0,0,0,0,40211619
20,158,1007.32142780907,1,0,1501967.05736741,1501968.10439694,1,5,7,0,1,19,5,25514718,24371980,12573322,35223709,0,11701609,0,2071040,0,0,0,10612019,1130050,20201909,0,0,0,0,4170071,0,0,0,-1201110,4171001,0,4020171,3181040,0,0,0,0,3200091,11712009,0,0,20311609,0,0,0,0
20,159,1117.91878682561,1,0,1501970.28080838,1501971.32782751,1,5,7,0,1,18,10,84603577,45343851,58284878,78566689,0,0,2090130,20300519,0,20711119,0,0,41501809,0,0,0,40101709,0,0,1201021,0,-4041121,0,0,0,1021181,21100219,10601209,4151160,21411109,0,2061131,30002019,1161021,0,0,12011919,3130180,30200419,0
20,160,594.873099122196,0,0,1501973.52777777,1501974.57480152,1,5,7,1,0,17,0,4100141,11302621,3091130,6170271,0,0,0,0,0,0,4100141,0,0,3011200,0,0,0,1170150,0,4111160,-3010111,0,0,0,3091130,0,0,0,0,0,0,0,0,0,2100071,0,0,4070200,0,0
20,161,536.290894960985,0,0,1501976.24534654,1501977.29237068,1,5,7,1,0,15,20,203076765,121905614,116886377,79294076,41900619,30900819,2011160,3060080,11400819,40001009,40401809,31300319,2100131,11301319,31911109,31900509,0,0,-2171140,22010709,11710119,10900709,40700709,11401519,1181020,0,0,2100101,30201519,0,31301509,0,20011109,21600119,2110050,0,0,20800909,10611819,4160070
20,162,1362.14071558788,0,0,1501978.88056408,1501979.92759438,1,5,7,0,0,5,0,6251381,8350113,0,6210261,0,2050170,0,0,-2111070,0,2090141,0,0,0,0,3160041,0,1140011,0,0,4050061,0,0,0,0,0,0,0,0,0,0,0,0,2120140,0,0,0,0,4090121,0
20,163,881.140848621726,1,0,1501982.48046684,1501983.52749252,1,5,7,0,1,27,5,64284908,4061111,42283608,50222460,40811519,0,1151060,0,20201319,2121010,0,0,0,0,0,0,0,0,0,0,4061111,0,0,0,20601519,20600919,0,0,0,0,-1081170,3130001,2170060,1161200,0,0,40700119,0,3061080,0
20,164,1337.76922198012,1,0,1501985.60983682,1501986.65683055,1,5,7,1,1,29,20,154125665,181197284,62887199,105783166,4070070,0,20800219,21510419,21510209,20300319,21701919,41211319,3021191,10100019,31311209,31311319,41900409,0,41011519,10111409,4150091,11301309,3081171,0,3130001,11101819,4070180,10402009,0,1100110,30001909,0,-2170000,0,0,31400319,30300319,0,10100919,31811609
20,165,1045.68740702234,0,0,1501989.05682654,1501990.10378985,1,5,7,1,0,30,5,26232980,67452298,17691349,16102999,3040170,0,0,0,22001719,0,1191091,0,0,31711019,0,0,0,0,31410019,0,3151130,1180130,11501209,0,0,2010050,0,4180090,0,0,0,10810719,0,-2111170,0,0,0,0,0,3181110
20,166,1167.75159840472,1,0,1501992.25667171,1501993.30368661,1,5,7,1,1,24,5,55002159,5151351,37600802,67423029,21611509,0,0,0,31200619,0,2190031,0,0,0,3110200,0,0,0,0,0,0,2041151,2020061,0,0,0,0,-1100111,0,3070011,31410619,0,1111041,4090070,41910009,20311909,0,0,0,0
20,167,1596.58771520481,1,0,1501995.64490599,1501996.69183043,1,5,7,0,1,35,10,90433758,13182850,88574388,100793688,4120170,0,0,4201041,40910309,0,0,10100619,31101619,0,3181131,0,10001719,0,0,0,0,0,11301509,4160080,0,0,40911409,0,31111309,1090081,0,0,1120010,20601109,0,0,41111219,31601319,-4200021,2160010
20,168,1234.88917504437,0,0,1501999.44471552,1502000.49173041,1,5,7,0,0,7,20,211847993,136736425,75185258,130816896,0,41000609,31201819,42001009,21910309,21011319,-2000100,20711109,32011719,32010919,0,11600009,0,41702019,1200050,40111709,0,10111719,11712009,4000061,3041090,11510619,41800409,0,1091070,0,2030000,31901009,40711019,21811109,0,2161100,0,1021031,11311619,21900009
20,169,616.273079067469,1,0,1502006.11510232,1502007.16212684,1,5,8,1,1,8,0,4161090,3101150,0,8504434,0,0,0,0,0,0,0,-1130070,3031020,0,0,0,0,0,2080120,0,0,1021030,0,0,0,0,0,0,0,0,0,0,3021181,0,0,0,1191161,0,1161001,3131091
20,170,702.416178071871,1,0,1502008.8679851,1502009.91499999,1,5,8,0,1,27,10,40632899,45832579,190468103,41153312,3111190,3010090,0,0,0,31511509,3000110,0,0,0,41711509,0,0,0,0,0,0,4121070,21201319,21100819,30911519,21111019,30001219,40200619,0,21900419,-4041170,2201021,0,0,4050001,30711109,0,0,4191181,0
20,171,875.019199447706,0,0,1502011.75024479,1502012.7972643,1,5,8,1,0,17,0,4100141,11302621,3091130,6170271,0,0,0,0,0,0,4100141,0,0,3011200,0,0,0,1170150,0,4111160,-3010111,0,0,0,3091130,0,0,0,0,0,0,0,0,0,2100071,0,0,4070200,0,0
20,172,723.992085084319,1,0,1502014.7736916,1502015.84423416,1,5,8,1,1,28,10,70904907,61563578,125515648,24251800,0,12000809,2181150,0,0,4011030,21711509,0,31000409,0,10610709,0,30100419,4090140,2160091,4101110,0,10501109,0,1080011,40311509,0,0,40911519,0,3101100,40111509,-3041191,0,0,0,0,0,0,0,21210609
20,173,838.618060806766,0,0,1502017.62071774,1502018.66769607,1,5,8,0,0,13,0,6140151,11302472,5061151,0,0,0,0,4100141,0,0,0,2040010,0,4031040,0,0,-2170191,0,2060091,3041150,0,0,0,0,0,0,0,0,4011040,1050111,0,0,0,0,0,0,0,0,0,0
20,174,816.083216341212,0,0,1502020.64411221,1502021.69113904,1,5,8,0,0,26,20,114877365,111857248,130297606,106515096,4150050,22000209,4201050,31801709,10401919,11610519,0,30711909,0,31710609,0,0,10301019,2021161,4181050,32011719,1131171,30500519,30710719,11511509,30510519,1001131,0,11311109,32001819,-3050081,10200719,21510419,0,20601809,0,10500409,2191131,0,20411119,31300209
20,175,1063.77479783259,1,0,1502023.66755594,1502024.714582,1,5,8,0,1,35,10,63560798,53752549,140594107,41434030,0,0,3160180,40100109,0,0,0,20300509,0,0,0,0,40401819,0,0,10210609,3140121,0,31100419,41110109,21301719,40810709,4161070,0,2110081,0,0,11201119,0,21800509,1120081,0,2041150,4110140,-1161031,0
20,176,1123.37214383297,0,0,1502026.79688435,1502027.84390925,1,5,8,1,0,24,5,55002159,5151351,37600802,67423029,21611509,0,0,0,31200619,0,2190031,0,0,0,3110200,0,0,0,0,0,0,2041151,2020061,0,0,0,0,-1100111,0,3070011,31410619,0,1111041,4090070,41910009,20311909,0,0,0,0
20,177,589.381630998105,0,0,1502030.14973187,1502031.19675292,1,5,8,0,0,21,5,21234060,36022460,6232110,75764568,11910709,4011101,0,0,4171150,0,0,1141100,0,2160151,0,0,3051000,30811309,0,0,0,0,0,0,-4201010,0,0,2031100,0,0,0,0,1151021,11501809,0,0,0,41400319,0,21711419
20,178,727.563367923722,1,0,1502032.90259655,1502033.94962146,1,5,8,1,1,34,0,3010150,1030130,5261222,12361182,0,0,0,0,0,0,0,3010150,0,0,0,0,0,0,1030130,0,0,0,1120080,2050011,0,0,0,0,0,2091131,0,0,4160000,0,0,0,0,-4180081,4021101,0
20,179,1502.63914745301,0,0,1502035.70251694,1502036.74954916,1,5,8,0,0,5,10,98994320,78575748,67544069,98273358,0,3070181,30101009,0,-1191081,30501309,3130121,0,31000619,0,0,0,30711709,2191130,0,4161100,41511809,0,0,0,0,20110909,0,0,40200919,3171191,4061050,0,0,31111619,41911409,4150011,0,0,0,21100319
20,180,1051.50262732059,0,0,1502039.39651917,1502040.44355293,1,5,8,0,0,18,0,3131070,5532321,6341281,1121051,2030050,0,0,0,0,0,0,1101020,0,3191160,0,0,0,0,0,1140010,0,-1201151,0,0,0,3191140,3150141,0,0,0,0,0,1121051,0,0,0,0,0,0,0
20,181,875.380677636713,1,0,1502042.5846827,1502043.63169875,1,5,8,1,1,30,5,26232980,67452298,17691349,16102999,3040170,0,0,0,22001719,0,1191091,0,0,31711019,0,0,0,0,31410019,0,3151130,1180130,11501209,0,0,2010050,0,4180090,0,0,0,10810719,0,-2111170,0,0,0,0,0,3181110
20,182,553.915947442874,0,0,1502045.60812528,1502046.65514673,1,5,8,1,0,15,20,203076765,121905614,116886377,79294076,41900619,30900819,2011160,3060080,11400819,40001009,40401809,31300319,2100131,11301319,31911109,31900509,0,0,-2171140,22010709,11710119,10900709,40700709,11401519,1181020,0,0,2100101,30201519,0,31301509,0,20011109,21600119,2110050,0,0,20800909,10611819,4160070
20,183,1147.91840966791,1,0,1502048.36103655,1502049.40800833,1,5,8,0,1,10,5,14241880,15603532,45141770,21311018,10101719,4140161,0,0,0,0,0,0,0,-4200101,4190080,3101160,0,0,0,1101020,0,3011171,0,0,1081011,0,11600709,30300009,0,2160041,0,0,0,10600709,0,0,10710309,0,0,0
20,184,821.909600170329,0,0,1502051.65505472,1502052.70203151,1,5,8,1,0,29,20,154125665,181197284,62887199,105783166,4070070,0,20800219,21510419,21510209,20300319,21701919,41211319,3021191,10100019,31311209,31311319,41900409,0,41011519,10111409,4150091,11301309,3081171,0,3130001,11101819,4070180,10402009,0,1100110,30001909,0,-2170000,0,0,31400319,30300319,0,10100919,31811609
20,185,934.918740065768,1,0,1502054.54904879,1502055.59613645,1,5,8,1,1,6,5,26121360,73405538,41312528,7312252,0,0,1100081,0,22010119,-3011160,0,0,0,21611509,3050060,0,0,4071110,0,0,3171140,41501719,0,0,0,20412019,0,20900509,0,0,0,1201151,4081030,0,0,0,0,2030071,0,0
20,186,709.548349957913,1,0,1502057.58426386,1502058.63128608,1,5,8,1,1,11,10,125002856,73313532,60903399,75373279,31600019,0,0,0,0,30800009,31601319,0,31001509,0,-1090121,4020091,0,31310619,4111171,0,30711419,2070111,0,4080081,0,0,0,0,31401709,4110100,21311509,0,32000609,2101010,1060041,0,0,0,0,40211619
20,187,1898.25544296764,0,0,1502060.36067084,1502061.4076815,1,5,8,0,0,19,20,142174347,196036493,59057019,161039586,40210609,3080011,20111109,2080111,0,3071070,31000519,21810509,20810409,0,31911609,40400519,41700509,30610709,10501519,20611519,0,20300109,-4161031,0,0,1170131,1201110,10111009,10711919,0,31701819,0,4171021,31311709,1020090,11901319,41011509,31112019,40511919,0
20,188,1146.94137871265,0,0,1502064.44297357,1502065.48991224,1,5,8,0,0,33,0,1051040,3312131,7191270,6241312,0,0,0,0,0,0,1051040,0,0,1181011,0,0,0,2131120,0,0,0,0,3160170,0,0,0,0,0,0,4031100,0,0,2070081,0,0,0,-3070100,0,0,1101131
20,189,1234.60276401602,1,0,1502067.6781058,1502068.72514841,1,5,8,0,1,14,5,53991829,16713761,44061910,36081050,11501219,0,1090191,0,0,0,0,0,41400419,0,0,11511419,1070161,-3091180,0,0,1041001,0,0,2020031,0,0,40901719,1140160,0,0,0,0,0,0,0,0,1180110,31800919,0,3100021
20,190,634.042106801644,1,0,1502070.9956574,1502072.04267384,1,5,8,0,1,7,20,129230126,134646404,165228735,82925439,42011619,21601819,0,1001011,41300919,0,-3011130,10001619,10302009,0,11100419,0,0,41310519,10501909,41611519,20110319,10011719,41400309,31211619,4030190,31110219,3151051,21201919,21811709,0,11311719,31711809,11900419,1030090,4071181,30900709,0,1171131,2140100,0
20,191,684.013119200245,1,0,1502073.84262887,1502074.8896534,1,5,8,1,1,1,10,34176051,104813266,94516156,18863991,-4071051,3121000,0,3091000,0,1001010,1091071,0,21800919,41501219,0,20500609,0,0,0,30801319,0,12010119,0,40611909,0,21901419,10702009,21300819,0,0,0,11701609,0,0,0,0,3041061,2071171,2050150,0
20,192,1069.02066059411,1,1,1502076.78372407,1502077.83074936,1,5,8,1,0,32,20,159018265,161505984,112806197,122823758,30801119,0,10901909,41101219,41901519,0,3011180,0,31301319,21310919,11511009,4060000,0,21410519,0,30500809,31712009,41000719,1050081,11811919,11201019,31600909,0,3001091,41200319,10900809,2040050,31811409,3131000,0,0,-1160091,21900509,31400309,31310419,2110021
20,193,939.303060527891,1,0,1502085.48936252,1502086.53639474,1,5,9,1,1,11,10,125002856,73313532,60903399,75373279,31600019,0,0,0,0,30800009,31601319,0,31001509,0,-1090121,4020091,0,31310619,4111171,0,30711419,2070111,0,4080081,0,0,0,0,31401709,4110100,21311509,0,32000609,2101010,1060041,0,0,0,0,40211619
20,194,650.131550151855,0,0,1502088.58340155,1502089.63042338,1,5,9,0,0,13,5,8150151,86704928,30421541,37522229,0,0,4010071,0,4140080,0,0,0,0,0,0,31100919,-2081071,31511019,0,0,22011919,0,21010419,0,0,4011080,0,0,2200041,3200001,0,0,0,0,3191030,31201019,0,0,0,3130180
20,195,639.884659554809,1,0,1502091.46567164,1502092.51269115,1,5,9,1,1,34,0,3010150,1030130,5261222,12361182,0,0,0,0,0,0,0,3010150,0,0,0,0,0,0,1030130,0,0,0,1120080,2050011,0,0,0,0,0,2091131,0,0,4160000,0,0,0,0,-4180081,4021101,0
20,196,830.157773802057,0,0,1502094.23029727,1502095.27732025,1,5,9,0,0,26,10,51301859,74923846,104852517,26913210,0,3190140,0,32010109,0,1130110,2170151,10600209,2201140,0,0,11801509,0,0,31211219,10611109,21300009,0,0,40900009,40000209,0,21911109,0,0,-2041190,0,2021040,0,0,0,0,0,1171001,2010050,21711119
20,197,2440.84829371423,0,0,1502097.31256496,1502098.35958448,1,5,9,1,0,24,5,55002159,5151351,37600802,67423029,21611509,0,0,0,31200619,0,2190031,0,0,0,3110200,0,0,0,0,0,0,2041151,2020061,0,0,0,0,-1100111,0,3070011,31410619,0,1111041,4090070,41910009,20311909,0,0,0,0
20,198,1370.20757235587,1,0,1502101.87714794,1502102.92417207,1,5,9,0,1,7,0,1171051,0,7193211,5212261,0,0,0,0,0,0,-1171051,0,0,0,0,0,0,0,0,0,0,0,0,0,1120011,0,1031120,0,2031040,3011040,0,0,3001140,0,0,0,0,0,1051020,1160101
20,199,1516.96046534926,0,0,1502105.35940547,1502106.40642114,1,5,9,1,0,32,20,159018265,161505984,112806197,122823758,30801119,0,10901909,41101219,41901519,0,3011180,0,31301319,21310919,11511009,4060000,0,21410519,0,30500809,31712009,41000719,1050081,11811919,11201019,31600909,0,3001091,41200319,10900809,2040050,31811409,3131000,0,0,-1160091,21900509,31400309,31310419,2110021
20,200,1522.98240945674,0,0,1502109.05341925,1502110.10043684,1,5,9,1,0,8,0,4161090,3101150,0,8504434,0,0,0,0,0,0,0,-1130070,3031020,0,0,0,0,0,2080120,0,0,1021030,0,0,0,0,0,0,0,0,0,0,3021181,0,0,0,1191161,0,1161001,3131091
20,201,1612.29104269296,1,0,1502112.77095723,1502113.81798136,1,5,9,1,1,1,10,34176051,104813266,94516156,18863991,-4071051,3121000,0,3091000,0,1001010,1091071,0,21800919,41501219,0,20500609,0,0,0,30801319,0,12010119,0,40611909,0,21901419,10702009,21300819,0,0,0,11701609,0,0,0,0,3041061,2071171,2050150,0
20,202,3501.37724541128,1,0,1502116.57085375,1502117.61787789,1,5,9,0,1,18,0,0,9421311,9162272,8221140,0,0,0,0,0,0,0,0,0,0,4121100,0,0,0,0,4170030,0,-1130181,3070071,0,0,0,0,4071030,2021171,0,0,0,0,0,4061120,0,4160020,0,0,0
20,203,1268.108996097,1,0,1502122.14716764,1502123.19419293,1,5,9,0,1,35,20,129886166,149206495,89143556,112277066,0,31501909,0,21811809,0,1190030,40410909,3071190,31900319,0,11601709,1080021,21510709,40910509,30510819,1181100,31200919,11210709,0,0,4070100,0,20710819,2061010,10800809,10300009,41200809,10801819,31200309,11210119,11901319,10502019,31600309,0,-1021161,4040011
20,204,673.372413497418,0,0,1502125.55883873,1502126.60586364,1,5,9,0,0,14,5,45434170,8490441,83911928,57621649,40212019,0,0,0,0,3031101,2191050,0,0,3190110,0,0,1130170,-1070020,0,0,3100141,0,0,0,0,0,0,41910619,0,0,42001309,3120100,2181111,0,0,0,11010319,0,0,41310119
20,205,1421.81851854548,0,0,1502128.38229294,1502129.42930206,1,5,9,1,0,30,5,26232980,67452298,17691349,16102999,3040170,0,0,0,22001719,0,1191091,0,0,31711019,0,0,0,0,31410019,0,3151130,1180130,11501209,0,0,2010050,0,4180090,0,0,0,10810719,0,-2111170,0,0,0,0,0,3181110
20,206,1310.22064574063,1,0,1502132.04101042,1502133.08803648,1,5,9,0,1,33,20,124576446,99707665,127975038,156076766,0,31201019,3100150,20511119,41601609,10800819,10000519,3160130,4201081,20601019,0,0,4181190,11811709,41511119,11101219,10501409,0,30410619,4131111,41400619,0,0,10010709,40011909,2010071,0,40001519,21001409,20210619,1001081,10002009,-1050011,41710109,21100009,0
20,207,1377.86598573439,1,0,1502135.42916348,1502136.47618223,1,5,9,0,1,19,10,108335206,86184298,90163119,24301220,41910519,11510919,31201119,0,0,0,0,21711609,2001040,0,0,1201080,41311319,1190000,40300719,0,0,2181180,-3171151,30710009,21411309,0,31700509,0,0,0,3170141,0,21110009,0,0,0,2000160,0,1191051,0
20,208,1183.93150763586,0,0,1502138.92317811,1502139.97019762,1,5,9,1,0,6,5,26121360,73405538,41312528,7312252,0,0,1100081,0,22010119,-3011160,0,0,0,21611509,3050060,0,0,4071110,0,0,3171140,41501719,0,0,0,20412019,0,20900509,0,0,0,1201151,4081030,0,0,0,0,2030071,0,0
20,209,766.184191219509,0,0,1502142.22896068,1502143.27598905,1,5,9,0,0,27,5,4061370,13521462,66772500,63320637,2050170,0,2011200,0,0,0,0,0,0,4191010,0,0,3140191,0,4060181,0,0,2130080,21501109,4150081,0,0,0,0,40001209,0,-1120101,0,11810009,0,0,0,20110519,0,31400109,0
20,210,823.068717727438,0,0,1502145.22887945,1502146.27590475,1,5,9,0,0,10,20,154735187,141858888,107837364,129807075,41011809,0,2200131,0,40511009,0,30811019,0,40201219,-2021191,2060041,30411519,2200050,1161160,40902009,41001609,2000000,20101309,20711009,20801109,0,11300219,0,31211909,11411509,2201100,10200509,20211909,31900419,11010719,30311109,3151201,22011509,0,0,11210209
20,211,947.329111397266,1,0,1502148.18173906,1502149.22876474,1,5,9,0,1,21,0,0,10420401,5301251,3221070,0,0,0,0,0,0,0,0,0,0,0,4160021,0,0,0,4180190,0,2080190,0,0,-2001130,1170111,2130010,0,0,0,0,0,0,0,0,2121010,1100060,0,0,0
20,212,707.362541463226,1,0,1502151.22871508,1502152.27573844,1,5,9,1,1,17,0,4100141,11302621,3091130,6170271,0,0,0,0,0,0,4100141,0,0,3011200,0,0,0,1170150,0,4111160,-3010111,0,0,0,3091130,0,0,0,0,0,0,0,0,0,2100071,0,0,4070200,0,0
20,213,1544.19991793111,1,0,1502154.02863701,1502155.07566037,1,5,9,0,1,5,10,80333548,32154391,145024256,78742919,0,0,0,0,-4140140,21501619,30410419,20110319,4171051,0,2141190,4001180,0,21810909,1131031,3070081,0,0,0,40711109,0,0,0,31410319,0,41200819,31702009,3100100,40701309,31910309,0,0,0,0,3031201,0
20,214,1398.38555990718,0,0,1502157.81676258,1502158.87555228,1,5,9,1,0,29,20,154125665,181197284,62887199,105783166,4070070,0,20800219,21510419,21510209,20300319,21701919,41211319,3021191,10100019,31311209,31311319,41900409,0,41011519,10111409,4150091,11301309,3081171,0,3130001,11101819,4070180,10402009,0,1100110,30001909,0,-2170000,0,0,31400319,30300319,0,10100919,31811609
20,215,650.706297019497,0,0,1502161.28725416,1502162.33427792,1,5,9,1,0,15,20,203076765,121905614,116886377,79294076,41900619,30900819,2011160,3060080,11400819,40001009,40401809,31300319,2100131,11301319,31911109,31900509,0,0,-2171140,22010709,11710119,10900709,40700709,11401519,1181020,0,0,2100101,30201519,0,31301509,0,20011109,21600119,2110050,0,0,20800909,10611819,4160070
20,216,1339.20281659812,0,0,1502164.15776793,1502165.20478629,1,5,9,1,0,28,10,70904907,61563578,125515648,24251800,0,12000809,2181150,0,0,4011030,21711509,0,31000409,0,10610709,0,30100419,4090140,2160091,4101110,0,10501109,0,1080011,40311509,0,0,40911519,0,3101100,40111509,-3041191,0,0,0,0,0,0,0,21210609
20,217,984.931713202968,0,0,1502170.94580419,1502171.99283217,1,5,10,1,0,17,0,4100141,11302621,3091130,6170271,0,0,0,0,0,0,4100141,0,0,3011200,0,0,0,1170150,0,4111160,-3010111,0,0,0,3091130,0,0,0,0,0,0,0,0,0,2100071,0,0,4070200,0,0
20,218,656.72323689796,0,0,1502174.18101764,1502175.2280464,1,5,10,1,0,29,20,154125665,181197284,62887199,105783166,4070070,0,20800219,21510419,21510209,20300319,21701919,41211319,3021191,10100019,31311209,31311319,41900409,0,41011519,10111409,4150091,11301309,3081171,0,3130001,11101819,4070180,10402009,0,1100110,30001909,0,-2170000,0,0,31400319,30300319,0,10100919,31811609
20,219,3014.76772758178,1,0,1502176.93388041,1502177.98094997,1,5,10,0,1,13,10,113505729,4201000,117162917,50684489,1011071,0,0,40500019,40601609,0,0,30212019,1181011,0,0,0,-4201000,0,0,0,0,0,40410409,41200719,0,20901109,0,3040071,0,11610609,0,20610319,1171201,0,11000609,11511209,3180040,1051030,0,2160081
20,220,1541.70460090972,0,0,1502182.07497476,1502183.12195847,1,5,10,0,0,5,5,33222610,40900909,45672710,72432661,0,0,0,0,-1151130,0,0,31001409,1070071,0,0,40900909,0,0,0,0,0,0,0,2031150,0,1030140,0,41500409,1111011,0,0,0,4040061,0,2040081,0,20610709,4040001,0,41701809
20,221,839.521949179471,1,0,1502185.71010491,1502186.75713559,1,5,10,1,1,11,10,125002856,73313532,60903399,75373279,31600019,0,0,0,0,30800009,31601319,0,31001509,0,-1090121,4020091,0,31310619,4111171,0,30711419,2070111,0,4080081,0,0,0,0,31401709,4110100,21311509,0,32000609,2101010,1060041,0,0,0,0,40211619
20,222,592.60606393218,1,0,1502188.61591151,1502189.66293179,1,5,10,1,1,34,0,3010150,1030130,5261222,12361182,0,0,0,0,0,0,0,3010150,0,0,0,0,0,0,1030130,0,0,0,1120080,2050011,0,0,0,0,0,2091131,0,0,4160000,0,0,0,0,-4180081,4021101,0
20,223,915.891659678891,1,0,1502191.36881007,1502192.41580264,1,5,10,0,1,7,0,7222202,3101171,2172251,4251161,1090170,0,0,0,4041001,0,-2091031,0,0,3101171,0,0,0,0,0,0,0,0,1011071,0,0,0,1161180,0,0,0,0,0,0,3091140,0,0,0,0,1160021,0
20,224,1326.17227290757,1,0,1502194.3804509,1502195.42747273,1,5,10,1,1,32,20,159018265,161505984,112806197,122823758,30801119,0,10901909,41101219,41901519,0,3011180,0,31301319,21310919,11511009,4060000,0,21410519,0,30500809,31712009,41000719,1050081,11811919,11201019,31600909,0,3001091,41200319,10900809,2040050,31811409,3131000,0,0,-1160091,21900509,31400309,31310419,2110021
20,225,1116.52214871719,0,0,1502197.80388178,1502198.850914,1,5,10,0,0,35,5,5221131,101311837,38243230,27782040,0,0,3190121,0,0,0,0,0,2031010,40111109,0,40200409,0,0,0,0,0,21000319,1070180,0,3051141,2111000,0,0,0,32010909,0,0,0,20510609,0,2111201,1140130,0,-4020100,0
20,226,924.307291163132,1,0,1502201.18025888,1502202.22728803,1,5,10,0,1,10,5,91912127,40122659,4190240,48614310,0,40601009,10100909,0,0,41210209,0,0,0,-3040090,31910219,3031170,2141180,0,0,0,0,0,0,0,1060050,3130190,0,0,0,0,0,0,1031081,2161070,0,0,0,0,4011050,41411109
20,227,1064.8064929992,0,0,1502204.19194322,1502205.23897236,1,5,10,1,0,28,10,70904907,61563578,125515648,24251800,0,12000809,2181150,0,0,4011030,21711509,0,31000409,0,10610709,0,30100419,4090140,2160091,4101110,0,10501109,0,1080011,40311509,0,0,40911519,0,3101100,40111509,-3041191,0,0,0,0,0,0,0,21210609
20,228,1267.1246509999,0,0,1502207.36832694,1502208.4153557,1,5,10,0,0,14,20,207937194,115404718,111538027,161128184,41901919,20510409,41200719,40811719,21811619,0,41700809,0,0,2010191,41410109,0,30610009,-3060140,11401119,2011081,21901009,3001060,3141140,20401219,11511909,0,2131140,41011109,0,31201409,2140101,4000190,0,10800809,40601509,11311419,31900819,31801919,0,30711519
20,229,609.879262279719,0,0,1502210.85062451,1502211.89760592,1,5,10,1,0,8,0,4161090,3101150,0,8504434,0,0,0,0,0,0,0,-1130070,3031020,0,0,0,0,0,2080120,0,0,1021030,0,0,0,0,0,0,0,0,0,0,3021181,0,0,0,1191161,0,1161001,3131091
20,230,1182.66729591414,1,0,1502213.59168091,1502214.63870427,1,5,10,1,1,30,5,26232980,67452298,17691349,16102999,3040170,0,0,0,22001719,0,1191091,0,0,31711019,0,0,0,0,31410019,0,3151130,1180130,11501209,0,0,2010050,0,4180090,0,0,0,10810719,0,-2111170,0,0,0,0,0,3181110
20,231,738.892769208178,1,0,1502216.89747542,1502217.94453997,1,5,10,0,1,21,0,0,2201192,10251182,9112542,0,0,0,0,0,0,0,0,0,0,1181001,0,0,0,0,0,1020191,0,0,0,-3091060,4160041,0,0,0,3000081,0,0,4091191,0,1001201,0,0,0,0,4020150
20,232,845.369891030714,1,0,1502219.82680313,1502220.87382534,1,5,10,0,1,33,20,111754998,154833904,176477836,141426667,31610519,30800119,0,1200031,3110091,1001191,10811119,11710009,21511919,0,41010009,41510719,30110419,0,11201619,20900919,10100219,0,0,0,1000160,40511719,40900009,2041111,30111809,30201119,31711909,41701919,20110509,3181021,0,41411919,-2050100,30901009,2070190,0
20,233,1583.25228258036,0,0,1502222.75613815,1502223.80315536,1,5,10,1,0,1,10,34176051,104813266,94516156,18863991,-4071051,3121000,0,3091000,0,1001010,1091071,0,21800919,41501219,0,20500609,0,0,0,30801319,0,12010119,0,40611909,0,21901419,10702009,21300819,0,0,0,11701609,0,0,0,0,3041061,2071171,2050150,0
20,234,630.011950619519,0,0,1502226.54426026,1502227.59128132,1,5,10,1,0,15,20,203076765,121905614,116886377,79294076,41900619,30900819,2011160,3060080,11400819,40001009,40401809,31300319,2100131,11301319,31911109,31900509,0,0,-2171140,22010709,11710119,10900709,40700709,11401519,1181020,0,0,2100101,30201519,0,31301509,0,20011109,21600119,2110050,0,0,20800909,10611819,4160070
20,235,679.797026794404,0,0,1502229.33243511,1502230.37943884,1,5,10,0,0,26,0,3252262,6202271,4190191,5200161,0,0,0,0,0,0,2161121,0,1091141,0,2191071,0,0,0,4011200,0,0,0,0,0,0,0,3100090,0,0,-1090101,0,0,0,0,0,1110161,0,0,4090000,0
20,236,1164.62802537717,1,0,1502232.0736555,1502233.1205449,1,5,10,0,1,18,20,142464499,158904655,200344345,129072126,4120081,20400609,40401719,0,31110019,40212009,0,3050051,3170011,41200719,20101409,21000519,31510419,0,0,42010309,1040200,-2041080,40810519,40301009,21900119,41800619,20900719,4030051,30601309,0,0,31700119,0,2070200,31910619,20900009,30210909,2070151,0,10210119
20,237,1024.92646221071,1,0,1502235.485188,1502236.53220675,1,5,10,1,1,6,5,26121360,73405538,41312528,7312252,0,0,1100081,0,22010119,-3011160,0,0,0,21611509,3050060,0,0,4071110,0,0,3171140,41501719,0,0,0,20412019,0,20900509,0,0,0,1201151,4081030,0,0,0,0,2030071,0,0
20,238,840.386186726391,0,0,1502238.70862704,1502239.75565041,1,5,10,0,0,27,10,73755618,94614966,25302270,84674500,3041121,0,21110619,0,4070140,3100190,20300719,20101819,2031010,40601419,0,10301619,0,0,0,0,32001809,11710119,0,1201021,0,20101119,0,0,0,0,-4000130,0,0,1131081,41211519,2030091,40301809,0,0,0
20,239,1090.64314817078,0,0,1502241.7674306,1502242.81442856,1,5,10,0,0,19,10,63324637,38523009,57003707,41454490,0,10912009,0,10610819,0,0,0,41801809,0,3091060,0,1090010,1030111,21700619,0,0,11611209,0,-3200130,10500519,30711309,11401609,0,0,0,0,1190140,0,0,20611619,4170010,3120081,0,0,10501619,3051161
20,240,1400.12288885191,0,0,1502244.97903902,1502246.02606354,1,5,10,1,0,24,5,55002159,5151351,37600802,67423029,21611509,0,0,0,31200619,0,2190031,0,0,0,3110200,0,0,0,0,0,0,2041151,2020061,0,0,0,0,-1100111,0,3070011,31410619,0,1111041,4090070,41910009,20311909,0,0,0,0
20,241,743.155826814473,0,0,1502251.88472512,1502252.93175542,1,5,11,0,0,33,0,4241100,8150351,2261162,4232251,0,0,0,3051100,0,0,1190000,0,0,0,0,0,0,0,4010171,0,4140180,0,1091121,0,0,1170041,0,0,0,0,0,0,0,0,0,0,-1161050,3071201,0,0
20,242,658.308891113847,1,0,1502254.79053134,1502255.83755624,1,5,11,1,1,29,20,154125665,181197284,62887199,105783166,4070070,0,20800219,21510419,21510209,20300319,21701919,41211319,3021191,10100019,31311209,31311319,41900409,0,41011519,10111409,4150091,11301309,3081171,0,3130001,11101819,4070180,10402009,0,1100110,30001909,0,-2170000,0,0,31400319,30300319,0,10100919,31811609
20,243,769.496395485476,1,0,1502257.69633755,1502258.74336323,1,5,11,0,1,19,20,94503118,118203987,169466593,128747476,0,3110141,11710209,12000519,32012019,31510009,0,1060150,3100071,2071150,41410519,0,0,10310809,0,30210819,3000171,31200519,-1130110,31300419,21101709,11610619,31901309,20800709,30910009,20711709,0,0,30210609,1111140,30411419,10101809,11811119,3090071,0,42011309
20,244,1334.40735773183,0,0,1502260.63743198,1502261.68445688,1,5,11,1,0,17,0,4100141,11302621,3091130,6170271,0,0,0,0,0,0,4100141,0,0,3011200,0,0,0,1170150,0,4111160,-3010111,0,0,0,3091130,0,0,0,0,0,0,0,0,0,2100071,0,0,4070200,0,0
20,245,1271.14210370928,1,0,1502264.2138013,1502265.26082082,1,5,11,1,1,8,0,4161090,3101150,0,8504434,0,0,0,0,0,0,0,-1130070,3031020,0,0,0,0,0,2080120,0,0,1021030,0,0,0,0,0,0,0,0,0,0,3021181,0,0,0,1191161,0,1161001,3131091
20,246,998.205936979502,1,0,1502267.71958919,1502268.76660755,1,5,11,0,1,27,5,99962868,1140090,4400211,65644838,0,0,4151020,0,2010201,10400009,41701619,41700019,0,0,0,0,0,0,1140090,0,0,0,1040081,1160020,0,0,0,0,0,0,-2200110,1021200,0,0,2121200,0,0,31401019,0,31101419
20,247,1113.25152032077,0,0,1502270.95477801,1502272.00181139,1,5,11,1,0,32,20,159018265,161505984,112806197,122823758,30801119,0,10901909,41101219,41901519,0,3011180,0,31301319,21310919,11511009,4060000,0,21410519,0,30500809,31712009,41000719,1050081,11811919,11201019,31600909,0,3001091,41200319,10900809,2040050,31811409,3131000,0,0,-1160091,21900509,31400309,31310419,2110021
20,248,1212.31275447644,1,0,1502274.27233847,1502275.3193576,1,5,11,0,1,5,20,147084337,168346912,107344898,126652335,1030070,2170040,4180040,41110009,-4090081,2091160,31801719,20210209,40401009,10610009,11210709,0,31700719,10711809,21711209,41601219,30401119,10400119,0,0,2121010,30011509,40310819,0,0,3091151,31810409,40200019,31000609,10600419,11810019,31011119,2030150,0,0,0
20,249,1150.69282334298,1,0,1502277.68400648,1502278.73103716,1,5,11,1,1,6,5,26121360,73405538,41312528,7312252,0,0,1100081,0,22010119,-3011160,0,0,0,21611509,3050060,0,0,4071110,0,0,3171140,41501719,0,0,0,20412019,0,20900509,0,0,0,1201151,4081030,0,0,0,0,2030071,0,0
20,250,720.989004708827,1,0,1502281.04862302,1502282.09565024,1,5,11,0,1,14,10,85353067,59222759,41682721,117786067,30300119,0,0,0,0,0,11001419,41011409,3040120,4121120,0,0,10900219,-4091001,0,0,40110419,0,3031070,3120161,1201130,30300209,0,0,4030151,0,0,0,10511219,0,41411719,20311109,41511009,0,0,4041011
20,251,912.543269107118,1,0,1502283.87207531,1502284.91909559,1,5,11,1,1,15,20,203076765,121905614,116886377,79294076,41900619,30900819,2011160,3060080,11400819,40001009,40401809,31300319,2100131,11301319,31911109,31900509,0,0,-2171140,22010709,11710119,10900709,40700709,11401519,1181020,0,0,2100101,30201519,0,31301509,0,20011109,21600119,2110050,0,0,20800909,10611819,4160070
20,252,911.081957165152,0,0,1502286.94258052,1502287.98959696,1,5,11,0,0,18,5,67833669,10653262,6362191,83713337,1091060,0,30901409,4131191,0,0,0,31710009,0,0,0,0,1101090,0,0,2171021,4200090,-3181061,4161190,0,0,2201001,0,0,0,0,0,0,30311309,0,41700219,11701809,0,0,0,0
20,253,736.983362818137,0,0,1502290.03660839,1502291.08363022,1,5,11,1,0,28,10,70904907,61563578,125515648,24251800,0,12000809,2181150,0,0,4011030,21711509,0,31000409,0,10610709,0,30100419,4090140,2160091,4101110,0,10501109,0,1080011,40311509,0,0,40911519,0,3101100,40111509,-3041191,0,0,0,0,0,0,0,21210609
20,254,1365.60767376795,1,0,1502292.8718247,1502293.91890927,1,5,11,1,1,24,5,55002159,5151351,37600802,67423029,21611509,0,0,0,31200619,0,2190031,0,0,0,3110200,0,0,0,0,0,0,2041151,2020061,0,0,0,0,-1100111,0,3070011,31410619,0,1111041,4090070,41910009,20311909,0,0,0,0
20,255,1060.81406283192,1,0,1502296.47172784,1502297.51875236,1,5,11,1,1,30,5,26232980,67452298,17691349,16102999,3040170,0,0,0,22001719,0,1191091,0,0,31711019,0,0,0,0,31410019,0,3151130,1180130,11501209,0,0,2010050,0,4180090,0,0,0,10810719,0,-2111170,0,0,0,0,0,3181110
20,256,1259.36614791863,1,0,1502299.74221989,1502300.78924595,1,5,11,1,1,11,10,125002856,73313532,60903399,75373279,31600019,0,0,0,0,30800009,31601319,0,31001509,0,-1090121,4020091,0,31310619,4111171,0,30711419,2070111,0,4080081,0,0,0,0,31401709,4110100,21311509,0,32000609,2101010,1060041,0,0,0,0,40211619
20,257,1279.89611588418,0,0,1502303.22447897,1502304.27149463,1,5,11,1,0,1,10,34176051,104813266,94516156,18863991,-4071051,3121000,0,3091000,0,1001010,1091071,0,21800919,41501219,0,20500609,0,0,0,30801319,0,12010119,0,40611909,0,21901419,10702009,21300819,0,0,0,11701609,0,0,0,0,3041061,2071171,2050150,0
20,258,1241.81654769927,0,0,1502306.71849783,1502307.7655158,1,5,11,0,0,7,5,45003189,44002139,17372770,25782370,0,40910909,2041080,0,0,0,-2051200,0,0,0,0,0,20700919,0,0,2100111,21201109,0,0,0,4091120,0,3080131,0,10201519,0,0,0,20401319,2110021,2141020,0,0,1130010,0,0
20,259,943.159599322826,0,0,1502310.07134688,1502311.11836486,1,5,11,1,0,34,0,3010150,1030130,5261222,12361182,0,0,0,0,0,0,0,3010150,0,0,0,0,0,0,1030130,0,0,0,1120080,2050011,0,0,0,0,0,2091131,0,0,4160000,0,0,0,0,-4180081,4021101,0
20,260,696.698352927342,0,0,1502313.25948886,1502314.30657343,1,5,11,0,0,10,0,3151151,8342470,3111030,4121110,0,0,0,0,0,1150001,0,2001150,0,-1070010,0,0,4191110,2031200,0,0,1050150,0,0,0,0,0,0,3111030,0,0,0,0,0,0,0,0,0,0,4121110,0
20,261,1418.05975977331,0,0,1502316.07117789,1502317.11820587,1,5,11,0,0,13,10,85822389,89874149,56473479,97074626,0,0,0,0,0,41800209,0,42012009,2010171,0,40701809,3020080,-3051001,41011119,0,0,0,2090140,0,0,2151081,0,0,4000070,20111819,30210509,0,20710209,0,0,4051050,10611519,0,1081020,30410319,30210509
20,262,1504.13087103516,0,0,1502319.67107064,1502320.71810132,1,5,11,0,0,35,20,112246998,188980304,84295257,163008535,0,31100909,1051180,0,1001111,30510409,41411219,3131000,4041170,40611319,11311409,31501819,3040021,10802009,0,20511609,40500209,30701909,0,1160111,21201609,20511909,10311609,31110019,0,0,0,41701109,3131040,30101109,0,20800209,30511709,21111819,-4150121,11501419
20,263,792.476255213842,1,0,1502323.42389952,1502324.47093752,1,5,11,0,1,26,10,78764188,59234998,74602767,74502849,0,4051081,20110209,1161070,0,40301209,11000609,0,2140010,0,0,4141020,41710609,11111209,0,0,1101110,1171050,0,40200719,0,0,0,0,20100819,-4190120,10111109,1091121,0,31710809,0,41700919,0,0,0,0
20,264,1015.09032491595,0,0,1502326.36500896,1502327.41204041,1,5,11,0,0,21,0,7221351,0,7262381,6251221,4201160,0,0,0,3020191,0,0,0,0,0,0,0,0,0,0,0,0,0,0,2051030,-3151190,0,0,2060161,0,0,0,3060181,0,0,0,2171040,0,0,1020000,0
20,265,1682.18301492743,1,0,1502332.61189097,1502333.65891665,1,5,12,1,1,28,10,70904907,61563578,125515648,24251800,0,12000809,2181150,0,0,4011030,21711509,0,31000409,0,10610709,0,30100419,4090140,2160091,4101110,0,10501109,0,1080011,40311509,0,0,40911519,0,3101100,40111509,-3041191,0,0,0,0,0,0,0,21210609
20,266,791.309053543955,0,0,1502336.41179135,1502337.4588124,1,5,12,0,0,19,5,57552138,64834069,10542331,34101379,11800919,3110030,0,0,0,40510009,0,0,2131180,0,20011319,0,3021041,0,0,0,0,41801709,-3181130,3151040,2150080,0,0,0,0,0,2060081,0,0,3191070,30910309,0,0,0,0,0
20,267,976.72550030984,0,0,1502339.32935273,1502340.37637571,1,5,12,0,0,18,0,1041191,8381270,5302330,4111170,0,0,1041191,0,0,0,0,0,0,0,0,3190180,0,0,0,0,3181040,-2010050,0,0,0,0,4171170,0,0,0,1131160,0,0,1100000,3011170,0,0,0,0,0
20,268,819.882395910099,1,0,1502342.48220763,1502343.52929837,1,5,12,0,1,33,0,5212131,4101242,4020231,2191231,0,0,0,0,0,0,0,3141051,2071080,1051081,0,0,0,0,0,3050161,0,0,0,3000041,0,0,0,1020190,0,0,0,0,0,1001130,0,0,-1190101,0,0,0
20,269,858.500139787793,0,0,1502345.50566793,1502346.55266396,1,5,12,0,0,14,5,51182731,45881169,44250929,36334018,4040090,41011209,0,0,0,1000171,4071131,0,1060130,0,0,0,0,-4081150,0,0,41800019,0,0,0,0,0,0,41210909,0,3040020,0,0,0,4101140,20101209,1120150,11011519,0,0,0
20,270,1309.44533436559,1,0,1502348.45851868,1502349.50553434,1,5,12,1,1,30,5,26232980,67452298,17691349,16102999,3040170,0,0,0,22001719,0,1191091,0,0,31711019,0,0,0,0,31410019,0,3151130,1180130,11501209,0,0,2010050,0,4180090,0,0,0,10810719,0,-2111170,0,0,0,0,0,3181110
20,271,1117.47261718847,1,0,1502351.8584115,1502352.90543756,1,5,12,1,1,24,5,55002159,5151351,37600802,67423029,21611509,0,0,0,31200619,0,2190031,0,0,0,3110200,0,0,0,0,0,0,2041151,2020061,0,0,0,0,-1100111,0,3070011,31410619,0,1111041,4090070,41910009,20311909,0,0,0,0
20,272,784.535280428827,0,0,1502355.05832135,1502356.10534587,1,5,12,0,0,21,20,146035903,112524807,146964956,65376239,0,20010609,11401419,20901609,11000319,11000519,31411419,0,40310009,4121161,4180061,20000319,20510319,31900609,10211319,0,21601019,0,10110109,2141130,-2140011,40901709,10001309,40010409,40610109,0,1050170,1090040,1101161,0,0,11511919,10400419,40211509,0,1061191
20,273,1026.69805265032,0,0,1502358.01119134,1502359.05820971,1,5,12,1,0,29,20,154125665,181197284,62887199,105783166,4070070,0,20800219,21510419,21510209,20300319,21701919,41211319,3021191,10100019,31311209,31311319,41900409,0,41011519,10111409,4150091,11301309,3081171,0,3130001,11101819,4070180,10402009,0,1100110,30001909,0,-2170000,0,0,31400319,30300319,0,10100919,31811609
20,274,1396.19282213971,1,0,1502361.1287411,1502362.17577178,1,5,12,0,1,5,20,76567647,107712986,209219133,118783278,1111170,31001309,11401419,10700819,-1180201,10001419,1161101,0,10010209,3050200,2050120,40100719,10700609,0,11011119,0,0,40800219,31501819,0,41600519,42000809,21401119,1101130,40001409,10211409,21400919,0,4130131,0,20700409,20411619,40610909,0,2030101,30900109
20,275,862.909867428243,1,0,1502364.61099594,1502365.65807782,1,5,12,0,1,13,5,70656169,3120130,27192120,35222070,1021060,32010719,20011609,2200031,10401609,2000010,0,0,3011131,0,0,0,-3120130,0,0,0,0,0,0,20911119,0,0,0,0,4201000,2080001,0,0,0,0,0,31111909,0,4110161,0,0
20,276,1532.09867002442,0,0,1502367.57562265,1502368.62265102,1,5,12,1,0,1,10,34176051,104813266,94516156,18863991,-4071051,3121000,0,3091000,0,1001010,1091071,0,21800919,41501219,0,20500609,0,0,0,30801319,0,12010119,0,40611909,0,21901419,10702009,21300819,0,0,0,11701609,0,0,0,0,3041061,2071171,2050150,0
20,277,1360.7767985668,0,0,1502371.35204001,1502372.39901449,1,5,12,1,0,17,0,4100141,11302621,3091130,6170271,0,0,0,0,0,0,4100141,0,0,3011200,0,0,0,1170150,0,4111160,-3010111,0,0,0,3091130,0,0,0,0,0,0,0,0,0,2100071,0,0,4070200,0,0
20,278,812.657833565027,0,0,1502374.78718333,1502375.83421055,1,5,12,1,0,11,10,125002856,73313532,60903399,75373279,31600019,0,0,0,0,30800009,31601319,0,31001509,0,-1090121,4020091,0,31310619,4111171,0,30711419,2070111,0,4080081,0,0,0,0,31401709,4110100,21311509,0,32000609,2101010,1060041,0,0,0,0,40211619
20,279,605.496481759474,0,0,1502377.72827892,1502378.77530498,1,5,12,1,0,15,20,203076765,121905614,116886377,79294076,41900619,30900819,2011160,3060080,11400819,40001009,40401809,31300319,2100131,11301319,31911109,31900509,0,0,-2171140,22010709,11710119,10900709,40700709,11401519,1181020,0,0,2100101,30201519,0,31301509,0,20011109,21600119,2110050,0,0,20800909,10611819,4160070
20,280,1156.31864289753,1,0,1502380.46939228,1502381.51640449,1,5,12,1,1,32,20,159018265,161505984,112806197,122823758,30801119,0,10901909,41101219,41901519,0,3011180,0,31301319,21310919,11511009,4060000,0,21410519,0,30500809,31712009,41000719,1050081,11811919,11201019,31600909,0,3001091,41200319,10900809,2040050,31811409,3131000,0,0,-1160091,21900509,31400309,31310419,2110021
20,281,573.983962647617,0,0,1502383.70457956,1502384.75160524,1,5,12,0,0,27,10,24222209,84863881,76334327,94412817,0,21101009,0,3121200,0,0,0,0,0,32000619,3010071,2060151,0,0,2011071,21401219,20300719,4080031,2111100,0,11900109,20311019,0,0,0,40901909,-1110190,0,0,30500719,3110070,0,0,40100909,0,20701119
20,282,871.609985129908,1,0,1502386.52803339,1502387.57505945,1,5,12,0,1,10,10,98714888,63015990,73243088,54804668,3090140,30211609,21601409,0,41800609,0,0,2011121,0,-4140200,30702009,21911519,2061180,0,2040081,0,0,2161001,0,21410319,30311109,0,0,0,0,20411619,1110041,4191140,0,0,30601819,0,20011709,0,0,0
20,283,1224.38051085919,0,0,1502389.46912782,1502390.51615696,1,5,12,0,0,26,20,169295234,131316207,137996228,167616494,3051130,10111209,31701419,31100619,0,30210619,31710219,31410019,0,0,1191201,40800009,2011060,4190200,12011409,40010719,0,31101609,4131160,42011009,11210909,41810419,0,0,31611619,-4030091,3191021,31200309,21311819,0,21910009,1161120,0,41711209,30011809,20310219
20,284,1248.12451796606,1,0,1502392.7984469,1502393.84547297,1,5,12,0,1,35,10,31111828,126804556,62814490,52565092,0,0,0,20111009,11000819,0,0,0,0,11710009,0,0,4171200,40501819,30211209,0,40210319,0,3161161,22010609,0,4141001,0,0,21601219,1000081,10900419,0,2070061,0,2011051,41301819,3101090,0,-4081071,0
20,285,1697.44479213841,1,0,1502396.21011299,1502397.2571429,1,5,12,1,1,6,5,26121360,73405538,41312528,7312252,0,0,1100081,0,22010119,-3011160,0,0,0,21611509,3050060,0,0,4071110,0,0,3171140,41501719,0,0,0,20412019,0,20900509,0,0,0,1201151,4081030,0,0,0,0,2030071,0,0
20,286,973.658901406452,1,0,1502399.97475287,1502401.02174659,1,5,12,1,1,8,0,4161090,3101150,0,8504434,0,0,0,0,0,0,0,-1130070,3031020,0,0,0,0,0,2080120,0,0,1021030,0,0,0,0,0,0,0,0,0,0,3021181,0,0,0,1191161,0,1161001,3131091
20,287,1453.83187197149,0,0,1502403.12757621,1502404.17461189,1,5,12,0,0,7,0,9340332,4202231,3171001,5290012,0,4060081,0,0,0,0,-3110160,2170091,0,0,0,0,0,0,3081051,1121180,0,0,0,0,0,0,0,0,0,0,3171001,0,0,3140001,0,0,0,0,2150011,0
20,288,1277.63947471976,1,0,1502406.76283032,1502407.80981288,1,5,12,1,1,34,0,3010150,1030130,5261222,12361182,0,0,0,0,0,0,0,3010150,0,0,0,0,0,0,1030130,0,0,0,1120080,2050011,0,0,0,0,0,2091131,0,0,4160000,0,0,0,0,-4180081,4021101,0
20,289,1173.13681729138,1,0,1502413.63315583,1502414.68018497,1,5,13,1,1,30,5,26232980,67452298,17691349,16102999,3040170,0,0,0,22001719,0,1191091,0,0,31711019,0,0,0,0,31410019,0,3151130,1180130,11501209,0,0,2010050,0,4180090,0,0,0,10810719,0,-2111170,0,0,0,0,0,3181110
20,290,794.804883887991,1,0,1502417.0095364,1502418.0565613,1,5,13,1,1,17,0,4100141,11302621,3091130,6170271,0,0,0,0,0,0,4100141,0,0,3011200,0,0,0,1170150,0,4111160,-3010111,0,0,0,3091130,0,0,0,0,0,0,0,0,0,2100071,0,0,4070200,0,0
20,291,682.905201800168,1,0,1502419.86828575,1502420.91531181,1,5,13,1,1,34,0,3010150,1030130,5261222,12361182,0,0,0,0,0,0,0,3010150,0,0,0,0,0,0,1030130,0,0,0,1120080,2050011,0,0,0,0,0,2091131,0,0,4160000,0,0,0,0,-4180081,4021101,0
20,292,966.554447077215,0,0,1502422.7505593,1502423.7976304,1,5,13,0,0,27,10,27664088,24092791,95653036,85364229,10800909,2130100,0,0,0,11711909,0,2020040,1001130,0,1071071,0,20910609,0,0,0,2111111,0,20610619,21500019,0,40600219,0,0,11802009,0,-1140170,0,0,0,20900209,1171061,2070141,41011009,0,20211809
20,293,714.461606694385,0,0,1502425.93870281,1502426.98572194,1,5,13,0,0,35,20,162244817,116006288,138626316,148254525,0,2171051,3131091,31911009,0,11010519,31100019,41210109,41711019,4041071,0,11001809,20000409,21510019,41310919,11810919,4200101,2131041,10901309,31211219,11610519,0,2160101,40701419,40011619,2030130,0,11500219,0,21011209,30511519,0,0,40510109,-4121160,40600309
20,294,878.446891671047,1,0,1502428.87979339,1502429.9268183,1,5,13,1,1,11,10,125002856,73313532,60903399,75373279,31600019,0,0,0,0,30800009,31601319,0,31001509,0,-1090121,4020091,0,31310619,4111171,0,30711419,2070111,0,4080081,0,0,0,0,31401709,4110100,21311509,0,32000609,2101010,1060041,0,0,0,0,40211619
20,295,538.948665373027,0,0,1502431.95042949,1502432.99732043,1,5,13,0,0,10,0,3321222,8281391,1141181,3141152,0,0,0,2190081,0,1131141,0,0,0,-4190170,0,3081060,0,0,0,1010161,0,0,0,0,0,0,0,0,0,1141181,0,0,0,0,1041071,0,0,2100081,0,0
20,296,690.058161271736,0,0,1502434.6090438,1502435.65606986,1,5,13,1,0,28,10,70904907,61563578,125515648,24251800,0,12000809,2181150,0,0,4011030,21711509,0,31000409,0,10610709,0,30100419,4090140,2160091,4101110,0,10501109,0,1080011,40311509,0,0,40911519,0,3101100,40111509,-3041191,0,0,0,0,0,0,0,21210609
20,297,1091.34993655607,1,0,1502437.3736729,1502438.42069857,1,5,13,1,1,1,10,34176051,104813266,94516156,18863991,-4071051,3121000,0,3091000,0,1001010,1091071,0,21800919,41501219,0,20500609,0,0,0,30801319,0,12010119,0,40611909,0,21901419,10702009,21300819,0,0,0,11701609,0,0,0,0,3041061,2071171,2050150,0
20,298,751.499855658039,1,0,1502440.52654089,1502441.57355887,1,5,13,1,1,29,20,154125665,181197284,62887199,105783166,4070070,0,20800219,21510419,21510209,20300319,21701919,41211319,3021191,10100019,31311209,31311319,41900409,0,41011519,10111409,4150091,11301309,3081171,0,3130001,11101819,4070180,10402009,0,1100110,30001909,0,-2170000,0,0,31400319,30300319,0,10100919,31811609
20,299,814.638842595741,0,0,1502443.37350236,1502444.4205315,1,5,13,0,0,18,10,99135086,8402251,103853577,58951609,4180020,40301109,0,32001809,1050030,0,0,10401709,11200409,0,0,1121060,0,3111081,0,0,0,-4170110,21100619,2120201,0,40110719,0,10210719,0,30311319,0,0,2180021,4170170,41900509,0,0,10700909,0,0
20,300,1645.2521700412,1,0,1502446.40871281,1502447.45573194,1,5,13,1,1,6,5,26121360,73405538,41312528,7312252,0,0,1100081,0,22010119,-3011160,0,0,0,21611509,3050060,0,0,4071110,0,0,3171140,41501719,0,0,0,20412019,0,20900509,0,0,0,1201151,4081030,0,0,0,0,2030071,0,0
20,301,850.642701610923,0,0,1502450.12625964,1502451.17331072,1,5,13,0,0,19,0,7280552,1191060,2190090,9330261,1090150,0,0,0,0,0,0,2150201,4040201,0,0,0,1191060,0,0,0,0,0,-2190090,0,0,0,0,0,0,0,0,0,0,0,0,3130081,0,0,3000030,3200150
20,302,700.626879464835,1,0,1502453.16146856,1502454.20849269,1,5,13,1,1,15,20,203076765,121905614,116886377,79294076,41900619,30900819,2011160,3060080,11400819,40001009,40401809,31300319,2100131,11301319,31911109,31900509,0,0,-2171140,22010709,11710119,10900709,40700709,11401519,1181020,0,0,2100101,30201519,0,31301509,0,20011109,21600119,2110050,0,0,20800909,10611819,4160070
20,303,922.36862774007,0,0,1502456.05550343,1502457.10252872,1,5,13,0,0,13,0,1020131,5210311,5250060,5323443,0,0,0,0,0,1020131,0,0,0,0,0,0,-3090120,0,0,0,0,2120191,0,0,0,0,0,0,0,1160000,4090060,0,1041111,0,2171171,0,0,0,2111161,0
20,304,1400.43432218954,1,0,1502459.10248407,1502460.14950243,1,5,13,1,1,32,20,159018265,161505984,112806197,122823758,30801119,0,10901909,41101219,41901519,0,3011180,0,31301319,21310919,11511009,4060000,0,21410519,0,30500809,31712009,41000719,1050081,11811919,11201019,31600909,0,3001091,41200319,10900809,2040050,31811409,3131000,0,0,-1160091,21900509,31400309,31310419,2110021
20,305,1249.68899902888,1,0,1502462.66713672,1502463.71410889,1,5,13,0,1,5,20,121206627,132589524,127246567,145304317,11201709,0,21810709,41201009,-3070101,10511319,2200061,31211719,0,31111219,10900119,4171100,11010919,3071030,21911819,20201509,0,30211809,11001609,0,0,31711419,0,3121121,0,40310609,41101809,30210109,0,4040191,20612009,42000509,21010319,4120161,2110200,21200819
20,306,839.478833600879,0,0,1502466.10229082,1502467.14930841,1,5,13,0,0,33,5,24542441,65711968,3090080,66553229,0,11100019,2051180,4180151,3050031,0,4161060,0,0,0,40711409,0,0,0,3100150,0,21900409,0,0,3090080,0,0,0,0,0,0,0,0,0,0,31211209,0,-3061180,31200809,0,1080031
20,307,509.66430013068,1,0,1502469.00809279,1502470.05516967,1,5,13,0,1,21,10,55933869,43702549,49332329,102372988,20200619,10111119,0,0,1170101,3151011,0,0,21301019,31100819,0,10511709,0,0,0,0,0,2090021,11011909,4040061,-1060070,31100219,0,0,0,0,2120070,0,4200171,0,40411319,0,0,12010419,41610009,4141070
20,308,657.786884112284,0,0,1502471.76101869,1502472.80802204,1,5,13,0,0,26,20,88023029,161796577,179737415,179997454,30710619,0,41810019,2011201,0,0,2191171,0,11300019,40511909,4040180,1050121,3170031,30210009,30601809,40400909,0,11811609,31011809,20200819,4061091,40000309,41311319,11410609,30600409,-1141050,0,41911409,10910809,0,31802019,1151080,0,32011809,41000319,21210009
20,309,579.22713086009,0,0,1502474.63145777,1502475.67848344,1,5,13,0,0,14,5,8051201,77724171,32000409,46775568,4020171,4031030,0,0,0,0,0,0,0,3010161,31600119,4161031,0,-4151060,30600609,0,0,4201191,0,0,0,0,0,0,0,32000409,0,0,20402019,0,0,20101309,0,4121040,0,2151200
20,310,674.390635220334,0,0,1502477.38432708,1502478.43135352,1,5,13,0,0,7,5,76523209,87282870,0,29701629,0,41610919,0,2110180,0,30710909,-2091201,0,0,40311019,0,1030181,3060031,2181030,0,0,40700609,0,0,0,0,0,0,0,0,0,0,1050190,0,4130020,0,0,4121000,0,20400419,0
20,311,599.64122553356,0,0,1502480.19601457,1502481.24307143,1,5,13,1,0,8,0,4161090,3101150,0,8504434,0,0,0,0,0,0,0,-1130070,3031020,0,0,0,0,0,2080120,0,0,1021030,0,0,0,0,0,0,0,0,0,0,3021181,0,0,0,1191161,0,1161001,3131091
20,312,1540.06928671151,1,0,1502482.86652687,1502483.91354946,1,5,13,1,1,24,5,55002159,5151351,37600802,67423029,21611509,0,0,0,31200619,0,2190031,0,0,0,3110200,0,0,0,0,0,0,2041151,2020061,0,0,0,0,-1100111,0,3070011,31410619,0,1111041,4090070,41910009,20311909,0,0,0,0
20,313,1215.78664216213,0,0,1502489.68986597,1502490.73689319,1,5,14,0,0,14,20,118108816,101357306,141558485,148734056,30110209,10802019,0,21111319,0,21711619,2141151,2031190,30201309,1190150,0,40801319,2051150,-3191030,32011119,0,10701419,11411119,30600419,11301809,4180100,11111319,0,1141001,31000309,41911509,10312019,30400209,4111111,21300509,0,0,32000309,40610409,0,20311509
20,314,989.256749628112,1,0,1502493.16035602,1502494.20737938,1,5,14,1,1,32,20,159018265,161505984,112806197,122823758,30801119,0,10901909,41101219,41901519,0,3011180,0,31301319,21310919,11511009,4060000,0,21410519,0,30500809,31712009,41000719,1050081,11811919,11201019,31600909,0,3001091,41200319,10900809,2040050,31811409,3131000,0,0,-1160091,21900509,31400309,31310419,2110021
20,315,573.526629013941,0,0,1502496.27791386,1502497.32493876,1,5,14,0,0,26,20,131964848,114038084,90844738,198785193,30000209,2171050,11511409,4180131,41400119,40501919,0,2200011,0,20511909,11500609,20700519,0,20002019,0,11311609,30011419,0,0,3041011,31500119,1030150,2140190,31511619,0,-1120030,20501619,21710319,41710509,41210209,10001709,0,1120010,21210709,21010419,40811309
20,316,865.417503053322,0,0,1502498.96019441,1502500.00721855,1,5,14,1,0,29,20,154125665,181197284,62887199,105783166,4070070,0,20800219,21510419,21510209,20300319,21701919,41211319,3021191,10100019,31311209,31311319,41900409,0,41011519,10111409,4150091,11301309,3081171,0,3130001,11101819,4070180,10402009,0,1100110,30001909,0,-2170000,0,0,31400319,30300319,0,10100919,31811609
20,317,985.41791876778,1,0,1502502.06599131,1502503.11301544,1,5,14,1,1,15,20,203076765,121905614,116886377,79294076,41900619,30900819,2011160,3060080,11400819,40001009,40401809,31300319,2100131,11301319,31911109,31900509,0,0,-2171140,22010709,11710119,10900709,40700709,11401519,1181020,0,0,2100101,30201519,0,31301509,0,20011109,21600119,2110050,0,0,20800909,10611819,4160070
20,318,1191.44979515113,0,0,1502505.16002187,1502506.20704447,1,5,14,1,0,6,5,26121360,73405538,41312528,7312252,0,0,1100081,0,22010119,-3011160,0,0,0,21611509,3050060,0,0,4071110,0,0,3171140,41501719,0,0,0,20412019,0,20900509,0,0,0,1201151,4081030,0,0,0,0,2030071,0,0
20,319,928.479498019442,0,0,1502508.51286669,1502509.55989199,1,5,14,1,0,34,0,3010150,1030130,5261222,12361182,0,0,0,0,0,0,0,3010150,0,0,0,0,0,0,1030130,0,0,0,1120080,2050011,0,0,0,0,0,2091131,0,0,4160000,0,0,0,0,-4180081,4021101,0
20,320,1186.3228850998,1,0,1502511.54807869,1502512.59509898,1,5,14,0,1,21,10,96734718,25923219,31534461,72634346,41811509,1180100,2130130,0,0,0,20400019,1111151,30101809,0,3001191,0,11811409,0,11110619,0,0,0,3100161,2021050,-1191160,21111919,0,4110171,0,0,0,0,0,0,10211409,20211809,10610809,0,0,31600319
20,321,1103.392285062,0,0,1502514.85386357,1502515.90088887,1,5,14,0,0,5,20,155337957,91025637,96282486,179765594,41800609,11511909,30401419,4000021,-2040060,20601709,1171111,40610919,3200200,10400719,0,0,11711709,32011509,0,2020000,4071191,30810509,10000319,30110409,11110409,0,3050131,0,31611009,0,10400209,31611619,20210119,31410819,30610319,0,4101190,40711019,21110509,0
20,322,1274.55285773613,0,0,1502518.11260123,1502519.15968388,1,5,14,0,0,35,10,7342392,99407737,108085546,45731960,0,0,3121201,0,0,1160171,0,0,3061020,21611909,20212009,3091081,2171110,0,41511419,0,10810209,0,4141180,0,0,20710919,20911909,21010819,0,41310719,0,0,31601419,0,0,11100409,2000111,0,-1030021,0
20,323,552.344536874443,1,0,1502521.64191793,1502522.68893667,1,5,14,1,1,24,5,55002159,5151351,37600802,67423029,21611509,0,0,0,31200619,0,2190031,0,0,0,3110200,0,0,0,0,0,0,2041151,2020061,0,0,0,0,-1100111,0,3070011,31410619,0,1111041,4090070,41910009,20311909,0,0,0,0
20,324,807.216025190428,0,0,1502524.43007276,1502525.47708765,1,5,14,1,0,11,10,125002856,73313532,60903399,75373279,31600019,0,0,0,0,30800009,31601319,0,31001509,0,-1090121,4020091,0,31310619,4111171,0,30711419,2070111,0,4080081,0,0,0,0,31401709,4110100,21311509,0,32000609,2101010,1060041,0,0,0,0,40211619
20,325,851.73599049449,1,0,1502527.34763876,1502528.39465519,1,5,14,1,1,30,5,26232980,67452298,17691349,16102999,3040170,0,0,0,22001719,0,1191091,0,0,31711019,0,0,0,0,31410019,0,3151130,1180130,11501209,0,0,2010050,0,4180090,0,0,0,10810719,0,-2111170,0,0,0,0,0,3181110
20,326,977.313335752115,1,0,1502530.38284806,1502531.42986796,1,5,14,0,1,13,0,4141060,6293421,4182300,2111221,0,0,0,4141060,0,0,0,0,0,0,0,1021170,-1181181,0,4091070,0,0,0,0,0,0,0,0,0,0,3081110,1101190,0,0,0,0,1081040,0,0,0,1030181
20,327,718.687708023936,1,0,1502533.54746968,1502534.59449112,1,5,14,0,1,27,5,30801609,48094068,22062970,48001269,0,0,30801609,0,0,0,0,0,0,1110080,0,22010819,0,0,0,0,20812019,4161150,0,4090191,0,4071000,11711719,0,0,0,-2190060,0,40800019,0,0,3120100,0,3011070,0,1070080
20,328,959.214011440054,1,0,1502536.52384925,1502537.57087454,1,5,14,0,1,18,5,57381198,12811619,6131051,68065240,30010309,0,0,0,3140110,4120160,0,20110619,0,10811619,0,0,0,0,0,0,0,-2000000,0,0,0,0,0,0,0,4030011,2101040,0,0,0,30001209,4081140,0,30810619,2051201,1121071
20,329,943.38287669234,0,0,1502539.67670647,1502540.72372752,1,5,14,1,0,8,0,4161090,3101150,0,8504434,0,0,0,0,0,0,0,-1130070,3031020,0,0,0,0,0,2080120,0,0,1021030,0,0,0,0,0,0,0,0,0,0,3021181,0,0,0,1191161,0,1161001,3131091
20,330,690.608655568212,1,0,1502542.73543919,1502543.78246871,1,5,14,1,1,28,10,70904907,61563578,125515648,24251800,0,12000809,2181150,0,0,4011030,21711509,0,31000409,0,10610709,0,30100419,4090140,2160091,4101110,0,10501109,0,1080011,40311509,0,0,40911519,0,3101100,40111509,-3041191,0,0,0,0,0,0,0,21210609
20,331,687.602110439911,1,0,1502545.52359902,1502546.57061353,1,5,14,0,1,33,10,47044863,136134906,40801438,88975259,0,3101101,3191011,4061050,3070011,0,0,31611519,2010171,0,0,0,21600219,40712009,3010140,40711719,30100819,0,0,10100619,0,30700819,0,0,0,0,0,0,0,0,0,3021071,-1130161,22001209,21211709,41611109
20,332,1094.52624921687,1,0,1502548.32352172,1502549.37055433,1,5,14,0,1,10,0,3201110,6432511,3151181,2250371,0,0,0,0,0,0,3201110,0,0,-3191181,0,0,1180200,0,0,2061130,0,0,0,0,0,0,2070080,1081101,0,0,0,0,0,0,0,0,0,1150201,0,1100170
20,333,553.770047379658,1,0,1502551.62935203,1502552.67634383,1,5,14,1,1,17,0,4100141,11302621,3091130,6170271,0,0,0,0,0,0,4100141,0,0,3011200,0,0,0,1170150,0,4111160,-3010111,0,0,0,3091130,0,0,0,0,0,0,0,0,0,2100071,0,0,4070200,0,0
20,334,1154.47506471537,0,0,1502554.41746298,1502555.46448018,1,5,14,1,0,1,10,34176051,104813266,94516156,18863991,-4071051,3121000,0,3091000,0,1001010,1091071,0,21800919,41501219,0,20500609,0,0,0,30801319,0,12010119,0,40611909,0,21901419,10702009,21300819,0,0,0,11701609,0,0,0,0,3041061,2071171,2050150,0
20,335,917.876133229584,1,0,1502557.6879608,1502558.7349884,1,5,14,0,1,7,0,10452442,3161190,7222062,1111151,2160111,0,4101171,0,0,0,-4191160,0,0,0,0,0,0,1120180,0,2041010,0,0,0,0,0,0,4111011,0,0,0,3111051,0,0,1111151,0,0,0,0,0,0
20,336,1740.1465869043,0,0,1502560.79376193,1502561.84078838,1,5,14,0,0,19,5,54593130,3100060,25171971,79125201,30911519,0,1080191,20500219,0,0,2101201,0,0,0,3100060,0,0,0,0,0,0,0,-2050141,0,0,21101819,0,0,2020011,0,0,0,0,0,0,2091021,30401409,40501619,4101081,2030071
20,337,1446.24275155365,1,1,1502567.74650489,1502568.79353288,1,5,15,1,0,1,10,34176051,104813266,94516156,18863991,-4071051,3121000,0,3091000,0,1001010,1091071,0,21800919,41501219,0,20500609,0,0,0,30801319,0,12010119,0,40611909,0,21901419,10702009,21300819,0,0,0,11701609,0,0,0,0,3041061,2071171,2050150,0
20,338,1809.34909405187,1,0,1502571.39345873,1502572.44049249,1,5,15,0,1,27,5,36392701,71012338,5321221,93123790,4151091,0,0,0,0,0,0,1130201,31111409,0,30210619,0,0,0,40801719,0,0,0,1000101,0,0,0,0,3131010,0,0,-1190110,2180021,42001119,4151170,0,0,0,0,40611309,4180171
