sub_id,Trial,RT,Resp,Error,Fix_onset,Disp_onset,q1,q2,block,repeat,tid,tloc,d_setsize,quad1,quad2,quad3,quad4,loc1,loc2,loc3,loc4,loc5,loc6,loc7,loc8,loc9,loc10,loc11,loc12,loc13,loc14,loc15,loc16,loc17,loc18,loc19,loc20,loc21,loc22,loc23,loc24,loc25,loc26,loc27,loc28,loc29,loc30,loc31,loc32,loc33,loc34,loc35,loc36
3,1,1669.11422702833,1,0,189050.837876664,189051.884956235,0,50,1,1,1,9,20,113274958,107216024,140766167,151354557,0,1080071,32001609,41800319,21511709,11700019,0,1041180,-4140051,10101609,11211719,21300619,20611009,20500609,0,21300419,2190040,0,21100609,0,21300119,2031131,41201309,20701309,30301609,4130081,0,21510809,0,11200709,30611419,41710909,40100419,0,4150201,2070091
3,2,1443.98289761739,0,0,189054.69676114,189055.743821077,0,50,1,1,0,3,5,27463290,68752719,74232568,7112081,0,21212019,-4190100,0,2061171,0,0,0,0,0,31901409,0,31601219,0,2160011,3090080,0,0,30700809,0,0,0,2141070,1180070,40210619,0,0,3031081,0,0,4081000,0,0,0,0,0
3,3,1076.19619986508,0,0,189058.20267799,189059.249755635,0,50,1,1,0,34,5,4161000,54124209,60162848,52013989,0,0,0,0,0,0,0,4161000,0,1161101,31100309,0,0,0,1161080,0,20701719,0,31001909,21810719,0,0,0,4200180,3150040,0,0,0,2011170,0,41801619,0,4130010,-4071190,0,0
3,4,523.242124938406,1,0,189061.508602231,189062.555667558,0,50,1,0,1,22,10,41511220,4020061,107342108,137965556,2110161,3060150,0,22010219,0,0,4120071,10210619,0,4020061,0,0,0,0,0,0,0,0,20900019,0,0,-4030161,0,41111909,41300019,0,0,0,10100119,32011219,1160170,2030110,40211609,1050001,11201819,40200509
3,5,815.608426055405,0,0,189064.238083234,189065.285122384,0,50,1,1,0,6,10,67695590,40124137,104454407,69572988,41011809,1000071,1011200,0,0,-1101200,0,21410109,2161201,0,0,20101109,0,0,10011319,10011709,0,0,0,0,0,0,40000409,30711419,3031060,30711519,0,31210819,0,0,30110809,2060200,2171000,0,0,4020160
3,6,930.984390608501,1,0,189067.249851106,189068.296710394,0,50,1,1,1,23,10,16821350,41444299,150375946,47082029,0,0,4071080,0,1040061,0,0,11710209,0,20010109,3121190,0,11200819,0,0,3021151,0,4091030,0,20312019,31700709,31800609,-3100140,41311319,20110119,2041031,0,4080101,11401319,0,31600609,0,0,0,0,0
3,7,1303.13607590506,0,0,189070.320472964,189071.367536751,0,50,1,1,0,14,0,3110171,9562260,3190070,6071311,0,0,0,0,0,0,3110171,0,0,0,1131160,0,0,-4170010,1060050,0,0,3201040,0,0,0,3190070,0,0,0,0,0,0,0,2061201,0,0,0,0,4010110,0
3,8,1057.76080439682,0,0,189073.6970002,189074.744048974,0,50,1,1,0,17,5,11240331,7121191,91594009,74873359,0,0,0,4130141,0,0,3090160,4020030,0,0,0,0,3081111,0,0,0,-4040080,0,30601509,32000709,0,0,4061191,0,4030181,20900419,0,2061031,0,0,0,0,0,0,31211319,41601009
3,9,1533.63106638426,1,0,189076.94407392,189077.991141556,0,50,1,1,1,19,0,0,6301230,11302303,6241181,0,0,0,0,0,0,0,0,0,0,0,0,0,0,2100190,0,0,4201040,-4010160,0,0,0,0,3150031,0,2091101,2051011,0,0,0,0,0,0,2130180,0,4111001
3,10,1456.52608061209,1,0,189080.602943074,189081.650009941,0,50,1,0,1,26,5,24151000,61710128,17421651,51743889,0,0,0,0,21110909,0,0,3040091,0,0,21410009,40300119,0,0,0,0,0,0,4060070,3030090,3120080,2040140,1141200,0,0,-4030071,0,0,0,0,0,0,1030051,40401919,0,10311919
3,11,907.462036178913,1,0,189084.297099289,189085.344167311,0,50,1,0,1,24,20,118550063,150383965,102985249,117573636,10511009,11102019,1060170,3051100,41501009,10511709,10501209,10201519,20110319,10800519,20901009,20910609,0,4050001,0,41900509,41010609,10810709,40501219,4140021,2120111,40011719,1100020,-4010140,11102019,0,0,41811119,0,0,20611319,3030080,0,21810209,30310909,0
3,12,1044.11162855104,0,0,189087.379499798,189088.426557041,0,50,1,0,0,27,10,101044499,51813518,39371769,100092478,0,21300919,41911219,0,4140040,2120161,1070151,0,30502009,0,10411809,0,0,41401709,0,0,0,0,4151080,0,0,31110519,0,3100020,0,0,-1010150,11710219,0,1010021,0,22010109,30500809,30810309,0,4051011
3,13,837.556975253392,0,0,189090.603066261,189091.650134283,0,50,1,0,0,11,20,248157183,130827178,234177964,95971898,0,20510909,31311809,41700419,40410909,40310509,0,32002019,41910609,30301919,-2040170,0,1140091,40001619,30210109,4001091,21111019,2021160,41900509,3140090,42011819,21601619,40511919,40810219,4091170,40110619,0,41710909,0,0,0,1200121,30600309,0,1160040,21300519
3,14,769.098597607808,0,0,189093.544275023,189094.591340735,0,50,1,0,0,29,5,54882368,68342499,42432859,12353382,0,10810509,0,3070040,0,0,41001819,0,0,0,1150050,0,4070031,31612009,31510409,0,0,0,0,41311819,0,0,1121040,0,0,0,0,4191090,-3051151,4081121,0,0,1030020,0,0,0
3,15,1044.54778932268,1,0,189096.414897728,189097.461955741,0,50,1,0,1,36,20,179234694,145587056,151565475,60684599,0,30310719,21812019,0,31600219,0,21900209,31700109,41911419,40500919,21301009,0,30200519,1031141,0,11111819,40311619,1130030,41800319,11501219,30501619,2200051,40110519,1041140,10100219,4000070,10310319,2010141,11210619,3170021,0,21501619,21602009,0,0,-1190190
3,16,1122.42693160078,0,0,189099.56787313,189100.614940382,0,50,1,1,0,33,0,0,2000031,12495371,8030170,0,0,0,0,0,0,0,0,0,0,2000031,0,0,0,0,0,0,0,0,1101171,3131080,0,0,4011020,2171090,2081010,0,0,0,4020170,0,0,-4010000,0,0,0
3,17,1101.73220027355,0,0,189102.932616711,189103.979683578,0,50,1,0,0,13,0,4031041,6300441,4272201,4321211,0,0,0,0,0,4031041,0,0,0,0,3100050,0,-1140190,0,2060201,0,0,0,0,0,0,0,3071191,0,1201010,0,0,0,0,0,2160200,0,0,0,2161011,0
3,18,929.334748070687,1,0,189106.120893803,189107.167952201,0,50,1,1,1,20,20,136574117,173438066,126916638,159936466,0,20611009,40411309,31200409,0,0,0,40310309,4041081,3101061,0,40611009,11211519,41600609,21501309,4090031,41111519,10211009,30200809,-2101191,41900409,1061031,0,10100819,40501309,0,1051070,31811719,10610119,20111519,0,41010909,3000131,3180151,30011709,20200209
3,19,730.73338821996,1,0,189109.144512698,189110.191522206,0,50,1,1,1,28,10,118422916,43873190,85953188,65694518,20310309,0,41810009,0,31500409,2011070,0,2191010,20600109,1031071,40711009,0,0,2131110,0,0,0,0,1031020,1001131,0,0,21900409,0,30110619,0,31910009,-2171100,0,0,1021190,40701609,0,0,0,21800619
3,20,693.881460378179,1,0,189111.956254084,189113.003319411,0,50,1,0,1,15,5,19714100,77603489,13740480,24942660,4111200,0,0,0,0,0,10410819,4151080,1041001,2111200,0,40901409,0,1140111,-3040060,0,0,30410709,11700309,0,0,0,0,0,0,0,2040171,0,0,3141141,0,0,0,0,0,21801519
3,21,1078.5991261946,0,0,189114.74458253,189115.791585878,0,50,1,0,0,25,0,0,7122480,10671422,0,0,0,0,0,0,0,0,0,0,0,0,0,0,0,0,1061130,2061170,4000180,0,0,1191110,2040040,0,0,-1180111,2150100,4110061,0,0,0,0,0,0,0,0,0
3,22,904.775008675642,1,0,189117.944569749,189118.991624682,0,50,1,1,1,12,20,177026893,100636442,169537294,138956806,0,0,20011409,10600909,41311009,31900809,21600419,10601619,41000719,0,41300919,-4201170,2011080,2141201,4050201,2090131,3041021,41800719,31101409,11410409,31901609,0,3011030,30101109,0,40601009,21410719,10711009,11611619,0,0,0,41500319,3131121,30301219,41701519
3,23,922.697636153316,1,0,189121.003424891,189122.050529099,0,50,1,0,1,4,0,8510514,7051121,0,8102201,0,0,1170171,-2010111,3200201,0,2130031,0,0,0,0,3031111,0,0,0,4020010,0,0,0,0,0,0,0,0,0,0,0,0,0,0,4091150,4011051,0,0,0,0
3,24,2094.73476486164,1,0,189124.10933535,189125.156403372,0,50,1,0,1,2,10,74334637,47494878,47601438,41614561,11811409,-1000000,0,0,0,30811209,30712019,0,0,0,4021000,0,0,0,11611019,30701809,0,1161050,0,11000009,4191201,0,0,0,0,20410219,12000009,3191171,0,0,20600709,1030061,1080131,4111170,0,11601319
3,25,858.630893140798,0,0,189133.215328577,189134.262390824,0,50,2,1,0,6,10,67695590,40124137,104454407,69572988,41011809,1000071,1011200,0,0,-1101200,0,21410109,2161201,0,0,20101109,0,0,10011319,10011709,0,0,0,0,0,0,40000409,30711419,3031060,30711519,0,31210819,0,0,30110809,2060200,2171000,0,0,4020160
3,26,792.20241465373,1,0,189136.238895502,189137.285961984,0,50,2,1,1,17,5,11240331,7121191,91594009,74873359,0,0,0,4130141,0,0,3090160,4020030,0,0,0,0,3081111,0,0,0,-4040080,0,30601509,32000709,0,0,4061191,0,4030181,20900419,0,2061031,0,0,0,0,0,0,31211319,41601009
3,27,1281.25989934779,1,0,189139.203637697,189140.2506934,0,50,2,0,1,27,5,6182231,45043208,43943661,74111299,0,0,4141161,0,0,0,0,0,2041070,3020180,10911719,0,0,31111309,0,0,0,0,0,3110090,31401419,0,0,0,4161151,4110000,-1161001,0,0,3110171,0,0,30700119,40301009,0,0
3,28,1655.5994025548,1,0,189142.6743183,189143.721327808,0,50,2,0,1,36,5,76543029,68232710,21800909,12231393,0,0,0,0,30511119,4021001,0,42010909,0,0,0,30110219,2161111,1040200,31800119,0,0,3121061,0,0,0,0,0,0,0,0,21800909,0,4050030,4071131,0,1070141,0,0,0,-3040091
3,29,715.507027343847,0,0,189146.521364841,189147.568436328,0,50,2,0,0,22,10,107055569,34541850,56125660,112912247,3000051,40801719,0,2041061,40301019,0,0,0,20911719,1091081,0,11110619,0,0,20210109,0,0,2130041,4001190,0,3201120,-3040031,20700909,0,21111319,4071091,0,0,40711219,0,41000219,31200809,0,0,0,0
3,30,838.99903902784,0,0,189149.439047484,189150.486118201,0,50,2,1,0,33,0,0,2000031,12495371,8030170,0,0,0,0,0,0,0,0,0,0,2000031,0,0,0,0,0,0,0,0,1101171,3131080,0,0,4011020,2171090,2081010,0,0,0,4020170,0,0,-4010000,0,0,0
3,31,1537.08878572797,0,0,189152.356717038,189153.403793914,0,50,2,0,0,15,10,69605099,171348046,53432909,52011840,0,0,0,4001130,0,20601309,3191051,41811609,0,41111909,20611309,30411909,30610019,0,-4121001,41400719,0,3081180,0,0,0,0,30400709,0,20911109,2121091,0,0,4190090,40711419,0,0,0,3040190,0,4070141
3,32,702.208165981574,1,0,189155.968539344,189157.015601591,0,50,2,1,1,23,10,16821350,41444299,150375946,47082029,0,0,4071080,0,1040061,0,0,11710209,0,20010109,3121190,0,11200819,0,0,3021151,0,4091030,0,20312019,31700709,31800609,-3100140,41311319,20110119,2041031,0,4080101,11401319,0,31600609,0,0,0,0,0
3,33,675.900703819934,0,0,189158.897980619,189159.94505249,0,50,2,0,0,11,5,54503501,46881390,11651009,64061289,4060041,41301309,3081040,0,2061031,0,0,4000080,0,0,-1030120,41711109,0,4140161,0,0,0,0,0,0,0,0,10510919,0,0,1140090,0,0,0,40610109,0,3050061,0,0,20401119,0
3,34,1832.24181926926,1,0,189161.768607174,189162.815671346,0,50,2,0,1,4,0,3110201,9290371,2161191,8221380,0,0,0,-3110201,0,0,0,0,0,0,0,0,0,0,4140180,0,1030001,4120190,1011080,0,0,0,0,0,0,0,1150111,0,0,0,4030200,0,0,0,0,4191180
3,35,820.851979311556,0,0,189165.803963913,189166.851016921,0,50,2,0,0,24,20,138676738,105855906,130984795,164184715,41801419,1021181,2130191,21101709,1021000,0,40801219,30800019,0,30101919,30811609,3020121,0,0,20100919,10810219,0,11011119,0,20410709,0,21711619,31510209,-2201130,10900409,4040110,40210609,31710309,0,31810919,21410319,3131030,10010509,3090001,21711009,41310619
3,36,1379.38413856318,0,0,189168.792246856,189169.839277152,0,50,2,0,0,26,10,35402171,68556390,117844296,77943888,0,0,0,0,3030161,1071201,0,31300809,0,0,0,3161201,20602019,41602009,0,0,3191161,0,31600419,41400209,2031100,0,0,10111809,0,-1100150,31600609,0,40700919,3020131,4120200,0,20001319,0,10101319,0
3,37,1073.6204260611,0,0,189172.404021811,189173.451085214,0,50,2,1,0,20,20,136574117,173438066,126916638,159936466,0,20611009,40411309,31200409,0,0,0,40310309,4041081,3101061,0,40611009,11211519,41600609,21501309,4090031,41111519,10211009,30200809,-2101191,41900409,1061031,0,10100819,40501309,0,1051070,31811719,10610119,20111519,0,41010909,3000131,3180151,30011709,20200209
3,38,889.967870258261,1,0,189175.674652447,189176.72170892,0,50,2,1,1,28,10,118422916,43873190,85953188,65694518,20310309,0,41810009,0,31500409,2011070,0,2191010,20600109,1031071,40711009,0,0,2131110,0,0,0,0,1031020,1001131,0,0,21900409,0,30110619,0,31910009,-2171100,0,0,1021190,40701609,0,0,0,21800619
3,39,1034.85524223652,0,0,189178.721740101,189179.768830066,0,50,2,1,0,3,5,27463290,68752719,74232568,7112081,0,21212019,-4190100,0,2061171,0,0,0,0,0,31901409,0,31601219,0,2160011,3090080,0,0,30700809,0,0,0,2141070,1180070,40210619,0,0,3031081,0,0,4081000,0,0,0,0,0
3,40,1800.12876083492,0,0,189181.992368427,189183.039432599,0,50,2,1,0,9,20,113274958,107216024,140766167,151354557,0,1080071,32001609,41800319,21511709,11700019,0,1041180,-4140051,10101609,11211719,21300619,20611009,20500609,0,21300419,2190040,0,21100609,0,21300119,2031131,41201309,20701309,30301609,4130081,0,21510809,0,11200709,30611419,41710909,40100419,0,4150201,2070091
3,41,992.893727554474,1,0,189185.88653496,189186.933591433,0,50,2,1,1,34,5,4161000,54124209,60162848,52013989,0,0,0,0,0,0,0,4161000,0,1161101,31100309,0,0,0,1161080,0,20701719,0,31001909,21810719,0,0,0,4200180,3150040,0,0,0,2011170,0,41801619,0,4130010,-4071190,0,0
3,42,1033.459373808,0,0,189189.015986167,189190.06304264,0,50,2,1,0,14,0,3110171,9562260,3190070,6071311,0,0,0,0,0,0,3110171,0,0,0,1131160,0,0,-4170010,1060050,0,0,3201040,0,0,0,3190070,0,0,0,0,0,0,0,2061201,0,0,0,0,4010110,0
3,43,660.246266343165,1,0,189192.098374742,189193.145436219,0,50,2,0,1,29,20,80715305,135563755,191857476,107134048,10800819,11300609,0,21900509,3101140,21911809,0,11700419,0,31300119,0,10300409,2140180,31200119,0,30511409,0,30111519,31000519,42001109,3160141,41600819,21611219,2070041,10311819,40101809,0,11311019,-4151090,4021030,2200091,30300509,3140191,0,20910109,31100009
3,44,1255.26964504388,0,0,189194.910172333,189195.95723535,0,50,2,0,0,2,0,6391251,5081120,8182171,3030191,0,-2201150,0,0,1080090,0,0,0,3110011,0,1011120,0,0,0,0,0,0,4070000,0,0,4081060,0,0,0,4101111,0,0,0,0,0,0,0,0,3030191,0,0
3,45,1424.74639840657,0,0,189198.286676856,189199.333742568,0,50,2,1,0,19,0,0,6301230,11302303,6241181,0,0,0,0,0,0,0,0,0,0,0,0,0,0,2100190,0,0,4201040,-4010160,0,0,0,0,3150031,0,2091101,2051011,0,0,0,0,0,0,2130180,0,4111001
3,46,1690.76943598338,1,0,189201.886720896,189202.933784298,0,50,2,0,1,25,20,88923357,208940585,144146975,191046385,0,21600609,21800109,3061120,0,0,0,1150100,41311419,0,1101201,41601719,40811909,31710709,31401319,0,41601719,20712009,1120190,0,41411209,41212009,11100319,3010050,-4180170,11501109,30611919,30901409,40311209,10700809,41811419,21300219,0,1190101,41800219,3031000
3,47,719.986048119608,1,0,189205.710291747,189206.757360539,0,50,2,0,1,13,0,2200060,10272301,5180211,4150202,0,0,0,2200060,0,0,0,0,0,0,0,4041080,-2201060,0,0,0,4030161,0,2180100,0,3000111,0,0,0,0,0,0,2140141,0,0,0,0,0,0,0,2010061
3,48,1374.55210858025,1,0,189208.592676165,189209.639753811,0,50,2,1,1,12,20,177026893,100636442,169537294,138956806,0,0,20011409,10600909,41311009,31900809,21600419,10601619,41000719,0,41300919,-4201170,2011080,2141201,4050201,2090131,3041021,41800719,31101409,11410409,31901609,0,3011030,30101109,0,40601009,21410719,10711009,11611619,0,0,0,41500319,3131121,30301219,41701519
3,49,1525.19118227065,0,0,189221.581066897,189222.62812876,0,50,3,0,0,2,10,100853367,7272292,135273976,88783067,11410009,-3011150,0,40600609,0,41710519,4121080,0,0,1171000,0,0,0,0,0,0,3101121,3000171,41500009,0,30211109,0,3151030,30210019,30201809,0,0,21800909,0,30000419,3090070,2090160,0,31801509,0,0
3,50,1408.73086752254,0,0,189225.216404927,189226.263496047,0,50,3,1,0,14,0,3110171,9562260,3190070,6071311,0,0,0,0,0,0,3110171,0,0,0,1131160,0,0,-4170010,1060050,0,0,3201040,0,0,0,3190070,0,0,0,0,0,0,0,2061201,0,0,0,0,4010110,0
3,51,742.464688577456,1,0,189228.698806052,189229.745868685,0,50,3,1,1,28,10,118422916,43873190,85953188,65694518,20310309,0,41810009,0,31500409,2011070,0,2191010,20600109,1031071,40711009,0,0,2131110,0,0,0,0,1031020,1001131,0,0,21900409,0,30110619,0,31910009,-2171100,0,0,1021190,40701609,0,0,0,21800619
3,52,1037.82329126261,1,0,189231.581183155,189232.628301222,0,50,3,0,1,26,20,169125494,147646598,129406206,132985587,0,41010409,31501209,10111619,40510109,0,3181110,32000919,10810119,4011161,4160001,0,41811519,40410509,11900309,41301909,4051190,0,40600709,2191130,0,10901009,0,31600509,30801119,-3000011,10311719,2180201,41611919,20801819,12000419,41700409,11500619,0,0,3190201
3,53,1448.67942132987,0,0,189234.72239723,189235.769461402,0,50,3,0,0,4,0,4351333,2200070,2140010,9240373,0,0,0,-1150061,0,0,2050191,0,1151081,0,0,0,0,0,0,0,0,2200070,0,0,0,0,0,0,2140010,0,0,3020181,0,4090051,0,0,2130141,0,0,0
3,54,672.306708263932,0,0,189238.357735645,189239.404803282,0,50,3,0,0,29,5,2100120,20703172,70495580,45271638,0,2100120,0,0,0,0,0,0,0,0,0,4051041,10310909,0,4170181,0,0,2171041,21001909,0,0,4161201,0,41101419,3161001,0,1070050,0,-4060020,0,0,0,0,0,20700209,20511409
3,55,681.369844212895,0,0,189241.169536315,189242.216597793,0,50,3,1,0,23,10,16821350,41444299,150375946,47082029,0,0,4071080,0,1040061,0,0,11710209,0,20010109,3121190,0,11200819,0,0,3021151,0,4091030,0,20312019,31700709,31800609,-3100140,41311319,20110119,2041031,0,4080101,11401319,0,31600609,0,0,0,0,0
3,56,1161.95010356023,0,0,189244.040199441,189245.087216648,0,50,3,1,0,6,10,67695590,40124137,104454407,69572988,41011809,1000071,1011200,0,0,-1101200,0,21410109,2161201,0,0,20101109,0,0,10011319,10011709,0,0,0,0,0,0,40000409,30711419,3031060,30711519,0,31210819,0,0,30110809,2060200,2171000,0,0,4020160
3,57,652.74915160262,1,0,189247.346072868,189248.393143199,0,50,3,0,1,24,10,42713127,80107850,105774129,79381679,21611009,10100209,0,0,0,0,0,11001909,0,2121151,2201031,0,0,41901909,0,1181170,1191070,31511519,40400319,20111819,0,1010081,0,-3041101,41210809,0,0,32010309,0,0,4031080,0,0,0,41310119,2030171
3,58,870.617422595387,1,0,189250.181398887,189251.228468834,0,50,3,0,1,27,5,47742240,44032008,18991881,36513019,41601019,2010050,0,0,0,0,0,4131171,0,10700309,0,2031080,0,0,0,0,31300619,0,0,2050160,0,3180071,11711619,0,0,0,-2050031,0,0,0,0,2151200,0,31211819,3150000,0
3,59,889.053587976377,1,0,189253.204961193,189254.25203191,0,50,3,1,1,19,0,0,6301230,11302303,6241181,0,0,0,0,0,0,0,0,0,0,0,0,0,0,2100190,0,0,4201040,-4010160,0,0,0,0,3150031,0,2091101,2051011,0,0,0,0,0,0,2130180,0,4111001
3,60,1990.44383599539,0,0,189256.228526578,189257.275598835,0,50,3,0,0,36,20,160129425,62153969,150058573,97714467,20800719,21211619,2080131,41011409,20312009,0,20810409,30802019,3101110,3070200,2101041,0,1011190,10711219,21900209,2150001,0,21210109,21910209,40410819,11000519,11411119,10111919,21711719,3001160,30501109,0,0,0,0,20100719,22001019,0,21401109,31210519,-3001101
3,61,624.343652219977,1,0,189260.440339798,189261.487413594,0,50,3,0,1,22,0,4111171,1140110,8431272,5582410,0,0,0,4111171,0,0,0,0,0,0,0,1140110,0,0,0,0,0,0,0,0,0,-3191071,4100020,0,0,1140181,0,0,0,0,2191160,0,0,2201070,1190180,0
3,62,742.59095574962,0,0,189263.205129036,189264.252144318,0,50,3,0,0,15,5,25910859,12323422,17332939,45221968,0,0,0,0,0,21910709,0,0,4000150,4101020,0,2120101,0,0,-2071161,0,0,4031140,0,0,0,3111020,0,4120100,10101819,0,0,0,3010041,0,10511209,20000609,11700109,0,0,0
3,63,1038.87077001855,0,0,189266.063978095,189267.111008391,0,50,3,1,0,20,20,136574117,173438066,126916638,159936466,0,20611009,40411309,31200409,0,0,0,40310309,4041081,3101061,0,40611009,11211519,41600609,21501309,4090031,41111519,10211009,30200809,-2101191,41900409,1061031,0,10100819,40501309,0,1051070,31811719,10610119,20111519,0,41010909,3000131,3180151,30011709,20200209
3,64,987.502734264126,0,0,189269.35808442,189270.405165145,0,50,3,1,0,12,20,177026893,100636442,169537294,138956806,0,0,20011409,10600909,41311009,31900809,21600419,10601619,41000719,0,41300919,-4201170,2011080,2141201,4050201,2090131,3041021,41800719,31101409,11410409,31901609,0,3011030,30101109,0,40601009,21410719,10711009,11611619,0,0,0,41500319,3131121,30301219,41701519
3,65,680.728114268277,1,0,189272.51107522,189273.558136697,0,50,3,1,1,17,5,11240331,7121191,91594009,74873359,0,0,0,4130141,0,0,3090160,4020030,0,0,0,0,3081111,0,0,0,-4040080,0,30601509,32000709,0,0,4061191,0,4030181,20900419,0,2061031,0,0,0,0,0,0,31211319,41601009
3,66,915.670173795661,1,0,189275.322896678,189276.369940447,0,50,3,1,1,3,5,27463290,68752719,74232568,7112081,0,21212019,-4190100,0,2061171,0,0,0,0,0,31901409,0,31601219,0,2160011,3090080,0,0,30700809,0,0,0,2141070,1180070,40210619,0,0,3031081,0,0,4081000,0,0,0,0,0
3,67,1008.76181837521,0,0,189278.475851677,189279.522920854,0,50,3,1,0,33,0,0,2000031,12495371,8030170,0,0,0,0,0,0,0,0,0,0,2000031,0,0,0,0,0,0,0,0,1101171,3131080,0,0,4011020,2171090,2081010,0,0,0,4020170,0,0,-4010000,0,0,0
3,68,785.508328524884,0,0,189281.711181777,189282.758252109,0,50,3,0,0,11,20,116791557,138038405,89054449,179386544,30300109,2100180,1081030,41300119,0,0,0,0,42010119,11700709,-1051101,10401709,1081021,10401109,20300919,21400819,21200509,40500509,31201219,0,0,31810219,1040161,1011151,10601119,2190161,11200419,41200419,21610609,0,3060170,41511209,10300909,20101619,0,41601609
3,69,1481.9935579435,1,0,189284.59356581,189285.640632292,0,50,3,0,1,13,0,7362530,3161320,4141080,2030111,0,1131010,2031190,0,3120140,1080190,0,0,0,0,0,0,-1061170,2100150,0,0,0,0,0,0,0,0,0,0,0,4141080,0,0,2030111,0,0,0,0,0,0,0
3,70,1095.21404127008,0,0,189288.264196291,189289.311269702,0,50,3,0,0,25,10,74634968,72151739,92642072,90431558,0,2001031,0,0,0,20911509,0,10411819,41310609,0,40501119,0,0,0,0,1040011,0,30610609,4030151,1081011,41500109,0,1080011,40910719,-4040071,0,0,21610009,0,0,4060040,41700119,1051181,0,0,22010209
3,71,1000.38044832763,1,0,189291.570120147,189292.617186629,0,50,3,1,1,9,20,113274958,107216024,140766167,151354557,0,1080071,32001609,41800319,21511709,11700019,0,1041180,-4140051,10101609,11211719,21300619,20611009,20500609,0,21300419,2190040,0,21100609,0,21300119,2031131,41201309,20701309,30301609,4130081,0,21510809,0,11200709,30611419,41710909,40100419,0,4150201,2070091
3,72,1147.09407510236,1,0,189294.652511032,189295.69956943,0,50,3,1,1,34,5,4161000,54124209,60162848,52013989,0,0,0,0,0,0,0,4161000,0,1161101,31100309,0,0,0,1161080,0,20701719,0,31001909,21810719,0,0,0,4200180,3150040,0,0,0,2011170,0,41801619,0,4130010,-4071190,0,0
3,73,624.605425691698,1,0,189304.652616126,189305.69971456,0,50,4,0,1,15,0,6241222,1140181,2281312,6422122,2181051,4060171,0,0,0,0,0,0,0,0,0,0,0,0,-1140181,0,0,0,0,0,0,1170171,0,0,0,0,1111141,0,0,1091011,2150030,0,3181081,0,0,0
3,74,1125.55358451209,1,0,189307.499720411,189308.546783814,0,50,4,1,1,6,10,67695590,40124137,104454407,69572988,41011809,1000071,1011200,0,0,-1101200,0,21410109,2161201,0,0,20101109,0,0,10011319,10011709,0,0,0,0,0,0,40000409,30711419,3031060,30711519,0,31210819,0,0,30110809,2060200,2171000,0,0,4020160
3,75,1012.53174105659,1,0,189310.852694581,189311.899767608,0,50,4,1,1,33,0,0,2000031,12495371,8030170,0,0,0,0,0,0,0,0,0,0,2000031,0,0,0,0,0,0,0,0,1101171,3131080,0,0,4011020,2171090,2081010,0,0,0,4020170,0,0,-4010000,0,0,0
3,76,1549.96765468968,1,0,189314.017494059,189315.064506646,0,50,4,1,1,20,20,136574117,173438066,126916638,159936466,0,20611009,40411309,31200409,0,0,0,40310309,4041081,3101061,0,40611009,11211519,41600609,21501309,4090031,41111519,10211009,30200809,-2101191,41900409,1061031,0,10100819,40501309,0,1051070,31811719,10610119,20111519,0,41010909,3000131,3180151,30011709,20200209
3,77,788.865958020324,0,0,189317.817483357,189318.864548684,0,50,4,0,0,13,0,5281251,6150281,4201050,7292441,0,0,4141081,0,0,0,0,1140170,0,0,0,0,-4100110,0,0,0,0,2050171,0,0,0,0,4201050,0,0,0,0,0,1051100,0,3100180,0,3141161,0,0,0
3,78,1242.00042564189,1,0,189320.782223243,189321.82928395,0,50,4,0,1,2,5,6201162,12352333,85821528,57672718,3021091,-3180071,0,0,0,0,0,0,0,0,0,4140190,0,3120071,0,0,3051021,2041051,0,4121200,0,0,40700209,41000119,0,0,0,0,0,0,4061081,0,11100409,31910109,10601119,0
3,79,655.013107054401,1,0,189324.088150949,189325.135208192,0,50,4,1,1,3,5,27463290,68752719,74232568,7112081,0,21212019,-4190100,0,2061171,0,0,0,0,0,31901409,0,31601219,0,2160011,3090080,0,0,30700809,0,0,0,2141070,1180070,40210619,0,0,3031081,0,0,4081000,0,0,0,0,0
3,80,1901.07476391131,0,0,189326.89994238,189327.947007322,0,50,4,0,0,26,10,61865920,54962329,51562800,115335556,0,4201041,2020200,0,11610719,1081100,41801709,0,1151151,0,0,0,31810509,20011619,0,0,0,3140201,0,31211019,0,12000709,1090001,0,0,-3071070,4190001,41911619,0,0,0,0,22011709,0,10101209,41311019
3,81,651.511502132053,0,0,189330.970580407,189332.017638804,0,50,4,0,0,27,5,23830060,52221638,30974281,17772930,2030051,21800009,0,0,0,0,0,0,0,0,1011010,0,10710509,0,0,0,40500119,0,0,2041071,3161051,0,0,21602019,0,1080140,-3090000,0,0,10400719,0,0,0,0,3191070,4181141
3,82,857.170351257082,0,0,189333.700020989,189334.747080157,0,50,4,1,0,14,0,3110171,9562260,3190070,6071311,0,0,0,0,0,0,3110171,0,0,0,1131160,0,0,-4170010,1060050,0,0,3201040,0,0,0,3190070,0,0,0,0,0,0,0,2061201,0,0,0,0,4010110,0
3,83,804.920369933825,1,0,189336.700055635,189337.747113648,0,50,4,0,1,11,20,197547094,51826270,99934858,160567353,40011709,1200110,42011019,30911519,0,0,41501009,30910609,11001119,0,-4040000,12001209,3131091,10201709,1201091,20100009,1151161,0,40001509,0,30001509,0,0,4060011,10510419,11201319,4160091,40110909,11601409,0,11000019,30311419,41011419,4021160,11600409,10910609
3,84,1180.05481755245,1,0,189339.605973871,189340.653035349,0,50,4,1,1,34,5,4161000,54124209,60162848,52013989,0,0,0,0,0,0,0,4161000,0,1161101,31100309,0,0,0,1161080,0,20701719,0,31001909,21810719,0,0,0,4200180,3150040,0,0,0,2011170,0,41801619,0,4130010,-4071190,0,0
3,85,1720.71285443963,1,0,189342.853062989,189343.900195299,0,50,4,0,1,36,20,104853865,97932236,155307036,150604366,20010019,40510419,10310619,10200209,2021080,0,1100110,20701409,0,21210009,10710419,0,0,4190171,20700909,30510719,0,10610009,31401809,3001000,21612009,0,41800909,20010519,3070170,4200201,30210419,4020170,21800409,31300619,21210519,0,0,40001619,31211019,-1060011
3,86,1450.5537962541,0,0,189346.688406717,189347.735473969,0,50,4,0,0,24,10,81656857,56572567,60674669,43582270,0,0,4191160,30400819,0,31101919,4151040,11811919,0,4200000,20302019,10000209,0,20900209,1170130,0,0,0,4120091,21200519,20801119,0,0,-4051131,0,10501809,0,0,0,0,0,0,2111171,0,1070180,40400919
3,87,783.495752606541,0,0,189350.194328956,189351.241398133,0,50,4,1,0,23,10,16821350,41444299,150375946,47082029,0,0,4071080,0,1040061,0,0,11710209,0,20010109,3121190,0,11200819,0,0,3021151,0,4091030,0,20312019,31700709,31800609,-3100140,41311319,20110119,2041031,0,4080101,11401319,0,31600609,0,0,0,0,0
3,88,1008.72370722936,1,0,189353.159070767,189354.206140328,0,50,4,1,1,12,20,177026893,100636442,169537294,138956806,0,0,20011409,10600909,41311009,31900809,21600419,10601619,41000719,0,41300919,-4201170,2011080,2141201,4050201,2090131,3041021,41800719,31101409,11410409,31901609,0,3011030,30101109,0,40601009,21410719,10711009,11611619,0,0,0,41500319,3131121,30301219,41701519
3,89,1371.75151758129,0,0,189356.417931221,189357.465056602,0,50,4,1,0,19,0,0,6301230,11302303,6241181,0,0,0,0,0,0,0,0,0,0,0,0,0,0,2100190,0,0,4201040,-4010160,0,0,0,0,3150031,0,2091101,2051011,0,0,0,0,0,0,2130180,0,4111001
3,90,1188.59864110709,0,0,189360.006207774,189361.053270021,0,50,4,0,0,25,0,3120150,7390501,7261362,0,0,0,0,0,3120150,0,0,0,0,0,0,0,0,0,2130180,1070180,0,4190141,0,2030070,0,1091011,0,0,-1110111,0,3030170,0,0,0,0,0,0,0,0,0
3,91,972.124313790118,0,0,189363.323892957,189364.370955589,0,50,4,1,0,9,20,113274958,107216024,140766167,151354557,0,1080071,32001609,41800319,21511709,11700019,0,1041180,-4140051,10101609,11211719,21300619,20611009,20500609,0,21300419,2190040,0,21100609,0,21300119,2031131,41201309,20701309,30301609,4130081,0,21510809,0,11200709,30611419,41710909,40100419,0,4150201,2070091
3,92,653.825502493419,1,0,189366.465103182,189367.512168894,0,50,4,0,1,22,20,147205045,106826684,91827397,85355608,41100209,30712009,31001519,11010609,11700019,0,20500609,1180071,0,21601919,11410509,21102019,0,10501109,0,10900409,0,31310719,11101609,12001009,4090131,-3011201,21101219,0,0,10211409,30310819,3171081,1050200,10501019,0,2151010,3110110,3051060,41610309,20710819
3,93,742.822702246485,0,0,189369.276903852,189370.32396456,0,50,4,0,0,29,5,20012640,82910229,36952411,43521899,11710209,0,1061170,0,4140160,0,0,0,3101101,40410009,0,0,2000201,0,0,0,40500019,0,3111180,0,0,0,1110141,0,0,31710019,1021071,0,-2010180,0,0,0,0,41511719,0,0
3,94,910.86701588938,0,0,189372.076935881,189373.124047018,0,50,4,0,0,4,10,52855927,31453810,98445127,87123790,0,0,10011319,-1031180,10001409,0,0,0,31812019,4130071,0,2170100,0,11112009,3131111,0,10910519,0,0,0,21111509,30610319,0,3061190,0,41610909,2051200,0,0,41911709,0,0,41110919,1071111,3030051,0
3,95,1024.92016975884,1,0,189375.088738399,189376.135792562,0,50,4,1,1,28,10,118422916,43873190,85953188,65694518,20310309,0,41810009,0,31500409,2011070,0,2191010,20600109,1031071,40711009,0,0,2131110,0,0,0,0,1031020,1001131,0,0,21900409,0,30110619,0,31910009,-2171100,0,0,1021190,40701609,0,0,0,21800619
3,96,593.95329412655,0,0,189378.241706487,189379.288770274,0,50,4,1,0,17,5,11240331,7121191,91594009,74873359,0,0,0,4130141,0,0,3090160,4020030,0,0,0,0,3081111,0,0,0,-4040080,0,30601509,32000709,0,0,4061191,0,4030181,20900419,0,2061031,0,0,0,0,0,0,31211319,41601009
3,97,1002.43613985367,1,0,189384.265308058,189385.312373,0,50,5,0,1,36,5,28643180,3160170,106393258,25772840,0,0,0,20300819,3031160,4150121,0,0,1161080,0,3160170,0,0,0,0,0,0,0,2000020,0,0,0,30111419,1170191,0,41901609,31210019,0,0,1011040,0,0,0,0,20610609,-4151191
3,98,737.352791969897,0,0,189387.524173517,189388.571243078,0,50,5,1,0,17,5,11240331,7121191,91594009,74873359,0,0,0,4130141,0,0,3090160,4020030,0,0,0,0,3081111,0,0,0,-4040080,0,30601509,32000709,0,0,4061191,0,4030181,20900419,0,2061031,0,0,0,0,0,0,31211319,41601009
3,99,1126.70269299997,0,0,189390.347746293,189391.394801611,0,50,5,0,0,27,10,69461817,42011709,82784729,129534927,0,11910209,20611109,3030060,3110130,0,0,30800309,0,0,42011709,0,0,0,0,0,0,0,10500709,0,1191080,31811419,0,3120011,31111209,2020140,-3030161,3121090,41410809,0,2191110,0,42000309,0,40811609,0
3,100,1312.95989465434,0,0,189393.700721233,189394.747786175,0,50,5,0,0,2,5,53253611,69232930,55613268,1040140,0,-2081180,0,3151121,3200050,0,41700209,3121051,0,0,0,0,20601109,0,4191111,41310519,0,3130191,4191130,11011419,0,0,0,40410719,0,0,0,0,0,1040140,0,0,0,0,0,0
3,101,712.840787717141,0,0,189397.10076458,189398.147825287,0,50,5,1,0,14,0,3110171,9562260,3190070,6071311,0,0,0,0,0,0,3110171,0,0,0,1131160,0,0,-4170010,1060050,0,0,3201040,0,0,0,3190070,0,0,0,0,0,0,0,2061201,0,0,0,0,4010110,0
3,102,786.849532480119,0,0,189399.959662144,189401.006674346,0,50,5,0,0,26,0,5281313,0,7342341,4141182,0,1141011,0,0,0,2060181,0,0,2080121,0,0,0,0,0,0,0,0,0,0,1171041,2160140,0,0,0,0,-4011160,0,0,1020151,0,0,0,0,0,3121031,0
3,103,811.127480468713,0,0,189402.971407303,189404.01847494,0,50,5,0,0,29,10,74257336,46531848,36031680,89363797,0,4040200,10600209,2011080,2081100,11601419,12011409,31911919,0,1130020,0,21701609,0,0,20610209,3090010,0,0,3160191,0,0,2170080,0,30701409,0,0,0,11300509,-4150160,32001109,41912019,0,0,0,0,0
3,104,1728.05636969861,0,0,189405.983205971,189407.030278613,0,50,5,0,0,13,10,71104388,74426640,35170149,83313146,0,0,31100019,3091070,2121071,1180090,21710619,0,11901519,3111091,31710309,4201030,-1101190,0,0,30101919,0,4201101,0,0,0,0,32000119,0,3170030,0,0,0,0,0,10700709,0,40410519,21801809,10400109,0
3,105,674.440931878053,1,0,189409.853847154,189410.900914021,0,50,5,0,1,22,0,8372472,0,7172231,1090011,0,0,1011201,1140041,0,1080110,2050080,3091040,0,0,0,0,0,0,0,0,0,0,0,0,0,-4021080,3151151,0,0,0,0,1090011,0,0,0,0,0,0,0,0
3,106,673.912765429122,1,0,189412.771527487,189413.818598204,0,50,5,0,1,15,20,115443327,162616136,132550616,144036974,41001209,10101119,20800209,0,41300509,0,1170201,1070080,0,40010719,4181060,0,42000619,10711209,-1170071,1031120,42010119,21501219,2021010,31811419,30901009,11211509,0,1121201,30711819,20611609,4161040,11801119,40011009,0,20111909,41101219,0,20601009,10410709,0
3,107,977.337070158683,1,0,189415.500964605,189416.548040326,0,50,5,1,1,6,10,67695590,40124137,104454407,69572988,41011809,1000071,1011200,0,0,-1101200,0,21410109,2161201,0,0,20101109,0,0,10011319,10011709,0,0,0,0,0,0,40000409,30711419,3031060,30711519,0,31210819,0,0,30110809,2060200,2171000,0,0,4020160
3,108,1008.54508538032,1,0,189418.665713268,189419.712775516,0,50,5,1,1,19,0,0,6301230,11302303,6241181,0,0,0,0,0,0,0,0,0,0,0,0,0,0,2100190,0,0,4201040,-4010160,0,0,0,0,3150031,0,2091101,2051011,0,0,0,0,0,0,2130180,0,4111001
3,109,772.383469506167,0,0,189421.75986702,189422.806929652,0,50,5,1,0,28,10,118422916,43873190,85953188,65694518,20310309,0,41810009,0,31500409,2011070,0,2191010,20600109,1031071,40711009,0,0,2131110,0,0,0,0,1031020,1001131,0,0,21900409,0,30110619,0,31910009,-2171100,0,0,1021190,40701609,0,0,0,21800619
3,110,1296.80423799437,0,0,189424.736408654,189425.783436255,0,50,5,0,0,25,20,119196737,97216235,131156027,164284136,0,20200509,2141121,30111919,0,10211819,4130141,11700419,40700809,20411409,0,0,0,4171150,10710619,20800219,31011319,10111519,41100309,30501919,3201060,30300809,0,1141061,-3110141,11500509,10300219,0,20400119,4200020,4161051,41901209,21310009,31710119,40601609,0
3,111,899.131096026395,1,0,189428.159940394,189429.207005336,0,50,5,1,1,34,5,4161000,54124209,60162848,52013989,0,0,0,0,0,0,0,4161000,0,1161101,31100309,0,0,0,1161080,0,20701719,0,31001909,21810719,0,0,0,4200180,3150040,0,0,0,2011170,0,41801619,0,4130010,-4071190,0,0
3,112,787.753420823719,1,0,189431.230564562,189432.277624884,0,50,5,1,1,23,10,16821350,41444299,150375946,47082029,0,0,4071080,0,1040061,0,0,11710209,0,20010109,3121190,0,11200819,0,0,3021151,0,4091030,0,20312019,31700709,31800609,-3100140,41311319,20110119,2041031,0,4080101,11401319,0,31600609,0,0,0,0,0
3,113,922.716884204419,0,0,189434.242369774,189435.289428557,0,50,5,1,0,33,0,0,2000031,12495371,8030170,0,0,0,0,0,0,0,0,0,0,2000031,0,0,0,0,0,0,0,0,1101171,3131080,0,0,4011020,2171090,2081010,0,0,0,4020170,0,0,-4010000,0,0,0
3,114,1605.42012625956,1,0,189437.230633855,189438.277693792,0,50,5,1,1,9,20,113274958,107216024,140766167,151354557,0,1080071,32001609,41800319,21511709,11700019,0,1041180,-4140051,10101609,11211719,21300619,20611009,20500609,0,21300419,2190040,0,21100609,0,21300119,2031131,41201309,20701309,30301609,4130081,0,21510809,0,11200709,30611419,41710909,40100419,0,4150201,2070091
3,115,1477.44485922158,0,0,189441.077727746,189442.124797692,0,50,5,0,0,4,20,157265416,231381103,148773297,92765649,10700919,40100009,10601309,-1050071,41610719,21001709,2190071,30010609,0,31510819,30311009,31201309,40612009,41311419,31701419,4031110,20702009,0,0,3050011,0,41610419,0,31801519,40201109,30010209,2100030,4100131,0,1171131,0,21301519,21210809,3070050,41912009,0
3,116,848.307780048344,1,0,189444.736601904,189445.783665307,0,50,5,1,1,12,20,177026893,100636442,169537294,138956806,0,0,20011409,10600909,41311009,31900809,21600419,10601619,41000719,0,41300919,-4201170,2011080,2141201,4050201,2090131,3041021,41800719,31101409,11410409,31901609,0,3011030,30101109,0,40601009,21410719,10711009,11611619,0,0,0,41500319,3131121,30301219,41701519
3,117,609.262421610765,1,0,189447.736635781,189448.783703033,0,50,5,0,1,24,5,33801538,45933668,11353233,15662070,0,0,0,0,0,21700109,0,11010419,1091010,0,0,0,30210519,0,11702009,4021140,0,0,0,0,0,2131171,0,-4071031,2091020,0,3060011,0,4170040,1090121,0,0,0,0,0,10401909
3,118,1183.82935976842,0,0,189450.466142192,189451.51314785,0,50,5,1,0,3,5,27463290,68752719,74232568,7112081,0,21212019,-4190100,0,2061171,0,0,0,0,0,31901409,0,31601219,0,2160011,3090080,0,0,30700809,0,0,0,2141070,1180070,40210619,0,0,3031081,0,0,4081000,0,0,0,0,0
3,119,808.62407933455,1,0,189453.901413701,189454.948484417,0,50,5,0,1,11,0,2102171,9562612,4180011,3140151,0,0,1031151,0,0,0,0,1071020,0,2121130,-3180161,0,0,0,2180181,0,2081140,0,0,0,0,4180011,0,0,0,0,0,0,0,0,0,0,3140151,0,0,0
3,120,1185.4662137921,1,0,189456.760268534,189457.807331937,0,50,5,1,1,20,20,136574117,173438066,126916638,159936466,0,20611009,40411309,31200409,0,0,0,40310309,4041081,3101061,0,40611009,11211519,41600609,21501309,4090031,41111519,10211009,30200809,-2101191,41900409,1061031,0,10100819,40501309,0,1051070,31811719,10610119,20111519,0,41010909,3000131,3180151,30011709,20200209
3,121,1099.83857726911,1,0,189466.078025706,189467.125116055,0,50,6,0,1,36,0,0,7481431,7302302,5220340,0,0,0,0,0,0,0,0,0,0,0,4140191,0,2200040,0,0,0,1141200,0,0,0,0,0,3110121,3181141,0,1011040,0,0,0,4050180,0,0,0,0,-1170160
3,122,839.869820716558,1,0,189469.383973814,189470.431067244,0,50,6,1,1,9,20,113274958,107216024,140766167,151354557,0,1080071,32001609,41800319,21511709,11700019,0,1041180,-4140051,10101609,11211719,21300619,20611009,20500609,0,21300419,2190040,0,21100609,0,21300119,2031131,41201309,20701309,30301609,4130081,0,21510809,0,11200709,30611419,41710909,40100419,0,4150201,2070091
3,123,1284.30879017105,0,0,189472.466328513,189473.513399999,0,50,6,0,0,13,0,6021001,7262242,1190010,4331181,2011001,4010000,0,0,0,0,0,0,0,0,0,1160011,-3031191,0,0,0,3071040,0,0,1190010,0,0,0,0,0,0,0,0,0,0,0,3191021,1140160,0,0,0
3,124,888.671706721652,0,0,189475.889909527,189476.936976009,0,50,6,1,0,19,0,0,6301230,11302303,6241181,0,0,0,0,0,0,0,0,0,0,0,0,0,0,2100190,0,0,4201040,-4010160,0,0,0,0,3150031,0,2091101,2051011,0,0,0,0,0,0,2130180,0,4111001
3,125,1431.53826461639,1,0,189478.925224691,189479.972300797,0,50,6,0,1,2,5,41161150,55421079,38015251,13081899,0,-4160071,4080180,0,0,1010180,0,31910719,0,2200151,21910119,0,0,0,0,0,31310809,0,30801919,2071131,0,0,4121090,0,1021111,0,0,0,0,3071090,0,0,0,0,10010809,0
3,126,779.720825434197,0,0,189482.595863257,189483.642923964,0,50,6,0,0,15,20,85332868,153466277,101465905,165156714,20900009,0,20911519,0,0,3111121,0,40410219,0,31810919,11301119,40100809,20910409,3020111,-2141000,2000091,1170100,41011719,0,3021070,3000170,0,11711509,41810819,20300909,10110809,11510619,31701719,41301819,11600819,11401319,42000619,4140091,11700309,0,11310019
3,127,943.639897392131,0,0,189485.548835656,189486.59592485,0,50,6,0,0,26,0,11431211,4000041,10191461,3200081,0,0,0,0,3041010,0,4190001,0,4200200,0,0,4000041,0,0,0,0,0,0,4120200,0,0,2000120,0,0,0,-4071141,0,0,0,0,0,0,0,0,3200081,0
3,128,654.624296468683,0,0,189488.701816447,189489.748880234,0,50,6,1,0,14,0,3110171,9562260,3190070,6071311,0,0,0,0,0,0,3110171,0,0,0,1131160,0,0,-4170010,1060050,0,0,3201040,0,0,0,3190070,0,0,0,0,0,0,0,2061201,0,0,0,0,4010110,0
3,129,988.482844870305,1,0,189491.584205099,189492.643029828,0,50,6,1,1,20,20,136574117,173438066,126916638,159936466,0,20611009,40411309,31200409,0,0,0,40310309,4041081,3101061,0,40611009,11211519,41600609,21501309,4090031,41111519,10211009,30200809,-2101191,41900409,1061031,0,10100819,40501309,0,1051070,31811719,10610119,20111519,0,41010909,3000131,3180151,30011709,20200209
3,130,1126.10292382305,1,0,189494.819531349,189495.866597831,0,50,6,1,1,23,10,16821350,41444299,150375946,47082029,0,0,4071080,0,1040061,0,0,11710209,0,20010109,3121190,0,11200819,0,0,3021151,0,4091030,0,20312019,31700709,31800609,-3100140,41311319,20110119,2041031,0,4080101,11401319,0,31600609,0,0,0,0,0
3,131,1212.39885254181,0,0,189498.14898402,189499.196050117,0,50,6,1,0,3,5,27463290,68752719,74232568,7112081,0,21212019,-4190100,0,2061171,0,0,0,0,0,31901409,0,31601219,0,2160011,3090080,0,0,30700809,0,0,0,2141070,1180070,40210619,0,0,3031081,0,0,4081000,0,0,0,0,0
3,132,882.111971935956,1,0,189501.47843053,189502.525495858,0,50,6,1,1,33,0,0,2000031,12495371,8030170,0,0,0,0,0,0,0,0,0,0,2000031,0,0,0,0,0,0,0,0,1101171,3131080,0,0,4011020,2171090,2081010,0,0,0,4020170,0,0,-4010000,0,0,0
3,133,923.703539156122,1,0,189504.619645375,189505.666710702,0,50,6,1,1,28,10,118422916,43873190,85953188,65694518,20310309,0,41810009,0,31500409,2011070,0,2191010,20600109,1031071,40711009,0,0,2131110,0,0,0,0,1031020,1001131,0,0,21900409,0,30110619,0,31910009,-2171100,0,0,1021190,40701609,0,0,0,21800619
3,134,1055.71088727447,0,0,189507.713804131,189508.760862144,0,50,6,1,0,12,20,177026893,100636442,169537294,138956806,0,0,20011409,10600909,41311009,31900809,21600419,10601619,41000719,0,41300919,-4201170,2011080,2141201,4050201,2090131,3041021,41800719,31101409,11410409,31901609,0,3011030,30101109,0,40601009,21410719,10711009,11611619,0,0,0,41500319,3131121,30301219,41701519
3,135,948.84456958971,0,0,189510.984427837,189512.031488545,0,50,6,0,0,4,10,5312412,85864818,161015087,78423789,0,0,0,-3171181,0,1040160,0,0,1101071,0,0,0,41511709,4151091,0,0,20001709,20200309,0,22010619,40600819,30311509,30900709,31000209,2000151,0,4191071,0,0,4120111,0,41901909,0,0,2200060,30201709
3,136,1590.99217440235,1,0,189514.137399389,189515.184509372,0,50,6,0,1,25,10,70611138,98934386,29904932,61422749,0,0,0,0,30110019,0,0,40501119,0,3000031,0,0,21211209,11310209,0,12000919,40400809,11011209,0,2121171,4001020,0,1120011,0,-1161121,21501609,0,31211019,4031130,0,0,3000150,0,20100409,3080041,0
3,137,907.681463926565,0,0,189517.984511759,189519.031600953,0,50,6,0,0,11,10,43533300,63966661,46571658,116534897,0,0,20111109,0,1070011,2041061,20311119,0,0,3161171,-4151190,2090061,10111519,0,4041001,0,40411719,0,4051030,0,0,21410419,21110209,0,0,0,0,0,41310809,0,1121151,31901109,0,0,20701619,21500209
3,138,696.499579906231,0,0,189521.12571159,189522.172783846,0,50,6,1,0,17,5,11240331,7121191,91594009,74873359,0,0,0,4130141,0,0,3090160,4020030,0,0,0,0,3081111,0,0,0,-4040080,0,30601509,32000709,0,0,4061191,0,4030181,20900419,0,2061031,0,0,0,0,0,0,31211319,41601009
3,139,1045.11791651021,1,0,189523.913985371,189524.961054163,0,50,6,0,1,24,20,139265986,85472938,162056347,196473102,0,0,30500409,11110519,2140130,41600919,11711919,1201081,41001009,0,4080040,31210309,4121020,0,4150141,0,31111219,10800209,40911319,4010181,41501719,40601409,30810509,-1180060,0,3041150,0,20511909,41111909,20811809,40400319,10311709,20112009,0,11402019,31811419
3,140,753.822576778475,0,0,189527.102260923,189528.14937745,0,50,6,0,0,27,5,35664308,11381279,8422333,19101490,0,0,0,0,11601909,2050071,0,10410719,11601609,0,10201119,0,1180160,0,0,0,0,0,4160150,0,2071091,0,0,1030051,0,0,-1161041,11900209,0,0,0,4091100,0,0,3110181,0
3,141,675.896084285341,0,0,189530.102350619,189531.149356277,0,50,6,0,0,22,20,119096826,150665877,116293566,131788365,30511209,2151140,21700509,0,0,30400919,4121130,0,30211919,42000619,21310109,21311719,3200001,0,30311709,1131071,1090030,30310619,11310819,0,0,-1050101,21700619,0,21110309,20311109,40810609,3031151,3151110,0,30600619,21501119,10802009,11000919,40601219,11100219
3,142,1624.81022489374,1,0,189532.855331179,189533.902336067,0,50,6,1,1,6,10,67695590,40124137,104454407,69572988,41011809,1000071,1011200,0,0,-1101200,0,21410109,2161201,0,0,20101109,0,0,10011319,10011709,0,0,0,0,0,0,40000409,30711419,3031060,30711519,0,31210819,0,0,30110809,2060200,2171000,0,0,4020160
3,143,1017.41343102185,1,0,189536.690632176,189537.737667861,0,50,6,0,1,29,5,0,63133870,71996870,13561029,0,0,0,0,0,0,0,0,0,21811119,0,0,2201161,0,30901209,4040080,3180191,1000110,31811719,0,2131031,3111000,0,0,4131201,30811919,0,0,-3050120,0,0,0,0,10510909,0,0
3,144,962.91065812693,1,0,189539.808287795,189540.855350042,0,50,6,1,1,34,5,4161000,54124209,60162848,52013989,0,0,0,0,0,0,0,4161000,0,1161101,31100309,0,0,0,1161080,0,20701719,0,31001909,21810719,0,0,0,4200180,3150040,0,0,0,2011170,0,41801619,0,4130010,-4071190,0,0
3,145,1110.40999024408,1,0,189552.208429306,189553.255498483,0,50,7,1,1,34,5,4161000,54124209,60162848,52013989,0,0,0,0,0,0,0,4161000,0,1161101,31100309,0,0,0,1161080,0,20701719,0,31001909,21810719,0,0,0,4200180,3150040,0,0,0,2011170,0,41801619,0,4130010,-4071190,0,0
3,146,896.607291942928,0,0,189555.573230632,189556.620237445,0,50,7,1,0,20,20,136574117,173438066,126916638,159936466,0,20611009,40411309,31200409,0,0,0,40310309,4041081,3101061,0,40611009,11211519,41600609,21501309,4090031,41111519,10211009,30200809,-2101191,41900409,1061031,0,10100819,40501309,0,1051070,31811719,10610119,20111519,0,41010909,3000131,3180151,30011709,20200209
3,147,1339.00635325699,1,0,189558.596741738,189559.64380206,0,50,7,1,1,23,10,16821350,41444299,150375946,47082029,0,0,4071080,0,1040061,0,0,11710209,0,20010109,3121190,0,11200819,0,0,3021151,0,4091030,0,20312019,31700709,31800609,-3100140,41311319,20110119,2041031,0,4080101,11401319,0,31600609,0,0,0,0,0
3,148,890.281998435967,0,0,189562.114429539,189563.161493711,0,50,7,0,0,27,5,104324836,11213482,7440452,14840620,0,21311109,20701509,0,21010609,0,0,0,41301609,3011061,4000171,2031080,0,0,0,0,0,2171170,0,3190140,0,0,0,0,0,2080181,-2170131,0,0,0,0,3140001,0,0,11700619,0
3,149,1028.49607210374,0,0,189565.126232057,189566.173291225,0,50,7,0,0,36,0,0,6161200,3030081,7332491,0,0,0,0,0,0,0,0,0,1081030,0,0,3070150,0,0,0,2010020,0,0,0,0,0,0,3030081,0,0,0,3120160,1071140,0,0,0,0,0,1101120,-2040071
3,150,624.859499919694,1,0,189568.396858843,189569.443916086,0,50,7,1,1,28,10,118422916,43873190,85953188,65694518,20310309,0,41810009,0,31500409,2011070,0,2191010,20600109,1031071,40711009,0,0,2131110,0,0,0,0,1031020,1001131,0,0,21900409,0,30110619,0,31910009,-2171100,0,0,1021190,40701609,0,0,0,21800619
3,151,1000.91554407845,1,0,189571.14981977,189572.196894336,0,50,7,0,1,24,5,35784178,24252439,9451731,16001619,0,0,0,10411809,0,10901209,10310109,0,4161051,0,3041020,0,0,21211419,0,0,0,0,0,1101070,0,3180200,0,-1090140,3000130,0,1080191,11800609,4201010,0,0,0,0,0,0,0
3,152,962.239671178395,1,0,189574.32633053,189575.373401631,0,50,7,1,1,19,0,0,6301230,11302303,6241181,0,0,0,0,0,0,0,0,0,0,0,0,0,0,2100190,0,0,4201040,-4010160,0,0,0,0,3150031,0,2091101,2051011,0,0,0,0,0,0,2130180,0,4111001
3,153,813.356019469211,0,0,189577.373425499,189578.420485052,0,50,7,1,0,14,0,3110171,9562260,3190070,6071311,0,0,0,0,0,0,3110171,0,0,0,1131160,0,0,-4170010,1060050,0,0,3201040,0,0,0,3190070,0,0,0,0,0,0,0,2061201,0,0,0,0,4010110,0
3,154,797.64922731556,0,0,189580.396991654,189581.444057751,0,50,7,0,0,26,20,188523923,122536427,128156318,168297056,1070110,20010819,32000809,0,41601209,10110219,11710719,31610019,40410019,4180000,0,31411919,0,4121161,11010319,31011509,0,40801519,2181110,0,10101609,40911009,0,1020031,31200519,-2031031,40711009,0,3120070,10201019,42000519,41311709,1150021,30511709,40002009,0
3,155,2100.60811424046,0,0,189583.244083621,189584.291147793,0,50,7,1,0,3,5,27463290,68752719,74232568,7112081,0,21212019,-4190100,0,2061171,0,0,0,0,0,31901409,0,31601219,0,2160011,3090080,0,0,30700809,0,0,0,2141070,1180070,40210619,0,0,3031081,0,0,4081000,0,0,0,0,0
3,156,719.619180337759,1,0,189587.502957163,189588.550017101,0,50,7,1,1,9,20,113274958,107216024,140766167,151354557,0,1080071,32001609,41800319,21511709,11700019,0,1041180,-4140051,10101609,11211719,21300619,20611009,20500609,0,21300419,2190040,0,21100609,0,21300119,2031131,41201309,20701309,30301609,4130081,0,21510809,0,11200709,30611419,41710909,40100419,0,4150201,2070091
3,157,648.093048803275,0,0,189590.373587953,189591.420639036,0,50,7,0,0,22,20,99295718,122945797,121044046,207199684,0,30511219,3031180,2160031,0,1181141,20400119,31001219,11010809,0,20801209,0,4161090,0,40301719,4171061,21610209,31900509,30201109,0,41110519,-3180101,3130170,21911319,10200819,11310009,0,0,21400409,41801419,41801809,20611609,20212019,40011709,1150201,20210509
3,158,1217.84027572721,1,0,189593.220729194,189594.267737162,0,50,7,0,1,2,0,11243572,5270220,3010011,1081120,0,-1041161,0,0,4080171,2091080,0,0,4031160,4180120,0,0,0,0,0,0,0,1090100,0,0,0,0,0,0,3010011,0,0,0,0,0,0,1081120,0,0,0,0
3,159,765.208567114314,1,0,189596.585412336,189597.632480743,0,50,7,0,1,15,10,42010209,123395157,87104978,91235801,0,0,0,0,0,0,42010209,0,0,4040000,31800419,41401819,0,30910019,-1131120,0,3101161,11010619,2180101,0,2011030,0,40012019,31901109,11000719,0,0,0,0,41700719,4021051,40311819,2121011,0,3081201,0
3,160,1511.03000834701,0,0,189599.432491599,189600.47956963,0,50,7,0,0,4,20,139137186,193468624,74055839,156516355,42010019,30401519,20111319,-4111001,0,32002009,10501319,0,0,10601209,2011030,41900209,31310909,10811809,21210819,31512019,3000101,41110519,21111109,3160120,20611109,1190150,4171051,0,20611109,3201191,0,21011519,40911009,0,41001519,11501809,40000309,0,2090190,0
3,161,1240.75931150583,0,0,189603.079647931,189604.126671297,0,50,7,0,0,13,0,3061080,15542444,5150311,0,0,0,0,0,3061080,0,0,0,0,0,0,2140051,-4161081,1011091,0,4080070,4150151,0,0,0,4080191,0,0,0,0,1070120,0,0,0,0,0,0,0,0,0,0
3,162,851.979922648752,0,0,189606.444343007,189607.491407564,0,50,7,0,0,11,10,148815416,58222940,17101462,33524098,0,21010109,0,31111519,1120000,31200909,20610809,2161061,41601009,0,-4160171,31711119,2050041,0,0,0,20301609,0,3050151,0,0,0,2070171,1080121,0,10901019,0,0,2010070,0,0,0,0,0,11412019,20102009
3,163,1071.02155461325,1,0,189609.5502731,189610.597329958,0,50,7,1,1,33,0,0,2000031,12495371,8030170,0,0,0,0,0,0,0,0,0,0,2000031,0,0,0,0,0,0,0,0,1101171,3131080,0,0,4011020,2171090,2081010,0,0,0,4020170,0,0,-4010000,0,0,0
3,164,1671.37394790188,1,0,189612.820894881,189613.867958283,0,50,7,1,1,17,5,11240331,7121191,91594009,74873359,0,0,0,4130141,0,0,3090160,4020030,0,0,0,0,3081111,0,0,0,-4040080,0,30601509,32000709,0,0,4061191,0,4030181,20900419,0,2061031,0,0,0,0,0,0,31211319,41601009
3,165,1078.34659176297,0,0,189616.726822741,189617.773889608,0,50,7,1,0,6,10,67695590,40124137,104454407,69572988,41011809,1000071,1011200,0,0,-1101200,0,21410109,2161201,0,0,20101109,0,0,10011319,10011709,0,0,0,0,0,0,40000409,30711419,3031060,30711519,0,31210819,0,0,30110809,2060200,2171000,0,0,4020160
3,166,633.121147111524,0,0,189619.962155151,189621.009213549,0,50,7,1,0,12,20,177026893,100636442,169537294,138956806,0,0,20011409,10600909,41311009,31900809,21600419,10601619,41000719,0,41300919,-4201170,2011080,2141201,4050201,2090131,3041021,41800719,31101409,11410409,31901609,0,3011030,30101109,0,40601009,21410719,10711009,11611619,0,0,0,41500319,3131121,30301219,41701519
3,167,1208.94690760178,1,0,189622.762181405,189623.809250582,0,50,7,0,1,25,10,75284058,76414107,15254802,85654847,30300309,2081111,0,11600819,0,0,0,0,31301819,2021050,0,0,0,41710319,1160200,20511719,0,11010819,0,0,0,1010201,1141131,0,-1131111,10901209,1071150,0,2030100,20202019,0,0,41411219,0,22011509,0
3,168,822.625879431143,1,0,189626.091629841,189627.138705562,0,50,7,0,1,29,5,34291090,58724300,14693069,17932210,0,0,0,0,31200019,0,0,3091071,0,40101519,0,0,2081161,3070040,0,3070161,10401419,0,0,3151110,1030140,0,0,0,10511819,0,0,11701009,-3151081,0,0,0,0,0,0,3080120
3,169,742.194060992915,0,0,189634.585843493,189635.632919599,0,50,8,0,0,15,10,57223909,36704271,97032519,120495746,41511909,0,0,11500919,0,0,3100080,1111001,0,0,0,0,2071120,0,-1091171,31511819,0,2030161,0,20401009,3050061,0,3070121,0,40300419,0,30210909,32010819,42011019,4160180,0,0,0,31201709,11112019,0
3,170,956.264692125842,1,0,189637.538824746,189638.585890843,0,50,8,0,1,2,5,46474010,14471141,88395199,2121131,0,-2031100,2171200,2170101,0,0,40101609,0,0,3091111,0,0,10200009,0,0,0,1180021,0,32010819,40502009,0,0,1141021,3041141,11700209,0,0,0,2121131,0,0,0,0,0,0,0
3,171,983.76553322305,1,0,189640.562401295,189641.609454303,0,50,8,0,1,4,10,81334410,68324257,133556916,18963222,4120191,41310819,0,-3021110,1171071,31711219,0,0,0,32001909,0,0,0,0,4001020,10911109,21410219,0,30601619,20601419,0,1151040,40401119,0,0,40801719,0,0,4131041,0,2061021,0,0,0,11701009,1070151
3,172,877.285331400344,0,0,189643.750690321,189644.797729085,0,50,8,0,0,29,20,89686176,110645208,201426605,128954975,0,0,4001110,11701519,1071110,31001919,21210009,20700509,0,3170021,20301409,31400719,3060091,0,40411309,0,11100509,1201150,21911209,2100091,2190040,20910519,40511409,30500109,0,41501509,41801719,0,-3120071,11500819,21000719,11411219,0,10710019,30111509,41100619
3,173,604.570132447407,0,0,189646.809517745,189647.856589231,0,50,8,0,0,22,5,18723150,48633719,33852589,27832889,0,4061011,0,3051120,0,0,11611019,0,0,1200091,20101519,0,0,1200100,22001909,0,0,4130100,0,30811519,0,-3041070,0,0,0,0,0,0,0,20711809,0,0,0,3080060,4041020,0
3,174,1181.25089126988,0,0,189649.550726584,189650.597797685,0,50,8,1,0,20,20,136574117,173438066,126916638,159936466,0,20611009,40411309,31200409,0,0,0,40310309,4041081,3101061,0,40611009,11211519,41600609,21501309,4090031,41111519,10211009,30200809,-2101191,41900409,1061031,0,10100819,40501309,0,1051070,31811719,10610119,20111519,0,41010909,3000131,3180151,30011709,20200209
3,175,1559.69600315439,0,0,189652.927276148,189653.974305289,0,50,8,0,0,26,20,80573950,171637702,48124488,188296985,0,22010509,1171141,3040100,0,21500609,30611319,1080071,1160201,21101119,21201119,30511909,31610609,2090190,10811509,11900119,21010719,21400409,4041181,0,20411519,0,0,0,11500509,-2170060,10001219,3161201,40510519,41311009,0,20200519,41412009,11500219,0,30201509
3,176,1350.9189702163,0,0,189656.644924991,189657.691991088,0,50,8,1,0,6,10,67695590,40124137,104454407,69572988,41011809,1000071,1011200,0,0,-1101200,0,21410109,2161201,0,0,20101109,0,0,10011319,10011709,0,0,0,0,0,0,40000409,30711419,3031060,30711519,0,31210819,0,0,30110809,2060200,2171000,0,0,4020160
3,177,1397.24209261476,1,0,189660.056725431,189661.103795377,0,50,8,1,1,19,0,0,6301230,11302303,6241181,0,0,0,0,0,0,0,0,0,0,0,0,0,0,2100190,0,0,4201040,-4010160,0,0,0,0,3150031,0,2091101,2051011,0,0,0,0,0,0,2130180,0,4111001
3,178,877.985190454638,1,0,189663.656770625,189664.703835567,0,50,8,1,1,12,20,177026893,100636442,169537294,138956806,0,0,20011409,10600909,41311009,31900809,21600419,10601619,41000719,0,41300919,-4201170,2011080,2141201,4050201,2090131,3041021,41800719,31101409,11410409,31901609,0,3011030,30101109,0,40601009,21410719,10711009,11611619,0,0,0,41500319,3131121,30301219,41701519
3,179,794.409780792193,1,0,189666.621505891,189667.66860317,0,50,8,1,1,9,20,113274958,107216024,140766167,151354557,0,1080071,32001609,41800319,21511709,11700019,0,1041180,-4140051,10101609,11211719,21300619,20611009,20500609,0,21300419,2190040,0,21100609,0,21300119,2031131,41201309,20701309,30301609,4130081,0,21510809,0,11200709,30611419,41710909,40100419,0,4150201,2070091
3,180,1054.91940752836,0,0,189669.598018268,189670.645081285,0,50,8,0,0,27,0,0,3161010,9501472,5362091,0,0,0,0,0,0,0,0,0,0,0,0,0,0,0,0,0,3161010,0,0,0,1160191,0,2150060,0,2160021,-4031200,0,1201000,0,0,1100071,3061020,0,0,0
3,181,795.999669557204,1,0,189672.856880647,189673.903942509,0,50,8,1,1,14,0,3110171,9562260,3190070,6071311,0,0,0,0,0,0,3110171,0,0,0,1131160,0,0,-4170010,1060050,0,0,3201040,0,0,0,3190070,0,0,0,0,0,0,0,2061201,0,0,0,0,4010110,0
3,182,1038.69869245682,0,0,189675.845140492,189676.892211594,0,50,8,1,0,23,10,16821350,41444299,150375946,47082029,0,0,4071080,0,1040061,0,0,11710209,0,20010109,3121190,0,11200819,0,0,3021151,0,4091030,0,20312019,31700709,31800609,-3100140,41311319,20110119,2041031,0,4080101,11401319,0,31600609,0,0,0,0,0
3,183,1199.66164923972,0,0,189678.951059036,189679.998130523,0,50,8,1,0,17,5,11240331,7121191,91594009,74873359,0,0,0,4130141,0,0,3090160,4020030,0,0,0,0,3081111,0,0,0,-4040080,0,30601509,32000709,0,0,4061191,0,4030181,20900419,0,2061031,0,0,0,0,0,0,31211319,41601009
3,184,1524.37775977887,1,0,189682.245216176,189683.292285737,0,50,8,0,1,25,0,7141251,10523610,4001020,2091071,0,0,0,0,0,0,3050190,4091061,0,4180170,0,2131170,3191160,0,0,0,1021110,0,0,0,0,0,0,0,-4001020,0,0,0,2091071,0,0,0,0,0,0,0
3,185,1483.77015278675,1,0,189685.915855126,189686.962943936,0,50,8,0,1,24,10,21511009,90554779,164015777,38924038,21511009,0,0,0,0,0,0,0,0,0,31410809,20510619,0,30210009,0,2171121,2171060,4081161,40211309,0,42011209,2100071,0,-3180200,31500719,3011060,42001209,0,10711109,0,21011719,0,4131090,0,3070120,0
3,186,1044.5112180314,1,0,189689.609999793,189690.657073589,0,50,8,0,1,36,20,89095476,169169235,205100044,110394297,21201009,1011160,10110909,21111409,0,0,4060070,31600919,0,0,30012009,40910009,0,21211909,4121071,21600519,20201809,31111909,3100100,40911119,31300709,3101150,3161200,32002009,20610619,40502019,30411119,41911309,0,0,0,4190200,30610809,21000809,10500109,-2181061
3,187,1556.35762171005,0,0,189692.857104309,189693.904171561,0,50,8,0,0,13,0,5031141,12371531,1140121,3090080,0,0,0,0,0,1020030,4011111,0,0,2050160,4150090,0,-3100171,0,0,3071110,0,0,0,0,0,1140121,0,0,0,0,0,0,0,0,0,0,0,0,3090080,0
3,188,1722.92176043266,0,0,189696.539502277,189697.586568759,0,50,8,1,0,34,5,4161000,54124209,60162848,52013989,0,0,0,0,0,0,0,4161000,0,1161101,31100309,0,0,0,1161080,0,20701719,0,31001909,21810719,0,0,0,4200180,3150040,0,0,0,2011170,0,41801619,0,4130010,-4071190,0,0
3,189,1134.22175048618,1,0,189700.410134991,189701.457200318,0,50,8,1,1,3,5,27463290,68752719,74232568,7112081,0,21212019,-4190100,0,2061171,0,0,0,0,0,31901409,0,31601219,0,2160011,3090080,0,0,30700809,0,0,0,2141070,1180070,40210619,0,0,3031081,0,0,4081000,0,0,0,0,0
3,190,795.768308045808,1,0,189703.786644904,189704.833712541,0,50,8,1,1,28,10,118422916,43873190,85953188,65694518,20310309,0,41810009,0,31500409,2011070,0,2191010,20600109,1031071,40711009,0,0,2131110,0,0,0,0,1031020,1001131,0,0,21900409,0,30110619,0,31910009,-2171100,0,0,1021190,40701609,0,0,0,21800619
3,191,849.314452934777,0,0,189706.763150352,189707.810212984,0,50,8,0,0,11,5,98373618,8242190,20212009,54015100,0,4061161,41500419,10810619,0,0,42001419,0,0,0,-3091090,0,0,3111040,0,2040060,0,0,0,0,0,20212009,0,0,0,0,0,0,2161090,0,0,3171181,4080180,0,40601609,4001040
3,192,1385.37182137952,1,0,189709.716124291,189710.763188848,0,50,8,1,1,33,0,0,2000031,12495371,8030170,0,0,0,0,0,0,0,0,0,0,2000031,0,0,0,0,0,0,0,0,1101171,3131080,0,0,4011020,2171090,2081010,0,0,0,4020170,0,0,-4010000,0,0,0
3,193,967.87318988936,1,0,189718.857398419,189719.904497623,0,50,9,0,1,29,10,34653170,101085557,77834888,66483810,2141161,0,0,0,0,31500809,0,1011200,0,11201709,40811409,11211019,1150191,31611019,0,1050040,4050170,0,0,41901719,0,0,4031041,0,11101909,20800219,0,1101041,-3070031,0,21901519,40411219,0,0,0,0
3,194,721.095890563447,0,0,189721.963321198,189723.010387295,0,50,9,0,0,22,0,4141151,4190121,7542422,3221110,0,0,0,0,0,0,4141151,0,0,0,0,0,0,0,0,4190121,0,0,0,0,1181101,-3201190,1160120,0,0,2000011,0,0,0,0,0,0,2121080,1100030,0,0
3,195,1668.22304241941,1,0,189724.78688666,189725.833955452,0,50,9,0,1,2,20,97107197,194787775,104344456,136936755,4110160,-3151060,22000519,20801919,20401509,1010191,2131040,3190080,20310719,0,20400709,30200919,0,40101519,40811019,41112009,2161191,20000409,0,21710719,30411009,0,0,20911309,0,31311419,0,30210619,21201109,2100171,10701909,40600609,1200110,20211519,10710709,0
3,196,661.963192251278,1,0,189728.669274157,189729.716388374,0,50,9,1,1,9,20,113274958,107216024,140766167,151354557,0,1080071,32001609,41800319,21511709,11700019,0,1041180,-4140051,10101609,11211719,21300619,20611009,20500609,0,21300419,2190040,0,21100609,0,21300119,2031131,41201309,20701309,30301609,4130081,0,21510809,0,11200709,30611419,41710909,40100419,0,4150201,2070091
3,197,937.683781405212,1,0,189731.563442999,189732.610496393,0,50,9,1,1,3,5,27463290,68752719,74232568,7112081,0,21212019,-4190100,0,2061171,0,0,0,0,0,31901409,0,31601219,0,2160011,3090080,0,0,30700809,0,0,0,2141070,1180070,40210619,0,0,3031081,0,0,4081000,0,0,0,0,0
3,198,896.011757373344,0,0,189734.586990291,189735.634059468,0,50,9,1,0,23,10,16821350,41444299,150375946,47082029,0,0,4071080,0,1040061,0,0,11710209,0,20010109,3121190,0,11200819,0,0,3021151,0,4091030,0,20312019,31700709,31800609,-3100140,41311319,20110119,2041031,0,4080101,11401319,0,31600609,0,0,0,0,0
3,199,1134.24292331911,0,0,189737.645854287,189738.692919229,0,50,9,1,0,6,10,67695590,40124137,104454407,69572988,41011809,1000071,1011200,0,0,-1101200,0,21410109,2161201,0,0,20101109,0,0,10011319,10011709,0,0,0,0,0,0,40000409,30711419,3031060,30711519,0,31210819,0,0,30110809,2060200,2171000,0,0,4020160
3,200,1249.87403218984,1,0,189740.881186312,189741.928272427,0,50,9,1,1,33,0,0,2000031,12495371,8030170,0,0,0,0,0,0,0,0,0,0,2000031,0,0,0,0,0,0,0,0,1101171,3131080,0,0,4011020,2171090,2081010,0,0,0,4020170,0,0,-4010000,0,0,0
3,201,1170.46967460192,0,0,189744.363578968,189745.4106416,0,50,9,1,0,34,5,4161000,54124209,60162848,52013989,0,0,0,0,0,0,0,4161000,0,1161101,31100309,0,0,0,1161080,0,20701719,0,31001909,21810719,0,0,0,4200180,3150040,0,0,0,2011170,0,41801619,0,4130010,-4071190,0,0
3,202,1148.3321095584,0,0,189747.763620004,189748.810682252,0,50,9,0,0,25,0,6051301,1010151,2181161,9172222,2051170,4000131,0,0,0,0,0,0,0,0,0,1010151,0,0,0,0,0,0,0,0,0,0,0,0,-2181161,0,0,0,0,0,0,1040161,2031011,4081030,0,2020020
3,203,680.937917990377,1,0,189751.140174958,189752.187194475,0,50,9,0,1,4,0,5261231,5221371,3050011,6141152,0,0,1031041,-1170010,0,0,0,0,3060180,0,0,2060190,0,0,3161181,0,0,0,0,0,0,0,0,0,0,0,3050011,0,0,0,2101001,0,0,0,4040151,0
3,204,1480.68738539587,0,0,189753.987225349,189755.034281052,0,50,9,0,0,13,20,166953694,80374759,143238136,161263426,0,30800219,0,30610109,20810619,21611319,21310809,41810619,0,20112019,10100709,3160001,-1010051,0,4181041,31700519,0,10110419,0,0,12001509,11010009,31911519,40102019,40912019,4190050,3111011,3020180,31310519,30710119,40610019,1190191,40700409,3120080,10601909,0
3,205,969.746409915388,1,0,189757.693150206,189758.740234396,0,50,9,1,1,17,5,11240331,7121191,91594009,74873359,0,0,0,4130141,0,0,3090160,4020030,0,0,0,0,3081111,0,0,0,-4040080,0,30601509,32000709,0,0,4061191,0,4030181,20900419,0,2061031,0,0,0,0,0,0,31211319,41601009
3,206,1448.93080086331,1,0,189760.810826227,189761.857892324,0,50,9,0,1,36,5,35243740,41511209,33622660,52656650,10110809,0,3131041,0,20910819,0,0,0,1091071,0,0,0,0,0,0,41511209,0,0,31501519,0,0,0,0,0,2121141,0,0,41200919,0,0,0,1021020,3101180,2201190,1061200,-4071141
3,207,812.9660540435,1,0,189764.410884895,189765.457932129,0,50,9,0,1,24,10,52403628,37392330,97964597,71174399,0,0,0,31701619,0,0,20702009,0,0,0,30211209,0,0,3010031,4171090,0,0,0,2160000,0,10311209,0,21610309,-1070161,0,20900909,41912009,11400409,4010050,1000140,3130201,20611209,30011319,1011071,0,0
3,208,815.594567451626,1,0,189767.387376869,189768.434434112,0,50,9,1,1,14,0,3110171,9562260,3190070,6071311,0,0,0,0,0,0,3110171,0,0,0,1131160,0,0,-4170010,1060050,0,0,3201040,0,0,0,3190070,0,0,0,0,0,0,0,2061201,0,0,0,0,4010110,0
3,209,1127.16772584827,1,0,189770.422698577,189771.469763519,0,50,9,0,1,26,10,18722330,93814557,70474881,57494356,0,0,0,0,0,4141060,3180061,11401209,0,41200819,0,0,0,10701819,0,0,0,41911919,4160181,4020091,20602019,0,0,2170041,31210419,-4111130,4201000,10111409,4170100,20110619,0,0,11300219,0,0,11802009
3,210,944.696615217254,0,0,189773.610972589,189774.658034837,0,50,9,1,0,19,0,0,6301230,11302303,6241181,0,0,0,0,0,0,0,0,0,0,0,0,0,0,2100190,0,0,4201040,-4010160,0,0,0,0,3150031,0,2091101,2051011,0,0,0,0,0,0,2130180,0,4111001
3,211,1132.28693671408,0,0,189776.646304306,189777.693369633,0,50,9,0,0,27,5,46603260,73001598,4151140,42381770,11800009,1041161,0,0,2161081,0,0,0,31601009,0,0,2120040,4150040,31611409,0,0,31010019,4110090,0,0,0,0,0,0,0,0,-4151140,0,0,40110709,0,1191010,0,0,1080051,0
3,212,670.490077493014,0,0,189779.999285406,189781.046343803,0,50,9,1,0,28,10,118422916,43873190,85953188,65694518,20310309,0,41810009,0,31500409,2011070,0,2191010,20600109,1031071,40711009,0,0,2131110,0,0,0,0,1031020,1001131,0,0,21900409,0,30110619,0,31910009,-2171100,0,0,1021190,40701609,0,0,0,21800619
3,213,725.88249517139,0,0,189782.822867036,189783.869965085,0,50,9,0,0,11,5,26872219,16743181,47985968,2111190,3150080,21611109,0,2111030,0,0,0,0,0,0,-4140091,1081040,0,0,0,1020141,10501909,0,3001050,0,0,10001319,20301609,11610919,3071071,0,0,0,0,0,2111190,0,0,0,0,0
3,214,1519.61502275663,0,0,189785.716999307,189786.76405809,0,50,9,1,0,20,20,136574117,173438066,126916638,159936466,0,20611009,40411309,31200409,0,0,0,40310309,4041081,3101061,0,40611009,11211519,41600609,21501309,4090031,41111519,10211009,30200809,-2101191,41900409,1061031,0,10100819,40501309,0,1051070,31811719,10610119,20111519,0,41010909,3000131,3180151,30011709,20200209
3,215,681.953060062369,0,0,189789.481795089,189790.528804982,0,50,9,0,0,15,20,96506255,90638389,109548395,144136194,10810519,2010191,11010219,11310719,3171060,20902019,21601219,11500109,4190200,0,0,21901019,20301419,2041170,-1161010,40901609,3161001,1171161,21410919,11801319,40012009,10811909,0,0,21411219,4101020,0,10111719,0,20401709,40510119,40601509,10600719,0,21910419,0
3,216,875.145333440742,0,0,189792.29354687,189793.340600263,0,50,9,1,0,12,20,177026893,100636442,169537294,138956806,0,0,20011409,10600909,41311009,31900809,21600419,10601619,41000719,0,41300919,-4201170,2011080,2141201,4050201,2090131,3041021,41800719,31101409,11410409,31901609,0,3011030,30101109,0,40601009,21410719,10711009,11611619,0,0,0,41500319,3131121,30301219,41701519
3,217,1740.1687813981,0,0,189806.317228898,189807.364289605,0,50,10,0,0,26,5,7162231,38212361,42740299,85523827,0,0,4001070,0,0,3161161,0,0,0,1010161,31000119,0,0,0,0,4051081,0,2151000,0,41710219,0,0,0,0,0,-1030080,0,0,0,31801819,1061020,0,2150160,0,40210609,10300219
3,218,632.200705440482,0,0,189810.17610067,189811.223162532,0,50,10,0,0,22,10,48435060,106724287,95042167,19833690,0,30810919,4181081,2031041,0,0,0,11412019,0,21202019,30810119,0,0,0,0,30010619,3001121,21700409,30110519,0,0,-3120110,0,0,40310119,21501419,0,2150000,0,2101170,10310309,0,1181141,0,4091070,0
3,219,868.017396278447,0,0,189813.023188017,189814.070251034,0,50,10,1,0,6,10,67695590,40124137,104454407,69572988,41011809,1000071,1011200,0,0,-1101200,0,21410109,2161201,0,0,20101109,0,0,10011319,10011709,0,0,0,0,0,0,40000409,30711419,3031060,30711519,0,31210819,0,0,30110809,2060200,2171000,0,0,4020160
3,220,1008.7641281425,0,0,189815.999698854,189817.046763411,0,50,10,0,0,27,10,93415717,4152151,106925359,81865399,20412019,21211219,0,30511019,1170041,0,20111419,0,0,0,0,3101150,0,0,1051001,0,0,0,31311619,0,0,0,41111009,30300509,3081151,0,-1121071,4191101,2111110,10101109,20810119,40500809,0,4151151,0,0
3,221,743.475981027586,1,0,189819.187964397,189820.235030879,0,50,10,1,1,23,10,16821350,41444299,150375946,47082029,0,0,4071080,0,1040061,0,0,11710209,0,20010109,3121190,0,11200819,0,0,3021151,0,4091030,0,20312019,31700709,31800609,-3100140,41311319,20110119,2041031,0,4080101,11401319,0,31600609,0,0,0,0,0
3,222,1833.28121385421,1,0,189822.082113221,189823.129180088,0,50,10,1,1,9,20,113274958,107216024,140766167,151354557,0,1080071,32001609,41800319,21511709,11700019,0,1041180,-4140051,10101609,11211719,21300619,20611009,20500609,0,21300419,2190040,0,21100609,0,21300119,2031131,41201309,20701309,30301609,4130081,0,21510809,0,11200709,30611419,41710909,40100419,0,4150201,2070091
3,223,1155.89620746323,1,0,189825.976274364,189827.023344696,0,50,10,1,1,12,20,177026893,100636442,169537294,138956806,0,0,20011409,10600909,41311009,31900809,21600419,10601619,41000719,0,41300919,-4201170,2011080,2141201,4050201,2090131,3041021,41800719,31101409,11410409,31901609,0,3011030,30101109,0,40601009,21410719,10711009,11611619,0,0,0,41500319,3131121,30301219,41701519
3,224,866.639621002832,0,0,189829.270442283,189830.317524548,0,50,10,1,0,17,5,11240331,7121191,91594009,74873359,0,0,0,4130141,0,0,3090160,4020030,0,0,0,0,3081111,0,0,0,-4040080,0,30601509,32000709,0,0,4061191,0,4030181,20900419,0,2061031,0,0,0,0,0,0,31211319,41601009
3,225,1286.44840320339,0,0,189832.364589875,189833.411650968,0,50,10,0,0,36,0,4221231,13402532,0,2150321,0,0,0,0,0,1080050,0,3141181,0,0,0,0,0,0,4190160,4070091,4071110,1071171,0,0,0,0,0,0,0,0,0,0,0,1020201,0,0,0,0,0,-1130120
3,226,1101.10586875817,0,0,189835.799914894,189836.84698946,0,50,10,0,0,2,20,132628825,173916135,98284797,159937706,4181180,-3120040,1091150,30501019,20901809,20811509,40011909,12010209,0,1111030,30511819,2070150,4100161,10710409,21201209,41900519,30300419,32010419,0,30412019,3170151,31900309,0,11501709,0,21300609,0,11801309,40611819,40900419,0,0,3021031,21901809,0,41701319
3,227,1111.20454967022,1,0,189838.999951773,189840.04702095,0,50,10,0,1,24,20,166727435,121613756,180338185,101667077,41900519,4151131,10200219,21201019,11701209,3070081,11400219,42001519,21101519,30001309,10701019,40910409,0,0,0,0,40001019,0,21511119,20910009,2111070,41800809,20011419,-1121091,30301819,40510709,2060140,4171080,3071200,20101619,0,0,41111819,0,31101319,2110040
3,228,666.258201672463,0,0,189842.258817616,189843.305879094,0,50,10,0,0,29,0,1041120,4241322,7381503,4251281,0,0,0,0,1041120,0,0,0,0,0,2141191,0,2100131,0,0,0,0,0,2171171,0,0,4160191,0,1050141,0,0,0,0,-1100171,3151110,0,0,0,0,0,0
3,229,806.79782453808,0,0,189845.094142481,189846.141251309,0,50,10,0,0,4,10,120085245,90194109,70224159,36962480,41501909,20600219,0,-3050080,21911319,0,21511709,11510009,0,0,3191090,1040141,2041140,0,0,0,41911419,42010319,0,0,0,31702019,0,0,4151170,30300909,4070061,0,0,30610319,0,2171131,0,4181030,0,0
3,230,827.794365264708,1,0,189847.988299005,189849.035365872,0,50,10,1,1,28,10,118422916,43873190,85953188,65694518,20310309,0,41810009,0,31500409,2011070,0,2191010,20600109,1031071,40711009,0,0,2131110,0,0,0,0,1031020,1001131,0,0,21900409,0,30110619,0,31910009,-2171100,0,0,1021190,40701609,0,0,0,21800619
3,231,871.22720075422,1,0,189851.011853226,189852.058918553,0,50,10,1,1,19,0,0,6301230,11302303,6241181,0,0,0,0,0,0,0,0,0,0,0,0,0,0,2100190,0,0,4201040,-4010160,0,0,0,0,3150031,0,2091101,2051011,0,0,0,0,0,0,2130180,0,4111001
3,232,1200.19020061591,0,0,189854.011894802,189855.05895166,0,50,10,0,0,25,20,62466317,157626886,141396995,155964606,10311219,3150140,10402019,10900119,21411519,4140110,2151191,0,0,0,30511409,0,31001009,41300919,11211719,3200011,40401819,0,31410819,31810709,11701009,10411819,30810919,0,-3130121,21100409,1021190,30511319,2141030,10800009,0,1201021,40000009,30100509,41210709,0
3,233,767.60725886561,1,0,189857.447215201,189858.494288612,0,50,10,1,1,33,0,0,2000031,12495371,8030170,0,0,0,0,0,0,0,0,0,0,2000031,0,0,0,0,0,0,0,0,1101171,3131080,0,0,4011020,2171090,2081010,0,0,0,4020170,0,0,-4010000,0,0,0
3,234,564.776717917994,1,0,189860.353140366,189861.400216472,0,50,10,0,1,15,0,5233220,3121341,8122181,3151180,0,0,0,0,0,1001070,1071040,3161110,0,0,0,0,0,0,-2101160,0,0,1020181,4081041,0,0,0,0,4041140,0,0,0,0,0,0,0,0,0,0,3151180,0
3,235,1382.98198371194,0,0,189863.023755064,189864.070819236,0,50,10,1,0,14,0,3110171,9562260,3190070,6071311,0,0,0,0,0,0,3110171,0,0,0,1131160,0,0,-4170010,1060050,0,0,3201040,0,0,0,3190070,0,0,0,0,0,0,0,2061201,0,0,0,0,4010110,0
3,236,908.680822612951,0,0,189866.506168508,189867.553215741,0,50,10,0,0,11,5,2031030,81516849,57462768,36583661,0,0,0,0,0,0,0,0,2031030,0,-1091160,4031141,0,40311419,0,4181120,31902009,0,1040190,30800909,21500619,0,0,4121050,0,0,0,30401409,0,0,0,3041201,0,0,3141051,0
3,237,1224.94934979477,1,0,189869.529720034,189870.576783052,0,50,10,1,1,3,5,27463290,68752719,74232568,7112081,0,21212019,-4190100,0,2061171,0,0,0,0,0,31901409,0,31601219,0,2160011,3090080,0,0,30700809,0,0,0,2141070,1180070,40210619,0,0,3031081,0,0,4081000,0,0,0,0,0
3,238,1026.3768620207,0,0,189872.894460151,189873.941528558,0,50,10,0,0,13,5,62184041,34213079,24933499,1080170,0,0,41410019,0,10501509,3121101,2101181,1050190,4000041,0,0,0,-3101151,0,10501509,0,0,20610419,2021110,0,20901319,0,2011070,0,0,0,0,1080170,0,0,0,0,0,0,0,0
3,239,890.515669714659,1,0,189876.165085782,189877.212156883,0,50,10,1,1,20,20,136574117,173438066,126916638,159936466,0,20611009,40411309,31200409,0,0,0,40310309,4041081,3101061,0,40611009,11211519,41600609,21501309,4090031,41111519,10211009,30200809,-2101191,41900409,1061031,0,10100819,40501309,0,1051070,31811719,10610119,20111519,0,41010909,3000131,3180151,30011709,20200209
3,240,1254.55746724037,1,0,189879.259243768,189880.306301396,0,50,10,1,1,34,5,4161000,54124209,60162848,52013989,0,0,0,0,0,0,0,4161000,0,1161101,31100309,0,0,0,1161080,0,20701719,0,31001909,21810719,0,0,0,4200180,3150040,0,0,0,2011170,0,41801619,0,4130010,-4071190,0,0
3,241,1265.71402084664,0,0,189890.788810695,189891.835849845,0,50,11,1,0,34,5,4161000,54124209,60162848,52013989,0,0,0,0,0,0,0,4161000,0,1161101,31100309,0,0,0,1161080,0,20701719,0,31001909,21810719,0,0,0,4200180,3150040,0,0,0,2011170,0,41801619,0,4130010,-4071190,0,0
3,242,1126.0059136257,0,0,189894.306465004,189895.353536106,0,50,11,0,0,36,0,6041232,9283461,0,11242263,0,3020121,0,0,3021111,0,0,0,0,0,0,0,0,0,0,4141160,1121111,4021190,0,0,0,0,0,0,0,0,0,4090051,0,3121121,0,0,0,0,0,-4031091
3,243,984.853817877593,1,0,189897.553570675,189898.600624839,0,50,11,1,1,9,20,113274958,107216024,140766167,151354557,0,1080071,32001609,41800319,21511709,11700019,0,1041180,-4140051,10101609,11211719,21300619,20611009,20500609,0,21300419,2190040,0,21100609,0,21300119,2031131,41201309,20701309,30301609,4130081,0,21510809,0,11200709,30611419,41710909,40100419,0,4150201,2070091
3,244,773.561450041598,1,0,189900.788898466,189901.835968028,0,50,11,0,1,11,0,9511351,7501674,0,0,0,1120160,0,1050001,3181060,0,4160130,0,0,0,-1130201,0,1081071,0,0,1130201,0,4160201,0,0,0,0,0,0,0,0,0,0,0,0,0,0,0,0,0,0
3,245,1151.32749080658,0,0,189903.683049985,189904.730115697,0,50,11,0,0,24,20,131508934,127605186,116115888,144245755,4091020,20711019,0,11801019,10710119,31401819,11611809,40001109,1181020,0,30310019,0,2161091,31311619,21410719,11700219,0,30711519,40100719,1041011,10801419,21700419,0,-4130010,30201119,4030101,4111090,0,0,0,31311419,21701219,20011009,40000119,30101909,1120080
3,246,779.995687538758,1,0,189906.918377775,189907.965444257,0,50,11,1,1,3,5,27463290,68752719,74232568,7112081,0,21212019,-4190100,0,2061171,0,0,0,0,0,31901409,0,31601219,0,2160011,3090080,0,0,30700809,0,0,0,2141070,1180070,40210619,0,0,3031081,0,0,4081000,0,0,0,0,0
3,247,723.850286245579,1,0,189909.81252891,189910.859601936,0,50,11,1,1,28,10,118422916,43873190,85953188,65694518,20310309,0,41810009,0,31500409,2011070,0,2191010,20600109,1031071,40711009,0,0,2131110,0,0,0,0,1031020,1001131,0,0,21900409,0,30110619,0,31910009,-2171100,0,0,1021190,40701609,0,0,0,21800619
3,248,816.505770053482,0,0,189912.600782288,189913.647859934,0,50,11,0,0,26,10,133623866,51892620,95296219,17740641,0,0,40301219,0,41210209,0,31310419,20802019,0,20501819,4080190,21110309,2170191,4030111,0,0,0,0,0,0,40011319,41211019,10801719,1171051,0,-2101111,0,0,10300209,0,3140140,0,2140121,0,2160171,0
3,249,917.064887384186,0,0,189915.636131713,189916.683193575,0,50,11,1,0,33,0,0,2000031,12495371,8030170,0,0,0,0,0,0,0,0,0,0,2000031,0,0,0,0,0,0,0,0,1101171,3131080,0,0,4011020,2171090,2081010,0,0,0,4020170,0,0,-4010000,0,0,0
3,250,646.210974664427,0,0,189918.683221293,189919.730289314,0,50,11,1,0,20,20,136574117,173438066,126916638,159936466,0,20611009,40411309,31200409,0,0,0,40310309,4041081,3101061,0,40611009,11211519,41600609,21501309,4090031,41111519,10211009,30200809,-2101191,41900409,1061031,0,10100819,40501309,0,1051070,31811719,10610119,20111519,0,41010909,3000131,3180151,30011709,20200209
3,251,941.023317747749,0,0,189921.424429362,189922.471496229,0,50,11,1,0,6,10,67695590,40124137,104454407,69572988,41011809,1000071,1011200,0,0,-1101200,0,21410109,2161201,0,0,20101109,0,0,10011319,10011709,0,0,0,0,0,0,40000409,30711419,3031060,30711519,0,31210819,0,0,30110809,2060200,2171000,0,0,4020160
3,252,1091.56692109536,1,0,189924.565639202,189925.612701449,0,50,11,0,1,4,5,9211321,6032171,78342769,76341999,0,0,0,-3030050,2181201,0,0,4000070,0,0,0,3021091,0,0,0,3011080,0,0,20510819,40100209,3190141,0,0,0,11401519,3140081,0,0,31501319,41800509,3040171,0,0,0,0,0
3,253,1253.08653138927,0,0,189927.742149962,189928.78920682,0,50,11,0,0,13,5,71010718,48264031,24052619,17885231,0,0,0,30300609,0,40710109,0,0,0,41011609,0,2030201,-2081100,0,0,0,3141121,0,21901409,0,0,1030040,0,1121170,0,0,0,0,0,3081011,11511919,0,2181191,0,1111110,0
3,254,728.021338261897,1,0,189931.095122977,189932.142194463,0,50,11,0,1,22,0,2010141,6052221,6212240,9343272,0,0,0,0,0,0,0,2010141,0,0,4001021,2051200,0,0,0,0,0,0,0,0,0,-2031090,0,4181150,0,0,0,0,0,0,1141010,4061171,0,4141091,0,0
3,255,1124.79020695901,1,0,189934.036377549,189935.083399761,0,50,11,1,1,17,5,11240331,7121191,91594009,74873359,0,0,0,4130141,0,0,3090160,4020030,0,0,0,0,3081111,0,0,0,-4040080,0,30601509,32000709,0,0,4061191,0,4030181,20900419,0,2061031,0,0,0,0,0,0,31211319,41601009
3,256,1510.75091166422,1,0,189937.236375162,189938.283437025,0,50,11,0,1,2,10,18692662,58323039,31111428,117955327,0,-4150131,0,1181030,10310309,0,1020101,0,2031091,2110001,21600019,0,2130180,20111809,10300909,2070121,0,0,20411319,10700109,0,0,0,0,0,0,0,0,3130081,21211009,0,0,31611009,30101919,0,31901309
3,257,722.452108049765,1,0,189940.97759324,189942.024662802,0,50,11,0,1,15,20,84212579,151426864,178706144,70706276,4070190,11800719,31111209,0,4020081,1160120,1050041,31000219,0,0,31100719,31910819,21901209,10401609,-3200180,0,22000409,30911919,10510619,40901409,10800409,0,32000619,0,41911219,1181150,41400719,11701709,11000609,2081001,10800419,0,0,12001019,2010200,21111319
3,258,1322.36410598853,0,0,189943.930566024,189944.977635201,0,50,11,0,0,25,20,64415587,165106416,171250187,136437584,0,11800519,4021140,20600709,11500409,1001191,4090010,11401609,0,4091120,41400519,41501409,11810309,4080031,0,41811119,0,20411909,0,1121080,3121081,30011309,40310919,21102009,-4061151,41511419,30011219,31001919,0,0,41511109,11601719,21211109,0,20601409,10510319
3,259,823.76690368983,1,0,189947.354128561,189948.401234309,0,50,11,0,1,29,5,34510480,50380912,33351260,61364630,0,0,0,0,0,0,3200071,0,31310409,4030101,0,0,42010609,0,3150051,0,1190151,0,0,0,3141051,0,0,0,30210209,0,0,0,-1051151,0,4200101,21201409,30901819,0,0,4010150
3,260,691.776878811652,1,0,189950.30710327,189951.354203243,0,50,11,1,1,12,20,177026893,100636442,169537294,138956806,0,0,20011409,10600909,41311009,31900809,21600419,10601619,41000719,0,41300919,-4201170,2011080,2141201,4050201,2090131,3041021,41800719,31101409,11410409,31901609,0,3011030,30101109,0,40601009,21410719,10711009,11611619,0,0,0,41500319,3131121,30301219,41701519
3,261,1427.83109057928,0,0,189953.060075746,189954.107176489,0,50,11,1,0,19,0,0,6301230,11302303,6241181,0,0,0,0,0,0,0,0,0,0,0,0,0,0,2100190,0,0,4201040,-4010160,0,0,0,0,3150031,0,2091101,2051011,0,0,0,0,0,0,2130180,0,4111001
3,262,661.739914881764,1,0,189956.60130237,189957.648360768,0,50,11,1,1,14,0,3110171,9562260,3190070,6071311,0,0,0,0,0,0,3110171,0,0,0,1131160,0,0,-4170010,1060050,0,0,3201040,0,0,0,3190070,0,0,0,0,0,0,0,2061201,0,0,0,0,4010110,0
3,263,732.153894205112,0,0,189959.37780366,189960.424866677,0,50,11,1,0,23,10,16821350,41444299,150375946,47082029,0,0,4071080,0,1040061,0,0,11710209,0,20010109,3121190,0,11200819,0,0,3021151,0,4091030,0,20312019,31700709,31800609,-3100140,41311319,20110119,2041031,0,4080101,11401319,0,31600609,0,0,0,0,0
3,264,1047.13511193404,0,0,189962.236655414,189963.283726515,0,50,11,0,0,27,10,72945948,94013546,58245289,40772160,0,11601209,11300009,0,4191090,0,1001191,3151130,41701319,10700509,0,30600509,0,0,11110719,0,0,41601809,21901619,4201100,30111509,0,0,0,0,0,-2031061,0,0,3041110,0,31510809,0,4020071,0,2200170
3,265,840.668999648187,0,0,189971.519125524,189972.566176607,0,50,12,0,0,11,5,6463232,2151001,73543069,89554637,4121031,0,0,1201020,0,0,0,0,1141181,0,-2151001,0,0,0,0,0,0,0,41000119,0,1141061,30401809,0,1000080,0,0,0,3000110,0,41212009,2031080,31400419,0,0,11911019,0
3,266,898.704174323939,1,0,189974.566209714,189975.613273501,0,50,12,0,1,27,20,37362498,150175824,179317808,164267974,11511319,11500309,0,4040061,10310809,0,0,0,0,30800509,41101409,11700519,0,4150050,30210109,21702019,0,10511209,4070201,2050081,40010519,41411219,4101020,21501209,21401619,41600809,-3171131,11811819,10200809,31410419,31510519,41911709,31211609,3020060,0,3191030
3,267,1080.08738525677,0,0,189977.601534501,189978.648601753,0,50,12,0,0,25,0,7211170,0,8291102,8391441,0,0,0,3151010,4060160,0,0,0,0,0,0,0,0,0,0,0,0,0,0,4091041,0,0,0,0,-4200061,0,0,0,0,1060181,0,2120040,1051120,4160100,0,0
3,268,742.865432926919,1,0,189980.883929159,189981.931026438,0,50,12,1,1,14,0,3110171,9562260,3190070,6071311,0,0,0,0,0,0,3110171,0,0,0,1131160,0,0,-4170010,1060050,0,0,3201040,0,0,0,3190070,0,0,0,0,0,0,0,2061201,0,0,0,0,4010110,0
3,269,815.861345414305,0,0,189983.84866712,189984.895726672,0,50,12,0,0,4,5,36283880,78963569,33261809,0,0,3101140,0,-1181200,0,0,30800519,0,1201021,3040191,2060030,0,0,2050120,0,0,30911509,40901719,0,0,1071060,0,1170111,20510019,0,10510619,0,0,0,0,0,0,0,0,0,0
3,270,1332.82041561324,0,0,189986.789876652,189987.836940439,0,50,12,0,0,24,20,89891965,248136451,33414560,90755057,11100309,3170120,11710009,10300219,0,30200419,0,2000080,21410809,20711019,41600019,21600209,20500809,40300219,30100119,30711819,11800319,30811919,0,11301309,4081150,3080101,3141180,-1110011,10700809,0,0,4110121,41500809,10901409,0,0,10510819,21611719,0,2120180
3,271,912.076178268762,0,0,189990.213448042,189991.26050644,0,50,12,1,0,6,10,67695590,40124137,104454407,69572988,41011809,1000071,1011200,0,0,-1101200,0,21410109,2161201,0,0,20101109,0,0,10011319,10011709,0,0,0,0,0,0,40000409,30711419,3031060,30711519,0,31210819,0,0,30110809,2060200,2171000,0,0,4020160
3,272,593.48248684546,0,0,189993.225242091,189994.272307418,0,50,12,1,0,23,10,16821350,41444299,150375946,47082029,0,0,4071080,0,1040061,0,0,11710209,0,20010109,3121190,0,11200819,0,0,3021151,0,4091030,0,20312019,31700709,31800609,-3100140,41311319,20110119,2041031,0,4080101,11401319,0,31600609,0,0,0,0,0
3,273,565.243675577221,1,0,189995.96645093,189997.013517027,0,50,12,1,1,17,5,11240331,7121191,91594009,74873359,0,0,0,4130141,0,0,3090160,4020030,0,0,0,0,3081111,0,0,0,-4040080,0,30601509,32000709,0,0,4061191,0,4030181,20900419,0,2061031,0,0,0,0,0,0,31211319,41601009
3,274,1094.80713753146,0,0,189998.754733181,189999.801787729,0,50,12,0,0,26,5,31700019,32881251,22441599,55782978,0,0,0,31700019,0,0,0,0,0,0,3150040,21300909,3160051,0,2120051,0,3150200,0,0,4170070,11010409,0,0,0,3091010,-4170110,0,40510019,11201909,0,0,0,4071050,0,0,0
3,275,870.97428139532,1,0,190001.919464905,190002.966519453,0,50,12,1,1,3,5,27463290,68752719,74232568,7112081,0,21212019,-4190100,0,2061171,0,0,0,0,0,31901409,0,31601219,0,2160011,3090080,0,0,30700809,0,0,0,2141070,1180070,40210619,0,0,3031081,0,0,4081000,0,0,0,0,0
3,276,1374.06667281175,1,0,190005.025385759,190006.072448006,0,50,12,0,1,29,10,35004250,81332456,131115118,60614290,31801909,1051141,0,2151200,0,0,0,0,0,10310819,0,10510909,30300509,0,30210219,0,0,0,4170090,40500819,0,0,0,41601209,41811809,3031191,0,0,-3130031,4131110,1140121,1010200,0,30901109,0,20301719
3,277,764.261563163018,0,0,190008.484241131,190009.531303764,0,50,12,1,0,12,20,177026893,100636442,169537294,138956806,0,0,20011409,10600909,41311009,31900809,21600419,10601619,41000719,0,41300919,-4201170,2011080,2141201,4050201,2090131,3041021,41800719,31101409,11410409,31901609,0,3011030,30101109,0,40601009,21410719,10711009,11611619,0,0,0,41500319,3131121,30301219,41701519
3,278,765.896877303021,1,0,190011.378396115,190012.425450278,0,50,12,1,1,33,0,0,2000031,12495371,8030170,0,0,0,0,0,0,0,0,0,0,2000031,0,0,0,0,0,0,0,0,1101171,3131080,0,0,4011020,2171090,2081010,0,0,0,4020170,0,0,-4010000,0,0,0
3,279,653.382027434418,1,0,190014.307830076,190015.354903102,0,50,12,0,1,22,0,0,5402382,5413352,5170231,0,0,0,0,0,0,0,0,0,0,0,2090151,0,2181200,1131031,0,0,0,1201121,0,0,-1021140,0,0,0,0,3191091,0,0,0,0,3150070,0,2020161,0,0
3,280,661.248704680474,0,0,190017.201991989,190018.249049232,0,50,12,1,0,28,10,118422916,43873190,85953188,65694518,20310309,0,41810009,0,31500409,2011070,0,2191010,20600109,1031071,40711009,0,0,2131110,0,0,0,0,1031020,1001131,0,0,21900409,0,30110619,0,31910009,-2171100,0,0,1021190,40701609,0,0,0,21800619
3,281,1236.34996864712,0,0,190020.10790676,190021.154967853,0,50,12,0,0,2,10,59914360,70684599,88405097,74501998,0,-4000131,0,0,3091201,0,0,21711519,31111509,20910319,2021100,11601519,0,0,30101609,0,4010041,2040011,0,41710109,31311719,3151190,0,0,2131170,0,10100909,0,0,0,1180070,0,0,0,31510219,41811709
3,282,906.72945548431,1,0,190023.519703735,190024.566768292,0,50,12,1,1,20,20,136574117,173438066,126916638,159936466,0,20611009,40411309,31200409,0,0,0,40310309,4041081,3101061,0,40611009,11211519,41600609,21501309,4090031,41111519,10211009,30200809,-2101191,41900409,1061031,0,10100819,40501309,0,1051070,31811719,10610119,20111519,0,41010909,3000131,3180151,30011709,20200209
3,283,1225.73082055897,0,0,190026.637452129,190027.684452783,0,50,12,1,0,9,20,113274958,107216024,140766167,151354557,0,1080071,32001609,41800319,21511709,11700019,0,1041180,-4140051,10101609,11211719,21300619,20611009,20500609,0,21300419,2190040,0,21100609,0,21300119,2031131,41201309,20701309,30301609,4130081,0,21510809,0,11200709,30611419,41710909,40100419,0,4150201,2070091
3,284,547.71948265261,1,0,190029.99037048,190031.037438117,0,50,12,0,1,15,20,121576946,94285688,150884317,186637493,2150160,41400619,21912019,0,0,11311009,2011120,41611909,1180110,11511909,20410009,3050081,0,3000070,-3101101,0,21711809,31500709,4060191,0,10711319,21112009,31910419,40510109,40400219,0,2180051,0,40901109,20612009,20900919,0,31411519,20400309,21510409,30901219
3,285,1241.33174846065,0,0,190032.613929859,190033.660990567,0,50,12,0,0,36,0,8201220,1131081,7182402,3232172,0,0,0,0,4021180,0,0,0,4180040,0,0,0,0,0,0,0,0,1131081,0,2101130,0,0,0,0,2021171,0,3060101,0,0,0,0,0,2131071,0,0,-1101101
3,286,1173.18326438544,1,0,190035.919852176,190036.966910189,0,50,12,0,1,13,10,14583070,69466617,27702228,117274367,0,11310909,2171150,0,0,0,0,0,1101011,1171200,21300619,3131000,-3050180,30312009,0,10501609,0,0,0,10811409,0,11700709,3090020,0,2100090,0,0,21611119,0,2160091,0,11900519,40701919,0,0,40900719
3,287,994.313848554157,0,0,190039.225765253,190040.272828271,0,50,12,1,0,34,5,4161000,54124209,60162848,52013989,0,0,0,0,0,0,0,4161000,0,1161101,31100309,0,0,0,1161080,0,20701719,0,31001909,21810719,0,0,0,4200180,3150040,0,0,0,2011170,0,41801619,0,4130010,-4071190,0,0
3,288,632.42937225732,1,0,190042.284619625,190043.331691881,0,50,12,1,1,19,0,0,6301230,11302303,6241181,0,0,0,0,0,0,0,0,0,0,0,0,0,0,2100190,0,0,4201040,-4010160,0,0,0,0,3150031,0,2091101,2051011,0,0,0,0,0,0,2130180,0,4111001
3,289,962.124567857245,0,0,190057.026004006,190058.073026987,0,50,13,1,0,6,10,67695590,40124137,104454407,69572988,41011809,1000071,1011200,0,0,-1101200,0,21410109,2161201,0,0,20101109,0,0,10011319,10011709,0,0,0,0,0,0,40000409,30711419,3031060,30711519,0,31210819,0,0,30110809,2060200,2171000,0,0,4020160
3,290,940.137522586156,1,0,190060.143651925,190061.190719562,0,50,13,0,1,15,20,237835865,74606710,114677755,137214185,40400519,0,31800819,2201161,42011719,40810219,40500909,0,40110519,2160081,10511719,4131161,0,0,-2000190,4101021,31700819,20001719,0,20400809,10601719,31001719,0,30500809,1051160,1120120,20001419,10200319,41701219,30010309,0,0,20301909,10500009,20400219,4100201
3,291,906.071172212251,0,0,190063.190749974,190064.237811067,0,50,13,1,0,33,0,0,2000031,12495371,8030170,0,0,0,0,0,0,0,0,0,0,2000031,0,0,0,0,0,0,0,0,1101171,3131080,0,0,4011020,2171090,2081010,0,0,0,4020170,0,0,-4010000,0,0,0
3,292,818.70582193369,1,0,190066.167249647,190067.214314205,0,50,13,1,1,19,0,0,6301230,11302303,6241181,0,0,0,0,0,0,0,0,0,0,0,0,0,0,2100190,0,0,4201040,-4010160,0,0,0,0,3150031,0,2091101,2051011,0,0,0,0,0,0,2130180,0,4111001
3,293,848.917173221707,1,0,190069.190813108,190070.237876125,0,50,13,0,1,27,10,86763258,92754207,60256152,10610809,0,0,41710419,0,12011019,0,3040001,0,30001819,11411419,1031151,11210019,2101030,0,31300409,4090070,31610109,0,1141191,4191041,40201819,0,1200091,0,10511919,0,-3010091,0,0,0,10610809,0,0,0,0,0
3,294,948.783360770904,1,0,190072.179117224,190073.22614521,0,50,13,0,1,36,5,39570700,24422079,63111447,4372432,4150040,1090150,0,31310409,0,0,0,3020101,0,1170030,0,0,20212009,0,3040040,0,0,0,0,0,0,0,11000919,0,0,10500109,41610419,2100201,0,0,0,0,0,0,1201170,-1071061
3,295,1444.84367029509,0,0,190075.19088548,190076.2379766,0,50,13,0,0,13,10,54692879,90563699,50984359,66594327,0,0,0,3180151,0,0,11001409,40511319,0,41511609,0,0,-1170160,20210509,21611109,2020141,0,4040171,11501509,2151200,4161050,0,0,0,3160091,30010509,0,0,0,40601819,0,0,0,11501209,11411109,3080190
3,296,736.032375862123,1,0,190078.802684303,190079.84975117,0,50,13,1,1,28,10,118422916,43873190,85953188,65694518,20310309,0,41810009,0,31500409,2011070,0,2191010,20600109,1031071,40711009,0,0,2131110,0,0,0,0,1031020,1001131,0,0,21900409,0,30110619,0,31910009,-2171100,0,0,1021190,40701609,0,0,0,21800619
3,297,703.142851183657,1,0,190081.767427268,190082.814496445,0,50,13,1,1,9,20,113274958,107216024,140766167,151354557,0,1080071,32001609,41800319,21511709,11700019,0,1041180,-4140051,10101609,11211719,21300619,20611009,20500609,0,21300419,2190040,0,21100609,0,21300119,2031131,41201309,20701309,30301609,4130081,0,21510809,0,11200709,30611419,41710909,40100419,0,4150201,2070091
3,298,1083.1004747015,1,0,190084.708639495,190085.755699048,0,50,13,1,1,12,20,177026893,100636442,169537294,138956806,0,0,20011409,10600909,41311009,31900809,21600419,10601619,41000719,0,41300919,-4201170,2011080,2141201,4050201,2090131,3041021,41800719,31101409,11410409,31901609,0,3011030,30101109,0,40601009,21410719,10711009,11611619,0,0,0,41500319,3131121,30301219,41701519
3,299,1696.46493339678,0,0,190087.979263586,190089.026326988,0,50,13,0,0,25,0,0,5291142,6141201,7100241,0,0,0,0,0,0,0,0,0,0,2060040,0,0,0,0,2071101,0,1160001,2001121,0,0,0,0,0,-4140080,0,0,0,0,2030130,0,0,0,2050050,0,3020061
3,300,742.569782916689,1,0,190091.744012788,190092.791079655,0,50,13,0,1,29,5,51382922,56943080,52222228,5130091,4120010,0,2091021,3061091,0,0,0,41110619,1000181,0,22011519,0,31710409,0,0,2051051,1170101,0,0,0,11711219,0,0,40511009,0,0,0,0,-4100000,0,0,0,0,0,0,1030091
3,301,721.772266959306,0,0,190094.708793479,190095.75581954,0,50,13,0,0,11,0,5382191,6381412,6242341,0,0,0,0,1201140,0,4181051,0,0,0,0,-2201120,3150151,1030141,0,0,0,0,0,0,0,1101201,0,0,0,3101120,0,2040020,0,0,0,0,0,0,0,0,0
3,302,858.516174776014,0,0,190097.638195874,190098.685257351,0,50,13,1,0,17,5,11240331,7121191,91594009,74873359,0,0,0,4130141,0,0,3090160,4020030,0,0,0,0,3081111,0,0,0,-4040080,0,30601509,32000709,0,0,4061191,0,4030181,20900419,0,2061031,0,0,0,0,0,0,31211319,41601009
3,303,1052.76362615405,0,0,190100.567644848,190101.614710945,0,50,13,0,0,2,5,75532810,31312528,24253959,3310191,41500309,-2120200,0,3040091,3110151,4160040,0,0,21602019,0,0,20210709,11101819,0,0,0,0,0,0,0,1201130,21901809,0,1151020,0,0,0,0,0,0,0,0,0,1130060,0,2180131
3,304,1243.17109194817,1,0,190103.77943805,190104.826506457,0,50,13,1,1,34,5,4161000,54124209,60162848,52013989,0,0,0,0,0,0,0,4161000,0,1161101,31100309,0,0,0,1161080,0,20701719,0,31001909,21810719,0,0,0,4200180,3150040,0,0,0,2011170,0,41801619,0,4130010,-4071190,0,0
3,305,1756.81757304119,0,0,190107.120665906,190108.167769345,0,50,13,0,0,26,20,116015705,113168936,120283718,164527505,21101109,30601809,11411009,1190050,21700109,0,0,0,30011619,31711709,10011209,0,0,3181140,12011309,31711009,20401519,4141041,11000619,40800319,20911019,41410509,0,2111181,0,-4050071,0,4160151,30510919,3080130,41210519,2051030,11701109,11710419,40101209,20002019
3,306,959.88024547114,0,0,190111.085409642,190112.132471889,0,50,13,1,0,20,20,136574117,173438066,126916638,159936466,0,20611009,40411309,31200409,0,0,0,40310309,4041081,3101061,0,40611009,11211519,41600609,21501309,4090031,41111519,10211009,30200809,-2101191,41900409,1061031,0,10100819,40501309,0,1051070,31811719,10610119,20111519,0,41010909,3000131,3180151,30011709,20200209
3,307,871.133655251469,1,0,190114.144264398,190115.191332035,0,50,13,1,1,3,5,27463290,68752719,74232568,7112081,0,21212019,-4190100,0,2061171,0,0,0,0,0,31901409,0,31601219,0,2160011,3090080,0,0,30700809,0,0,0,2141070,1180070,40210619,0,0,3031081,0,0,4081000,0,0,0,0,0
3,308,654.478396259947,1,0,190117.261946579,190118.309016141,0,50,13,1,1,14,0,3110171,9562260,3190070,6071311,0,0,0,0,0,0,3110171,0,0,0,1131160,0,0,-4170010,1060050,0,0,3201040,0,0,0,3190070,0,0,0,0,0,0,0,2061201,0,0,0,0,4010110,0
3,309,1811.3010978559,0,0,190120.156098483,190121.203161116,0,50,13,0,0,4,10,92236740,82222466,47181730,46412710,20301619,0,1181051,-2010041,2141021,0,4091180,31210309,31301519,20500209,0,0,0,0,40211319,10000319,11510619,0,0,0,0,0,0,0,4111131,1070180,42000419,0,20310719,0,0,3100181,2101191,20900619,0,0
3,310,1345.29430561815,1,0,190124.167909085,190125.214974413,0,50,13,0,1,24,0,15392322,3180300,2140251,0,3191110,4050110,0,0,0,4130091,4021011,0,0,0,2110150,0,0,0,0,1070150,0,0,0,0,1100090,0,0,-1040161,0,0,0,0,0,0,0,0,0,0,0,0
3,311,762.092693068553,1,0,190127.662067303,190128.70912878,0,50,13,0,1,22,20,166467274,198088664,42405010,118196456,30211509,2131200,40300109,40911619,0,10211109,0,10901409,31800319,41900409,41900419,10310819,20101619,41501709,1161151,20100819,21111719,0,21401419,1050000,2201041,-1040200,4050160,0,11602019,1060171,0,12010019,0,0,20511719,21210219,21001719,2161161,41301619,0
3,312,748.335343232611,0,0,190130.520922521,190131.567989388,0,50,13,1,0,23,10,16821350,41444299,150375946,47082029,0,0,4071080,0,1040061,0,0,11710209,0,20010109,3121190,0,11200819,0,0,3021151,0,4091030,0,20312019,31700709,31800609,-3100140,41311319,20110119,2041031,0,4080101,11401319,0,31600609,0,0,0,0,0
3,313,840.607790858485,1,0,190143.344591153,190144.391666104,0,50,14,1,1,12,20,177026893,100636442,169537294,138956806,0,0,20011409,10600909,41311009,31900809,21600419,10601619,41000719,0,41300919,-4201170,2011080,2141201,4050201,2090131,3041021,41800719,31101409,11410409,31901609,0,3011030,30101109,0,40601009,21410719,10711009,11611619,0,0,0,41500319,3131121,30301219,41701519
3,314,1167.63443709351,1,0,190146.309396482,190147.35640137,0,50,14,0,1,36,10,96816457,65302607,90692250,67304159,31611609,0,30601909,0,2151050,0,1150180,0,31301709,0,0,1181160,0,0,41610419,10501009,0,12010019,0,0,41001719,2120040,0,41410209,0,4160121,2000161,0,0,0,0,21911219,0,40311609,1061181,-4020150
3,315,1563.2807596121,1,0,190149.685837872,190150.732909359,0,50,14,0,1,2,0,3380042,3091011,1100050,7501462,0,-2190021,0,0,0,0,0,0,1190021,0,0,0,0,3091011,0,0,0,0,0,0,0,0,0,0,0,1100050,0,3160071,0,1040200,0,0,2171001,0,0,1130190
3,316,1329.09553332138,0,0,190153.391769659,190154.438832676,0,50,14,1,0,34,5,4161000,54124209,60162848,52013989,0,0,0,0,0,0,0,4161000,0,1161101,31100309,0,0,0,1161080,0,20701719,0,31001909,21810719,0,0,0,4200180,3150040,0,0,0,2011170,0,41801619,0,4130010,-4071190,0,0
3,317,1228.28118692269,0,0,190156.944752991,190157.991814468,0,50,14,1,0,6,10,67695590,40124137,104454407,69572988,41011809,1000071,1011200,0,0,-1101200,0,21410109,2161201,0,0,20101109,0,0,10011319,10011709,0,0,0,0,0,0,40000409,30711419,3031060,30711519,0,31210819,0,0,30110809,2060200,2171000,0,0,4020160
3,318,787.544771999819,1,0,190160.368317452,190161.415385474,0,50,14,0,1,15,5,22450600,13911500,26613169,40311418,2190000,3000200,2170200,4090091,0,11000109,0,0,0,10811409,0,0,0,0,-3100091,0,0,0,0,21311919,0,0,0,3180130,1071090,0,1050030,0,0,20210009,0,0,20101409,0,0,0
3,319,1152.995526616,1,0,190163.28600202,190164.333109307,0,50,14,0,1,24,10,85307246,14902799,93058018,24661479,0,30211309,2171050,30011719,1101140,0,10400419,0,11411609,0,0,0,10711509,0,3101140,0,1090150,0,41501709,3190061,11811019,11911609,0,-1101051,20511519,0,3031050,0,0,21610409,0,0,3051070,0,0,0
3,320,610.416149633238,0,0,190166.521330195,190167.568392057,0,50,14,0,0,11,0,8242342,10253381,3131190,3170070,0,0,0,1110191,3111141,0,4021010,0,0,0,-4171060,0,0,0,0,2031161,0,4051160,0,3131190,0,0,0,0,0,0,0,0,0,3170070,0,0,0,0,0,0
3,321,1060.48940768233,0,0,190169.274306906,190170.321364149,0,50,14,0,0,27,5,77693679,33132379,7262393,54592489,0,0,0,4111181,30400819,0,41110509,0,2071170,0,0,0,0,2121060,31011319,0,0,0,0,0,1130131,2050001,0,0,3071170,0,-1011091,0,21511919,0,1170151,31910419,0,0,0,0
3,322,620.382018969394,1,0,190172.462597086,190173.509639701,0,50,14,1,1,28,10,118422916,43873190,85953188,65694518,20310309,0,41810009,0,31500409,2011070,0,2191010,20600109,1031071,40711009,0,0,2131110,0,0,0,0,1031020,1001131,0,0,21900409,0,30110619,0,31910009,-2171100,0,0,1021190,40701609,0,0,0,21800619
3,323,1207.41822762648,1,0,190175.227315106,190176.274378123,0,50,14,1,1,33,0,0,2000031,12495371,8030170,0,0,0,0,0,0,0,0,0,0,2000031,0,0,0,0,0,0,0,0,1101171,3131080,0,0,4011020,2171090,2081010,0,0,0,4020170,0,0,-4010000,0,0,0
3,324,2088.78865785664,0,0,190178.603818475,190179.650886497,0,50,14,0,0,25,20,128667275,108434436,102686637,140677165,40911109,10001619,10501509,1170081,20701319,2170200,11601419,0,31610019,0,0,11311309,0,30010919,4090151,10810519,10410919,41800619,0,10111509,31211409,4120060,0,3100141,-2041090,30601509,21500919,21201809,20301109,0,1090140,42011609,0,11401909,40510409,4160180
3,325,1128.35610032198,1,0,190182.886224296,190183.933288853,0,50,14,1,1,14,0,3110171,9562260,3190070,6071311,0,0,0,0,0,0,3110171,0,0,0,1131160,0,0,-4170010,1060050,0,0,3201040,0,0,0,3190070,0,0,0,0,0,0,0,2061201,0,0,0,0,4010110,0
3,326,1666.07765495428,1,0,190186.274494382,190187.321560479,0,50,14,0,1,26,10,70233176,33002328,67841409,51316370,0,4090170,0,0,10710719,3011030,11411119,20800119,20210019,0,0,0,0,0,0,0,21800919,11201409,31400219,0,0,0,0,2070180,31310809,-3060201,0,0,3031160,30702009,0,0,11201019,3051001,1191021,2140160
3,327,697.852332697948,0,0,190190.168652445,190191.215716617,0,50,14,0,0,29,20,84783417,213506654,111854167,125935236,20300819,0,0,30201419,20400709,3080051,0,0,10800419,4061191,30810619,30810519,31510619,31900809,31310519,10202009,41700209,1200160,0,3111010,21900719,10601909,0,41310309,31900119,0,3030101,11710409,-4000070,10110319,30611819,4161160,3130131,0,30300309,31911019
3,328,1143.76377782901,0,0,190193.062807814,190194.109922416,0,50,14,1,0,17,5,11240331,7121191,91594009,74873359,0,0,0,4130141,0,0,3090160,4020030,0,0,0,0,3081111,0,0,0,-4040080,0,30601509,32000709,0,0,4061191,0,4030181,20900419,0,2061031,0,0,0,0,0,0,31211319,41601009
3,329,809.562614158494,0,0,190196.30990925,190197.356974192,0,50,14,1,0,23,10,16821350,41444299,150375946,47082029,0,0,4071080,0,1040061,0,0,11710209,0,20010109,3121190,0,11200819,0,0,3021151,0,4091030,0,20312019,31700709,31800609,-3100140,41311319,20110119,2041031,0,4080101,11401319,0,31600609,0,0,0,0,0
3,330,1180.00631246832,1,0,190199.286402764,190200.333470401,0,50,14,0,1,13,20,64036628,147876716,152297215,159597104,10211219,0,4151141,0,10901019,31601019,4151060,0,3021170,0,0,0,-2070100,31100809,31701719,2091150,40011919,40901019,21200819,21511409,10810309,30301719,0,32000119,3151180,3021151,30300509,21210119,20711309,10411709,0,20001709,3160201,42001219,21200319,20900519
3,331,738.940755923977,0,0,190202.674721355,190203.72175011,0,50,14,1,0,20,20,136574117,173438066,126916638,159936466,0,20611009,40411309,31200409,0,0,0,40310309,4041081,3101061,0,40611009,11211519,41600609,21501309,4090031,41111519,10211009,30200809,-2101191,41900409,1061031,0,10100819,40501309,0,1051070,31811719,10610119,20111519,0,41010909,3000131,3180151,30011709,20200209
3,332,913.401213911129,0,0,190205.498234077,190206.545302099,0,50,14,0,0,4,0,6472453,7363411,3170021,4010140,1110181,0,0,-3171141,2191131,0,0,0,0,0,1141060,0,0,2151150,4071201,0,0,0,0,0,0,0,0,0,0,0,3170021,0,0,0,0,4010140,0,0,0,0
3,333,686.77893068525,1,0,190208.474820752,190209.521801002,0,50,14,1,1,3,5,27463290,68752719,74232568,7112081,0,21212019,-4190100,0,2061171,0,0,0,0,0,31901409,0,31601219,0,2160011,3090080,0,0,30700809,0,0,0,2141070,1180070,40210619,0,0,3031081,0,0,4081000,0,0,0,0,0
3,334,1068.97818183643,1,0,190211.333634779,190212.380674314,0,50,14,0,1,22,5,26051169,30133958,46152480,23770469,20000819,0,0,3050170,3000180,0,0,0,0,4020000,4110020,11602019,0,0,0,0,0,10401919,0,0,0,-4200061,40911309,0,0,1041110,0,0,0,0,21510209,1140100,0,0,1120160,0
3,335,796.239115297794,1,0,190214.463055575,190215.510116667,0,50,14,1,1,19,0,0,6301230,11302303,6241181,0,0,0,0,0,0,0,0,0,0,0,0,0,0,2100190,0,0,4201040,-4010160,0,0,0,0,3150031,0,2091101,2051011,0,0,0,0,0,0,2130180,0,4111001
3,336,855.23900212138,0,0,190217.41601835,190218.463086756,0,50,14,1,0,9,20,113274958,107216024,140766167,151354557,0,1080071,32001609,41800319,21511709,11700019,0,1041180,-4140051,10101609,11211719,21300619,20611009,20500609,0,21300419,2190040,0,21100609,0,21300119,2031131,41201309,20701309,30301609,4130081,0,21510809,0,11200709,30611419,41710909,40100419,0,4150201,2070091
3,337,697.475070977816,0,0,190225.780821985,190226.827888082,0,50,15,1,0,28,10,118422916,43873190,85953188,65694518,20310309,0,41810009,0,31500409,2011070,0,2191010,20600109,1031071,40711009,0,0,2131110,0,0,0,0,1031020,1001131,0,0,21900409,0,30110619,0,31910009,-2171100,0,0,1021190,40701609,0,0,0,21800619
3,338,596.925962658133,0,0,190228.557332514,190229.604448271,0,50,15,0,0,22,0,4020140,10431140,7541212,0,0,4020140,0,0,0,0,0,0,0,4170130,0,2130010,0,0,0,0,4131000,0,1180001,0,0,-3151050,1030060,2180101,0,0,0,0,0,0,0,0,0,0,0,0
