sub_id,Trial,RT,Resp,Error,Fix_onset,Disp_onset,q1,q2,block,repeat,tid,tloc,d_setsize,quad1,quad2,quad3,quad4,loc1,loc2,loc3,loc4,loc5,loc6,loc7,loc8,loc9,loc10,loc11,loc12,loc13,loc14,loc15,loc16,loc17,loc18,loc19,loc20,loc21,loc22,loc23,loc24,loc25,loc26,loc27,loc28,loc29,loc30,loc31,loc32,loc33,loc34,loc35,loc36
4,1,1527.47287845705,1,0,189185.538102911,189186.585136672,1,15,1,1,1,32,10,43611628,72993229,95924187,53523650,31710419,11901209,0,0,0,0,0,0,0,11711609,31110409,0,2170180,4140161,0,3150151,20710719,0,0,10100519,3020021,10901109,0,30700719,41201819,0,0,0,1200050,0,3191050,-3141171,4091070,41900309,0,0
4,2,813.99739702465,0,0,189189.161548343,189190.208565165,1,15,1,1,0,2,5,26741089,14153120,29132191,34714198,0,-1100060,0,0,1200050,0,0,21300819,3140160,0,0,0,2080091,0,0,11012019,1061010,0,0,0,0,0,21911009,4040001,3181181,0,0,0,0,0,3001060,0,0,21001819,10711319,0
4,3,1198.41402332531,0,0,189192.079112418,189193.126135399,1,15,1,0,0,15,20,172929874,121729488,111595620,124845374,11901819,21111809,4190171,21110709,11801919,41011619,0,31001419,30800409,31011719,32011509,0,2051081,0,-2041160,3100181,40002019,11511819,0,1080001,3091071,1001020,3011071,30011419,41900419,0,31500619,0,11011109,20210419,30601409,10710409,0,31511009,20801019,0
4,4,637.619448505575,1,0,189195.431955701,189196.478983302,1,15,1,1,1,14,0,4131071,7060362,8021221,5120200,4131071,0,0,0,0,0,0,0,0,4010181,0,0,0,-1020170,2030011,0,0,0,4000021,0,0,0,0,0,4021200,0,0,0,0,0,0,3100130,2020070,0,0,0
4,5,1120.23037692416,0,0,189198.161296193,189199.208324564,1,15,1,0,0,28,20,75176147,137546886,235547673,103854827,0,0,2150201,10902019,0,11210109,0,30801809,20112009,41410519,2061120,42001919,12011609,20311119,11310519,3200040,2040041,3200000,31810719,10301309,4181071,31910109,41411419,21410409,30710009,41902009,21910619,-1030150,0,0,40100409,1121150,0,40601609,0,21001509
4,6,1487.89157738793,1,0,189201.443560349,189202.4905841,1,15,1,1,1,7,20,142347855,154736564,97573437,133004236,30011009,2031010,21111409,11811209,21610509,30211309,-4050181,21511219,0,4020070,30300519,10101019,21100319,10711619,10801119,21700209,4091171,41910519,0,31810809,41801509,3051000,20910119,0,0,0,0,31310019,21611019,1091100,3051040,0,4030030,0,40010819,31900209
4,7,1484.82728813542,0,0,189205.137578364,189206.184590951,1,15,1,0,0,21,5,27621940,42163800,44572260,25311220,4110121,2000091,0,10501419,11010309,0,0,0,0,31901309,0,3010200,0,0,0,0,4121191,3131100,0,0,-2131041,41401019,0,0,1040200,0,0,0,0,4010201,0,0,21301019,0,0,0
4,8,765.122753364267,1,0,189208.749238215,189209.796265046,1,15,1,0,1,13,10,130147406,78521958,93874857,5091240,21300409,40401919,21700509,21701509,20900909,1091101,3051050,0,0,0,0,0,-2200010,30900219,0,40310509,1021150,4090070,0,0,1071100,0,0,40701919,0,30800619,21301219,2061050,0,0,0,0,0,0,3030190,0
4,9,757.018940203125,0,0,189211.584457986,189212.631480582,1,15,1,0,0,27,5,7341292,1151071,79323238,57242269,0,3100121,0,0,3080151,0,0,0,1161020,0,0,0,0,1151071,0,0,0,0,2191091,0,0,0,0,20110219,41600809,11411119,-4010000,3000031,0,0,30301119,0,0,0,21910919,2030200
4,10,900.975091615692,1,0,189214.584374064,189215.631395121,1,15,1,0,1,4,10,33833230,80284149,106744347,79844868,30601909,0,0,-2050161,0,1181160,0,0,0,2150030,41311409,0,0,0,31711519,3030171,0,2081020,30911919,0,0,0,0,20401209,3120191,41500019,10811009,0,0,30400009,0,4200151,2041180,11602019,31601509,0
4,11,614.346248650691,0,0,189217.654878509,189218.701924203,1,15,1,0,0,11,0,4222471,3191301,0,10312342,1050170,1171171,2001130,0,0,0,0,0,0,0,-2121190,0,0,0,0,0,0,1070111,0,0,0,0,0,0,0,0,0,0,0,4121131,0,3160070,3031141,0,0,0
4,12,607.67256541294,1,0,189220.513630558,189221.560649305,1,15,1,0,1,5,0,7252252,5271152,6392082,2071011,0,0,0,3051111,-4201141,0,0,0,0,2071141,0,0,0,0,3200011,0,0,0,0,0,4130011,0,0,1191071,0,1071000,0,2071011,0,0,0,0,0,0,0,0
4,13,1451.79147832096,1,0,189223.360597027,189224.407625398,1,15,1,1,1,29,5,61921728,15271762,71812528,48101780,40811009,0,0,0,0,0,0,21110719,0,0,4040180,2011010,1020200,0,1120120,4000071,3080181,0,0,0,30211419,0,0,0,0,0,41601109,4050170,-3150101,0,0,40901509,0,0,0,0
4,14,1118.59621762414,0,0,189226.948738844,189227.995762595,1,15,1,0,0,18,0,6363390,6150082,3200030,5312101,0,4181180,0,0,1031050,1151160,0,0,0,0,0,0,3010001,0,0,0,0,-3140081,0,0,0,3200030,0,0,0,0,0,2121001,0,3191100,0,0,0,0,0,0
4,15,1627.17083806638,1,0,189230.183946142,189231.230965273,1,15,1,1,1,31,0,3161161,1051141,8100200,9362481,1141071,0,2020090,0,0,0,0,0,0,0,0,0,0,0,0,1051141,0,0,4100080,0,0,0,4000120,0,0,0,0,0,3171101,0,-2180190,0,0,0,4011190,0
4,16,707.4371232884,0,0,189233.889726638,189234.936747695,1,15,1,0,0,8,10,81624739,86703609,64594707,59704519,3130100,20300409,0,31211509,0,2171141,21800409,-3011171,0,41400609,0,4000061,1191130,0,0,0,0,40111809,40901119,0,0,11210619,0,1181060,11301909,0,0,0,0,40601919,3081050,11901519,0,0,4120031,0
4,17,1438.47452377668,1,0,189236.842580854,189237.889604606,1,15,1,1,1,33,20,267639002,148586776,77164721,73076537,0,31001709,41200909,21510419,30901919,30010409,31811119,41200909,40001609,20410109,41511819,21711919,0,0,4141091,40400319,20411519,0,11901809,4151091,10610519,40010009,2040051,1180171,0,3080040,4191031,11300709,12001109,0,22001809,0,-2121101,21500619,4151190,0
4,18,1024.52831206028,0,0,189240.442485538,189241.489508519,1,15,1,1,0,26,10,103874727,110043798,82684409,46642441,0,0,20400119,1171171,40900919,0,30301109,11101409,0,0,42001409,0,0,31510509,31411709,1060000,0,4060171,4140200,0,41502009,0,1111070,0,0,-4031111,31900019,0,0,41411319,0,3191101,0,0,0,2040021
4,19,656.732760224259,0,0,189243.595347761,189244.642367663,1,15,1,1,0,22,20,153207395,87372948,168258775,119976227,2031121,31701309,20611309,11410709,11800609,4040191,10300819,20000319,41311009,21500119,1060021,0,41201119,0,1180050,1131130,0,21300509,41001919,31410109,41601909,-1031201,21300709,21901009,10011919,0,0,31711209,31810109,2141181,0,11201119,0,42011609,0,1101000
4,20,1054.45209747995,1,0,189246.477611686,189247.524641982,1,15,1,0,1,9,5,64283927,11453222,46164461,24531740,31601419,0,20312019,0,0,0,0,10200419,-2170070,3151020,4101001,0,0,4201201,0,0,0,0,40902009,0,0,1041181,0,0,3161200,0,1060071,0,3131131,0,0,0,21400609,0,0,0
4,21,553.457743342733,1,0,189249.630465825,189250.677494966,1,15,1,1,1,17,10,83322068,36382090,68934069,108216247,0,0,30411109,0,31510809,0,20300019,0,1100131,0,0,0,0,1141110,0,31210909,-4030071,0,0,41411919,2120200,0,0,0,0,21401919,4000031,0,40401219,20310819,31310519,0,1040180,1081061,3071130,11001319
4,22,988.017844589194,0,0,189252.40686356,189253.453889622,1,15,1,1,0,36,0,7311191,6240141,0,5261340,0,0,4160021,0,0,0,0,0,3151170,3100050,0,0,0,0,0,1100071,2040020,0,0,0,0,0,0,0,0,0,0,0,0,0,0,0,0,2030160,2061030,-1170150
4,23,752.331270574359,0,0,189255.61853858,189256.665561561,1,15,1,1,0,10,5,10302019,8303431,92383817,35521370,0,0,0,10302019,0,0,0,0,0,-2001190,0,3081050,0,2161061,0,0,1060130,0,4160050,41910419,10811519,0,0,31411619,0,2060070,2030140,0,0,0,0,0,0,31500319,4021051,0
4,24,1597.38833332085,1,0,189258.465518522,189259.512543044,1,15,1,0,1,20,20,138814465,212209283,110676099,134708437,20700209,11910909,4180100,0,0,20411519,40901319,0,40710409,10900019,31711909,41710319,20301819,3021130,30411019,41501619,1041140,31610309,0,-2060151,31901619,0,32001919,40601409,0,4111001,0,21511419,3111081,11000709,20000009,0,3141081,3131110,40801519,32011509
4,25,1011.54896829394,1,0,189274.65329863,189275.700325845,1,15,2,1,1,36,0,7311191,6240141,0,5261340,0,0,4160021,0,0,0,0,0,3151170,3100050,0,0,0,0,0,1100071,2040020,0,0,0,0,0,0,0,0,0,0,0,0,0,0,0,0,2030160,2061030,-1170150
4,26,1397.84997852985,1,0,189277.817988778,189278.864946701,1,15,2,1,1,33,20,267639002,148586776,77164721,73076537,0,31001709,41200909,21510419,30901919,30010409,31811119,41200909,40001609,20410109,41511819,21711919,0,0,4141091,40400319,20411519,0,11901809,4151091,10610519,40010009,2040051,1180171,0,3080040,4191031,11300709,12001109,0,22001809,0,-2121101,21500619,4151190,0
4,27,1200.90279591386,1,0,189281.264954631,189282.3119114,1,15,2,1,1,29,5,61921728,15271762,71812528,48101780,40811009,0,0,0,0,0,0,21110719,0,0,4040180,2011010,1020200,0,1120120,4000071,3080181,0,0,0,30211419,0,0,0,0,0,41601109,4050170,-3150101,0,0,40901509,0,0,0,0
4,28,2039.53255049419,1,0,189284.594205197,189285.641233568,1,15,2,0,1,20,5,63325189,12622829,25262940,15231151,4190140,0,0,40911219,0,11201719,0,3001011,4021100,0,0,0,0,0,10601809,0,2021020,0,1070180,-4081151,0,0,0,0,20111609,0,0,0,2000071,0,0,0,0,0,3120161,10110919
4,29,1219.69774493482,1,0,189288.805908703,189289.852882025,1,15,2,0,1,13,20,141267126,171314395,138313648,78572976,20901419,0,30210409,2081111,2020190,41300719,20910819,20711419,3131040,11410219,31610719,21400919,-3001151,0,30000819,30300219,41410309,2180040,1140201,20300609,41700509,0,31110209,0,3150111,0,40912009,11100109,0,11410509,12000109,2160021,0,31601519,10300709,0
4,30,1044.66754474561,1,0,189292.252826051,189293.299848648,1,15,2,0,1,21,0,1071000,3190091,13434642,2020150,0,0,0,0,1071000,0,0,0,0,0,0,0,0,0,3190091,0,0,0,0,3081140,-4011151,0,1190151,0,2021100,0,3131100,0,0,0,0,0,2020150,0,0,0
4,31,1108.69425180135,0,0,189295.39394735,189296.440934145,1,15,2,0,0,5,10,93334459,33283920,57364560,89113556,0,30910809,31510519,4101081,-4200021,0,0,20612009,2000020,0,2041050,0,0,0,0,1041051,30201819,0,11911209,4120201,0,0,0,0,40202019,1131131,0,0,0,0,4080200,21010519,31801309,0,10911509,21310019
4,32,683.933716762112,0,0,189298.699703749,189299.74672211,1,15,2,0,0,15,0,2081081,13392321,10452422,0,0,0,0,0,0,0,2081081,0,0,4081151,0,0,0,0,-3011080,4100030,0,2200060,0,3200181,0,0,3091081,0,0,4161160,0,0,0,0,0,0,0,0,0,0
4,33,1001.44951746915,1,0,189301.581984611,189302.628997199,1,15,2,0,1,18,10,75744837,63176640,55331718,77623229,0,0,0,22000119,10501219,1140171,0,11701409,30401919,2131070,3021041,0,0,42001109,11801309,0,2101110,-2121001,0,0,0,41011419,11210119,3110180,0,0,0,0,0,3180201,0,0,0,1040200,32000809,41402019
4,34,959.29783207248,0,0,189304.664240375,189305.711266436,1,15,2,0,0,4,5,66713898,51423490,4221081,47202249,20801419,0,0,-4200161,0,0,11310609,0,30401709,3101021,0,0,0,0,40201219,0,4001100,4120150,0,0,0,0,0,1121040,0,0,3100041,0,0,0,0,4050100,0,3040140,0,40112009
4,35,749.0679564944,1,0,189307.758278254,189308.80530085,1,15,2,1,1,14,0,4131071,7060362,8021221,5120200,4131071,0,0,0,0,0,0,0,0,4010181,0,0,0,-1020170,2030011,0,0,0,4000021,0,0,0,0,0,4021200,0,0,0,0,0,0,3100130,2020070,0,0,0
4,36,938.436027703574,0,0,189310.664076766,189311.711102828,1,15,2,0,0,11,20,128607795,175576998,111504555,140231596,0,10801809,30211509,30511309,3030160,31810719,21211209,1031080,0,1060150,-3171061,1080061,31910619,4111141,41810519,10310709,40611419,41511319,20301919,40100209,10300109,30601709,10200609,0,0,0,0,0,40800419,42000119,3190090,1030041,0,20700209,11710409,20800309
4,37,930.245213297894,0,0,189313.805163804,189314.8521864,1,15,2,1,0,22,20,153207395,87372948,168258775,119976227,2031121,31701309,20611309,11410709,11800609,4040191,10300819,20000319,41311009,21500119,1060021,0,41201119,0,1180050,1131130,0,21300509,41001919,31410109,41601909,-1031201,21300709,21901009,10011919,0,0,31711209,31810109,2141181,0,11201119,0,42011609,0,1101000
4,38,1164.53745873878,0,0,189316.863908847,189317.910932598,1,15,2,1,0,32,10,43611628,72993229,95924187,53523650,31710419,11901209,0,0,0,0,0,0,0,11711609,31110409,0,2170180,4140161,0,3150151,20710719,0,0,10100519,3020021,10901109,0,30700719,41201819,0,0,0,1200050,0,3191050,-3141171,4091070,41900309,0,0
4,39,523.625963571249,0,0,189320.169720294,189321.216717098,1,15,2,1,0,10,5,10302019,8303431,92383817,35521370,0,0,0,10302019,0,0,0,0,0,-2001190,0,3081050,0,2161061,0,0,1060130,0,4160050,41910419,10811519,0,0,31411619,0,2060070,2030140,0,0,0,0,0,0,31500319,4021051,0
4,40,654.873398772907,1,0,189322.781386305,189323.828409671,1,15,2,0,1,8,5,18084011,77452260,16224920,12010019,1141141,1151080,0,11600719,0,0,0,-4191071,0,4150181,0,30510019,1190051,0,0,41602009,0,0,0,3131060,0,0,10911609,1061200,0,1121051,0,0,0,0,0,12010019,0,0,0,0
4,41,1913.56947438908,0,0,189325.557782116,189326.604805867,1,15,2,1,0,31,0,3161161,1051141,8100200,9362481,1141071,0,2020090,0,0,0,0,0,0,0,0,0,0,0,0,1051141,0,0,4100080,0,0,0,4000120,0,0,0,0,0,3171101,0,-2180190,0,0,0,4011190,0
4,42,1284.87009581295,0,0,189329.675311852,189330.722339068,1,15,2,1,0,26,10,103874727,110043798,82684409,46642441,0,0,20400119,1171171,40900919,0,30301109,11101409,0,0,42001409,0,0,31510509,31411709,1060000,0,4060171,4140200,0,41502009,0,1111070,0,0,-4031111,31900019,0,0,41411319,0,3191101,0,0,0,2040021
4,43,786.095426534303,0,0,189333.086985639,189334.134011315,1,15,2,1,0,2,5,26741089,14153120,29132191,34714198,0,-1100060,0,0,1200050,0,0,21300819,3140160,0,0,0,2080091,0,0,11012019,1061010,0,0,0,0,0,21911009,4040001,3181181,0,0,0,0,0,3001060,0,0,21001819,10711319,0
4,44,1556.29144096747,0,0,189335.933967892,189336.980994338,1,15,2,1,0,7,20,142347855,154736564,97573437,133004236,30011009,2031010,21111409,11811209,21610509,30211309,-4050181,21511219,0,4020070,30300519,10101019,21100319,10711619,10801119,21700209,4091171,41910519,0,31810809,41801509,3051000,20910119,0,0,0,0,31310019,21611019,1091100,3051040,0,4030030,0,40010819,31900209
4,45,1544.79150215047,1,0,189339.557394845,189340.604415132,1,15,2,0,1,28,10,93842807,7372411,109746806,86216040,0,30201409,0,40401219,0,2030170,0,21210009,0,0,0,4200060,2041200,0,0,1131151,0,0,21501809,0,4010051,11701609,0,11411609,40411309,20710419,0,-2131051,1141091,0,0,40300709,41502009,0,0,1141180
4,46,862.001258938108,0,1,189343.21611117,189344.263138386,1,15,2,1,1,17,10,83322068,36382090,68934069,108216247,0,0,30411109,0,31510809,0,20300019,0,1100131,0,0,0,0,1141110,0,31210909,-4030071,0,0,41411919,2120200,0,0,0,0,21401919,4000031,0,40401219,20310819,31310519,0,1040180,1081061,3071130,11001319
4,47,1173.52398741059,0,0,189346.992538547,189349.639453894,1,15,2,0,0,27,20,108574435,111606387,220919463,80742890,0,10200519,0,11711119,11910519,21300619,30010719,21300809,2140131,10010919,30101009,20712019,0,0,3120010,3031180,40510119,4121131,31211509,11910119,41402009,10110009,30711719,41400719,21402019,31711219,-1060141,41201919,0,0,1160010,0,3050151,31300609,0,4030201
4,48,1743.14263739507,0,0,189351.968816483,189353.015842159,1,15,2,0,0,9,0,4122201,6120210,4092382,2182292,0,0,0,0,2061080,0,0,0,-2061121,0,4090110,0,0,0,0,2030100,0,0,0,0,2001201,0,0,2091181,0,0,0,0,0,0,0,0,1131161,1051131,0,0
4,49,807.116219832096,1,0,189382.991488759,189384.038514435,1,15,3,1,1,22,20,153207395,87372948,168258775,119976227,2031121,31701309,20611309,11410709,11800609,4040191,10300819,20000319,41311009,21500119,1060021,0,41201119,0,1180050,1131130,0,21300509,41001919,31410109,41601909,-1031201,21300709,21901009,10011919,0,0,31711209,31810109,2141181,0,11201119,0,42011609,0,1101000
4,50,1054.68769359868,1,0,189385.967877948,189387.014937116,1,15,3,1,1,7,20,142347855,154736564,97573437,133004236,30011009,2031010,21111409,11811209,21610509,30211309,-4050181,21511219,0,4020070,30300519,10101019,21100319,10711619,10801119,21700209,4091171,41910519,0,31810809,41801509,3051000,20910119,0,0,0,0,31310019,21611019,1091100,3051040,0,4030030,0,40010819,31900209
4,51,596.778940118384,1,0,189389.167792795,189390.214809617,1,15,3,0,1,27,0,1070160,6121242,5452371,7151260,0,0,0,0,0,0,1070160,0,0,0,2060051,0,0,0,0,0,0,4061191,0,2080150,0,0,0,0,0,1191020,-2181201,3021170,0,0,0,4130090,0,0,0,0
4,52,754.287257237593,1,0,189391.991240459,189393.03826421,1,15,3,1,1,2,5,26741089,14153120,29132191,34714198,0,-1100060,0,0,1200050,0,0,21300819,3140160,0,0,0,2080091,0,0,11012019,1061010,0,0,0,0,0,21911009,4040001,3181181,0,0,0,0,0,3001060,0,0,21001819,10711319,0
4,53,679.940516711213,0,0,189394.967632343,189396.01465109,1,15,3,0,0,9,20,128615065,155137387,132147256,153946474,0,0,1170150,11301709,20210109,20111319,30000619,41711009,-4110150,31310919,20711919,4081131,0,4111190,31401319,3100081,40310709,20110119,2001010,0,1121090,31801219,31011409,3101200,0,21801119,41310209,20201409,31100419,0,0,40611309,11211109,20710919,0,30111309
4,54,1183.97567750071,1,0,189397.720493565,189398.767516547,1,15,3,0,1,13,10,68710758,71966540,47146028,83223127,0,1140040,0,4050090,41510609,0,0,22010019,0,3101021,2061030,31601609,-1061111,0,32001619,2140150,0,0,0,0,21111619,0,11611319,1191151,11210819,2021120,0,0,0,30201809,0,0,0,12010809,0,41010509
4,55,1078.48752007703,0,0,189401.08510626,189402.132131551,1,15,3,1,0,29,5,61921728,15271762,71812528,48101780,40811009,0,0,0,0,0,0,21110719,0,0,4040180,2011010,1020200,0,1120120,4000071,3080181,0,0,0,30211419,0,0,0,0,0,41601109,4050170,-3150101,0,0,40901509,0,0,0,0
4,56,1523.6752385681,1,0,189404.390892685,189405.437920286,1,15,3,0,1,28,10,54794449,66763497,47140720,49034770,0,0,1181021,0,0,0,0,31712009,21901419,0,0,2040140,0,21311919,0,0,11700419,31711019,0,0,1130141,20100009,1060020,20700519,4150031,0,0,-3151121,20400319,1071051,2101061,0,11100909,11210309,0,0
4,57,695.796288782731,1,0,189408.096728231,189409.143708867,1,15,3,0,1,20,20,105256357,157954483,201217246,97424307,12011109,3060201,1050040,20901119,41710919,2121050,4200010,20201909,0,0,11410119,41700109,11611509,20710109,31711609,0,30401009,10410019,41310819,-3181050,2090070,40011009,30501909,40611909,0,2200171,41310309,0,40510819,3101151,0,0,21801409,0,10100119,21910809
4,58,534.623913263204,0,0,189410.990721916,189412.037796483,1,15,3,1,0,10,5,10302019,8303431,92383817,35521370,0,0,0,10302019,0,0,0,0,0,-2001190,0,3081050,0,2161061,0,0,1060130,0,4160050,41910419,10811519,0,0,31411619,0,2060070,2030140,0,0,0,0,0,0,31500319,4021051,0
4,59,1063.88518089079,0,0,189413.649467113,189414.69648355,1,15,3,1,0,26,10,103874727,110043798,82684409,46642441,0,0,20400119,1171171,40900919,0,30301109,11101409,0,0,42001409,0,0,31510509,31411709,1060000,0,4060171,4140200,0,41502009,0,1111070,0,0,-4031111,31900019,0,0,41411319,0,3191101,0,0,0,2040021
4,60,453.503784665372,0,0,189416.825847371,189417.872869198,1,15,3,0,0,15,20,148775818,108853466,194148936,96186986,40600709,1031021,0,1191030,30301409,0,31510019,4031121,40110509,0,0,10910109,4081101,40001219,-1060190,10800319,10000319,32000209,40911609,11611419,21400119,3051091,0,4151161,30901519,41411909,40710109,1170011,11801619,0,11001919,30700109,0,0,10811319,30702009
4,61,1083.22831429541,0,0,189419.41401421,189420.461036807,1,15,3,1,0,31,0,3161161,1051141,8100200,9362481,1141071,0,2020090,0,0,0,0,0,0,0,0,0,0,0,0,1051141,0,0,4100080,0,0,0,4000120,0,0,0,0,0,3171101,0,-2180190,0,0,0,4011190,0
4,62,738.012262649136,0,0,189422.590394854,189423.637410906,1,15,3,0,0,4,0,1090100,2251060,5030181,5461142,0,0,0,-1090100,0,0,0,0,0,1120060,0,0,0,0,0,0,0,1131000,3000101,0,0,0,2030080,0,0,0,0,0,1130030,0,1130071,0,0,0,0,3201041
4,63,506.524072872708,0,0,189425.519720256,189426.566750551,1,15,3,0,0,21,5,51122011,85953138,57054658,4131180,2191100,0,0,0,0,4130001,0,4090101,40710809,0,4141020,41601709,0,40210409,0,0,0,0,30800909,0,-1201110,0,0,0,0,21001509,4051130,0,3060010,0,0,0,0,0,1071170,0
4,64,519.616980134742,0,0,189428.225538479,189429.27256146,1,15,3,1,0,17,10,83322068,36382090,68934069,108216247,0,0,30411109,0,31510809,0,20300019,0,1100131,0,0,0,0,1141110,0,31210909,-4030071,0,0,41411919,2120200,0,0,0,0,21401919,4000031,0,40401219,20310819,31310519,0,1040180,1081061,3071130,11001319
4,65,1410.20145095536,1,0,189430.943098011,189431.990125227,1,15,3,1,1,33,20,267639002,148586776,77164721,73076537,0,31001709,41200909,21510419,30901919,30010409,31811119,41200909,40001609,20410109,41511819,21711919,0,0,4141091,40400319,20411519,0,11901809,4151091,10610519,40010009,2040051,1180171,0,3080040,4191031,11300709,12001109,0,22001809,0,-2121101,21500619,4151190,0
4,66,493.288345111068,0,0,189434.448885129,189435.495915425,1,15,3,0,0,11,0,0,5320201,10311171,7311292,0,0,0,0,0,0,0,0,0,0,-1130160,0,0,0,0,0,4190041,0,0,0,3000070,3161020,4150081,0,0,0,0,1100080,4050101,0,2161111,0,0,0,0,0
4,67,1520.24870106834,1,0,189437.04881522,189438.095840511,1,15,3,1,1,36,0,7311191,6240141,0,5261340,0,0,4160021,0,0,0,0,0,3151170,3100050,0,0,0,0,0,1100071,2040020,0,0,0,0,0,0,0,0,0,0,0,0,0,0,0,0,2030160,2061030,-1170150
4,68,980.947651580209,1,0,189440.77813223,189441.825152517,1,15,3,0,1,5,5,45571400,19564129,12201259,45634279,0,0,40310319,0,-3080031,0,0,0,2181050,0,4091130,10311909,0,0,3120000,0,0,2041090,0,1201040,11000219,0,0,0,0,0,0,1031101,10600219,0,0,0,31001819,0,3001140,0
4,69,1010.5026444071,0,0,189443.848631671,189444.895650418,1,15,3,0,0,8,5,60294329,38412111,21901219,14462739,31200609,0,0,0,2041000,20711609,4190110,-2151001,0,3011061,31010819,3200041,0,0,0,0,1190190,0,0,0,0,21901219,0,0,0,0,0,0,0,0,0,0,2101200,2061020,0,10300519
4,70,810.708290548064,0,0,189447.107368167,189448.154441194,1,15,3,1,0,14,0,4131071,7060362,8021221,5120200,4131071,0,0,0,0,0,0,0,0,4010181,0,0,0,-1020170,2030011,0,0,0,4000021,0,0,0,0,0,4021200,0,0,0,0,0,0,3100130,2020070,0,0,0
4,71,883.02590182866,1,0,189450.119044418,189451.166064705,1,15,3,1,1,32,10,43611628,72993229,95924187,53523650,31710419,11901209,0,0,0,0,0,0,0,11711609,31110409,0,2170180,4140161,0,3150151,20710719,0,0,10100519,3020021,10901109,0,30700719,41201819,0,0,0,1200050,0,3191050,-3141171,4091070,41900309,0,0
4,72,1032.34917894588,1,0,189453.236604566,189454.283651415,1,15,3,0,1,18,10,7522581,30454061,75911406,103226065,4141020,0,1150191,0,1140200,1091170,0,0,0,4111051,0,0,21211809,0,2130051,0,0,-3001150,0,20110919,0,4080150,0,20900109,20110209,10710019,0,0,20310609,0,20611019,0,40601919,11100909,10601609,0
4,73,1027.84282594803,0,0,189468.38912148,189469.436156395,1,15,4,1,0,36,0,7311191,6240141,0,5261340,0,0,4160021,0,0,0,0,0,3151170,3100050,0,0,0,0,0,1100071,2040020,0,0,0,0,0,0,0,0,0,0,0,0,0,0,0,0,2030160,2061030,-1170150
4,74,722.62306328048,1,0,189471.636093184,189472.683128869,1,15,4,1,1,14,0,4131071,7060362,8021221,5120200,4131071,0,0,0,0,0,0,0,0,4010181,0,0,0,-1020170,2030011,0,0,0,4000021,0,0,0,0,0,4021200,0,0,0,0,0,0,3100130,2020070,0,0,0
4,75,1147.97682315111,0,0,189474.541895932,189475.588917758,1,15,4,0,0,28,5,36181859,117634267,4132261,45812501,0,0,0,3140030,2141010,0,0,30900819,0,0,0,41701209,0,30610019,4161130,0,1060100,40101809,0,0,0,2031160,2101101,0,0,0,0,-2180171,3131121,0,0,0,40501209,0,0,0
4,76,529.732599301497,1,0,189477.835927574,189478.882945936,1,15,4,0,1,20,10,94015550,44871730,89014979,148766805,41600109,0,1101111,4121071,4120110,0,41002009,0,2071140,0,0,0,0,0,0,0,41811609,3060121,0,-2161150,4051111,0,0,40801209,42001509,0,0,1131020,41411819,40311309,22010319,12001319,0,31901019,0,0
4,77,809.927204769338,0,0,189480.588788796,189481.635811008,1,15,4,1,0,2,5,26741089,14153120,29132191,34714198,0,-1100060,0,0,1200050,0,0,21300819,3140160,0,0,0,2080091,0,0,11012019,1061010,0,0,0,0,0,21911009,4040001,3181181,0,0,0,0,0,3001060,0,0,21001819,10711319,0
4,78,779.085672402289,0,0,189483.541647632,189484.588673308,1,15,4,1,0,22,20,153207395,87372948,168258775,119976227,2031121,31701309,20611309,11410709,11800609,4040191,10300819,20000319,41311009,21500119,1060021,0,41201119,0,1180050,1131130,0,21300509,41001919,31410109,41601909,-1031201,21300709,21901009,10011919,0,0,31711209,31810109,2141181,0,11201119,0,42011609,0,1101000
4,79,1153.65076277521,0,0,189486.423955442,189487.470955326,1,15,4,0,0,18,10,33483590,44674078,105355456,68563601,0,1011181,0,1101090,0,0,30210219,1161100,0,10811819,0,0,0,10801219,0,21010009,0,-2051031,21600809,1040000,20011119,31301919,31401609,0,0,0,0,2140111,0,20401719,0,40801719,2090041,0,3130011,0
4,80,595.938955317251,1,0,189489.776767928,189490.82379014,1,15,4,0,1,13,10,86561908,15902510,127988586,65942897,40010009,0,0,0,2051070,3200120,41300709,0,0,0,0,0,-1100160,10701019,2040131,0,0,2061200,21301819,2031180,31211409,2041160,0,30901309,0,40501709,0,0,20510019,30510819,0,0,0,11810909,0,3111150
4,81,598.400395683711,1,0,189492.506104956,189493.553134482,1,15,4,1,1,10,5,10302019,8303431,92383817,35521370,0,0,0,10302019,0,0,0,0,0,-2001190,0,3081050,0,2161061,0,0,1060130,0,4160050,41910419,10811519,0,0,31411619,0,2060070,2030140,0,0,0,0,0,0,31500319,4021051,0
4,82,777.36181722139,1,0,189495.294283652,189496.341305479,1,15,4,1,1,31,0,3161161,1051141,8100200,9362481,1141071,0,2020090,0,0,0,0,0,0,0,0,0,0,0,0,1051141,0,0,4100080,0,0,0,4000120,0,0,0,0,0,3171101,0,-2180190,0,0,0,4011190,0
4,83,616.614053666126,1,0,189498.258897271,189499.305950279,1,15,4,0,1,21,0,4161260,7231120,5180100,6141210,2071130,2090130,0,0,0,0,0,0,0,4070040,3161080,0,0,0,0,0,0,0,0,0,-3120060,0,0,0,0,0,2060040,0,0,3010040,0,0,0,0,3131170,0
4,84,897.053109336412,1,0,189500.976458728,189502.023482479,1,15,4,1,1,26,10,103874727,110043798,82684409,46642441,0,0,20400119,1171171,40900919,0,30301109,11101409,0,0,42001409,0,0,31510509,31411709,1060000,0,4060171,4140200,0,41502009,0,1111070,0,0,-4031111,31900019,0,0,41411319,0,3191101,0,0,0,2040021
4,85,824.654656258645,1,0,189504.105789442,189505.152874018,1,15,4,0,1,11,20,107226295,102856516,158228215,120854575,2190130,0,10810519,21301109,0,20710709,20501809,0,31712019,1061000,-4181200,0,11100019,0,11001909,41310419,3191160,31010809,0,10001019,40011309,2171201,2010040,20700509,11510919,31711209,40112009,2080060,30101409,4160040,11901719,0,20910709,20000019,31700619,0
4,86,902.288193436107,1,0,189507.03510907,189508.082141291,1,15,4,1,1,32,10,43611628,72993229,95924187,53523650,31710419,11901209,0,0,0,0,0,0,0,11711609,31110409,0,2170180,4140161,0,3150151,20710719,0,0,10100519,3020021,10901109,0,30700719,41201819,0,0,0,1200050,0,3191050,-3141171,4091070,41900309,0,0
4,87,763.30804740428,0,0,189510.129150413,189511.176166081,1,15,4,0,0,9,20,170966984,94256168,100666696,77426887,11300209,20201519,0,30501309,31400119,21811119,11000509,40601009,-4151191,10200809,4141090,3101041,20100719,0,21711919,0,32000419,3000171,10801419,0,3151021,0,10810719,31711009,1181090,11511319,31500119,10200909,10911009,0,0,0,41111909,1041041,3151100,11010919
4,88,876.177446334623,0,0,189513.117300545,189514.164325451,1,15,4,0,0,27,20,92194391,155916695,156299076,162777905,40101719,2060171,1200151,4131021,11600419,2090001,0,31010909,0,41910809,10600309,20711709,0,1161031,20311119,30911109,30310609,0,41011309,30001619,21602019,30911519,0,0,30711519,0,-2061091,21501619,40500919,40012009,11610209,2030041,0,4011190,31401209,11710709
4,89,589.225621137302,0,0,189516.117216624,189517.164241145,1,15,4,0,0,15,5,3150160,52695161,60783049,22491549,0,0,0,0,0,0,0,3150160,0,1111040,0,0,41201909,0,-4171130,2110051,0,4101031,0,0,0,0,31800109,21810609,0,4021130,3151201,0,0,0,1191121,0,0,0,10800309,10500119
4,90,969.779934122926,0,0,189518.799491019,189519.846514385,1,15,4,0,0,8,5,3291261,63124998,7240351,63613219,0,2130100,0,0,0,0,0,-1161161,0,0,0,10111019,10301909,1101061,0,0,0,41611009,0,0,0,0,0,0,0,3100170,4140181,11310409,3040090,4171110,3191191,0,0,0,41900419,0
4,91,861.656333901919,0,0,189521.834724956,189522.881725995,1,15,4,0,0,4,0,9320262,5152152,4140111,4131150,4090091,1080120,0,-2020000,0,2130051,0,0,0,3141121,0,0,0,0,2011031,0,0,0,0,4140111,0,0,0,0,0,0,0,0,0,0,0,0,0,0,4131150,0
4,92,1111.7954973015,0,0,189524.787566083,189525.834582905,1,15,4,0,0,5,0,13183162,5261080,4051130,1110170,0,0,4000050,4161040,-3001001,0,0,2021071,0,0,4170040,0,0,1091040,0,0,0,0,0,0,0,0,0,0,0,0,4051130,0,0,0,0,0,1110170,0,0,0
4,93,1756.08271511737,1,0,189527.95217924,189528.999207226,1,15,4,1,1,33,20,267639002,148586776,77164721,73076537,0,31001709,41200909,21510419,30901919,30010409,31811119,41200909,40001609,20410109,41511819,21711919,0,0,4141091,40400319,20411519,0,11901809,4151091,10610519,40010009,2040051,1180171,0,3080040,4191031,11300709,12001109,0,22001809,0,-2121101,21500619,4151190,0
4,94,1183.23501260602,0,0,189531.857949266,189532.905000734,1,15,4,1,0,17,10,83322068,36382090,68934069,108216247,0,0,30411109,0,31510809,0,20300019,0,1100131,0,0,0,0,1141110,0,31210909,-4030071,0,0,41411919,2120200,0,0,0,0,21401919,4000031,0,40401219,20310819,31310519,0,1040180,1081061,3071130,11001319
4,95,895.166030706605,1,0,189535.1049279,189536.151948571,1,15,4,1,1,29,5,61921728,15271762,71812528,48101780,40811009,0,0,0,0,0,0,21110719,0,0,4040180,2011010,1020200,0,1120120,4000071,3080181,0,0,0,30211419,0,0,0,0,0,41601109,4050170,-3150101,0,0,40901509,0,0,0,0
4,96,1258.44445062103,1,0,189538.257779729,189539.304802326,1,15,4,1,1,7,20,142347855,154736564,97573437,133004236,30011009,2031010,21111409,11811209,21610509,30211309,-4050181,21511219,0,4020070,30300519,10101019,21100319,10711619,10801119,21700209,4091171,41910519,0,31810809,41801509,3051000,20910119,0,0,0,0,31310019,21611019,1091100,3051040,0,4030030,0,40010819,31900209
4,97,577.350345382001,0,0,189546.645779572,189547.692806018,1,15,5,1,0,14,0,4131071,7060362,8021221,5120200,4131071,0,0,0,0,0,0,0,0,4010181,0,0,0,-1020170,2030011,0,0,0,4000021,0,0,0,0,0,4021200,0,0,0,0,0,0,3100130,2020070,0,0,0
4,98,709.828500752337,0,0,189549.316334216,189550.3633341,1,15,5,1,0,22,20,153207395,87372948,168258775,119976227,2031121,31701309,20611309,11410709,11800609,4040191,10300819,20000319,41311009,21500119,1060021,0,41201119,0,1180050,1131130,0,21300509,41001919,31410109,41601909,-1031201,21300709,21901009,10011919,0,0,31711209,31810109,2141181,0,11201119,0,42011609,0,1101000
4,99,540.093823568895,0,0,189552.23385941,189553.280886626,1,15,5,0,0,13,20,157728032,150235148,79222448,140344976,20400919,2171140,10010109,40610319,10901809,11300409,10510409,40811509,11011409,0,40511919,2031031,-1171160,40810509,0,30010119,4200201,31500209,41910109,21410319,10700919,1020081,0,4181020,0,0,0,0,4031101,1080020,40210809,11601509,20710909,0,21810609,40900019
4,100,849.575104075484,0,0,189554.845555063,189555.892575349,1,15,5,1,0,31,0,3161161,1051141,8100200,9362481,1141071,0,2020090,0,0,0,0,0,0,0,0,0,0,0,0,1051141,0,0,4100080,0,0,0,4000120,0,0,0,0,0,3171101,0,-2180190,0,0,0,4011190,0
4,101,504.914936056593,0,0,189557.86900188,189558.916020242,1,15,5,1,0,7,20,142347855,154736564,97573437,133004236,30011009,2031010,21111409,11811209,21610509,30211309,-4050181,21511219,0,4020070,30300519,10101019,21100319,10711619,10801119,21700209,4091171,41910519,0,31810809,41801509,3051000,20910119,0,0,0,0,31310019,21611019,1091100,3051040,0,4030030,0,40010819,31900209
4,102,755.970306519885,1,0,189560.468929661,189561.515948023,1,15,5,0,1,27,0,4171192,7161191,10330211,2010131,0,0,0,0,2090031,2081161,0,0,0,0,0,0,0,3031131,0,0,4130060,0,0,0,0,3060031,0,4170060,0,0,-3100120,0,0,0,0,2010131,0,0,0,0
4,103,578.447484120261,0,0,189563.386491811,189564.433520567,1,15,5,0,0,8,10,75313890,60193741,41512360,105734365,0,40900919,0,30111719,0,0,0,-3170151,1131101,21710609,0,2151011,0,31211809,3020151,0,0,2100161,0,3150110,0,0,4050141,0,4000100,0,30312009,0,0,11301019,0,21600119,41610809,10611709,20610709,0
4,104,864.094291668152,1,1,189566.068771596,189567.115798042,1,15,5,1,0,29,5,61921728,15271762,71812528,48101780,40811009,0,0,0,0,0,0,21110719,0,0,4040180,2011010,1020200,0,1120120,4000071,3080181,0,0,0,30211419,0,0,0,0,0,41601109,4050170,-3150101,0,0,40901509,0,0,0,0
4,105,617.041745281313,1,0,189569.056920188,189570.103946634,1,15,5,0,1,9,0,6181072,2110190,4412230,3322281,0,0,0,0,2130011,0,0,0,-4051061,0,0,0,0,0,0,0,2110190,0,0,0,0,0,2031060,1201040,1180130,0,0,0,0,0,2141100,0,0,0,1181181,0
4,106,620.123357773991,0,0,189571.762727632,189572.809759853,1,15,5,0,0,21,5,46942160,10242172,26081201,53494218,4000171,2031171,30900609,0,0,0,10010209,0,0,0,2091050,0,0,0,0,0,4030031,4121091,0,0,-3180121,21811009,1090071,0,0,0,0,0,2171190,0,0,0,10911209,0,0,40411819
4,107,1016.61158990464,1,0,189574.633243318,189575.680264375,1,15,5,0,1,5,20,118836777,209214995,166455045,123103435,1041000,40602009,31810709,0,-1100130,3170101,20111219,21001609,0,41910019,0,31211409,0,41310019,40901619,2170201,20300609,31411119,0,30110719,0,20911809,31701019,40300209,41200109,1111130,1120050,0,30010109,30900909,11900819,4091150,4000030,0,21900209,20300209
4,108,767.379779485054,1,0,189577.774327276,189578.821354107,1,15,5,0,1,20,5,71842158,35832860,47032540,47673650,0,0,0,0,0,40800619,0,1031030,30010509,0,0,0,31510719,3181010,0,1141131,0,0,0,-1200080,0,0,0,3021141,1010100,41801219,0,41601419,0,0,3011160,3061071,0,0,0,0
4,109,940.187985019293,1,0,189580.762482797,189581.809502699,1,15,5,1,1,33,20,267639002,148586776,77164721,73076537,0,31001709,41200909,21510419,30901919,30010409,31811119,41200909,40001609,20410109,41511819,21711919,0,0,4141091,40400319,20411519,0,11901809,4151091,10610519,40010009,2040051,1180171,0,3080040,4191031,11300709,12001109,0,22001809,0,-2121101,21500619,4151190,0
4,110,852.465775911696,1,0,189583.868281618,189584.91530152,1,15,5,0,1,28,20,100657675,188934903,81135929,141127598,30901819,0,4161040,10211609,21101319,11900009,2071160,20310719,0,11600319,11701619,30810109,0,20101219,41610809,0,32000719,41110109,20210419,1190111,2071001,0,11601519,0,11600609,3151051,31311219,-1191051,3021031,0,42001119,3011160,0,21101619,30501009,40300609
4,111,972.689854010241,1,0,189586.974081594,189588.021097261,1,15,5,1,1,32,10,43611628,72993229,95924187,53523650,31710419,11901209,0,0,0,0,0,0,0,11711609,31110409,0,2170180,4140161,0,3150151,20710719,0,0,10100519,3020021,10901109,0,30700719,41201819,0,0,0,1200050,0,3191050,-3141171,4091070,41900309,0,0
4,112,841.999072377803,1,0,189590.04457911,189591.091598626,1,15,5,1,1,2,5,26741089,14153120,29132191,34714198,0,-1100060,0,0,1200050,0,0,21300819,3140160,0,0,0,2080091,0,0,11012019,1061010,0,0,0,0,0,21911009,4040001,3181181,0,0,0,0,0,3001060,0,0,21001819,10711319,0
4,113,990.494683413999,1,0,189593.068026312,189594.115050448,1,15,5,0,1,11,0,9323262,4051361,4351342,3021141,2081201,0,0,0,3121000,0,0,0,4121061,0,-2021161,0,0,0,2030200,0,0,0,0,1200201,0,0,0,3151141,0,0,0,3021141,0,0,0,0,0,0,0,0
4,114,731.650782778161,1,0,189596.220883531,189597.267907667,1,15,5,0,1,4,10,79704409,1031131,61985631,176235474,3050001,0,0,-1200190,3031100,31411509,41011609,0,0,0,1031131,0,0,0,0,0,0,0,3151191,0,1191180,21110709,0,3101071,0,2130071,31301409,0,20801009,0,0,31811109,31210109,31412009,20900419,40100819
4,115,498.900306003634,1,0,189599.079622491,189600.126642008,1,15,5,1,1,10,5,10302019,8303431,92383817,35521370,0,0,0,10302019,0,0,0,0,0,-2001190,0,3081050,0,2161061,0,0,1060130,0,4160050,41910419,10811519,0,0,31411619,0,2060070,2030140,0,0,0,0,0,0,31500319,4021051,0
4,116,1001.47377004032,1,0,189601.656025693,189602.703045595,1,15,5,1,1,36,0,7311191,6240141,0,5261340,0,0,4160021,0,0,0,0,0,3151170,3100050,0,0,0,0,0,1100071,2040020,0,0,0,0,0,0,0,0,0,0,0,0,0,0,0,0,2030160,2061030,-1170150
4,117,641.903294075746,0,0,189604.726527443,189605.77354542,1,15,5,0,0,15,5,73713657,10222301,35193670,18433500,40701419,11800319,21211919,0,0,0,0,0,0,2011060,4151171,0,0,0,-4060070,0,0,0,0,1161190,0,0,2121071,0,0,31911409,0,0,1141190,11111109,0,0,0,4161011,0,2020190
4,118,1301.68634548318,0,0,189607.608861816,189608.655822819,1,15,5,0,0,18,10,120064719,87825107,40911519,47253708,0,0,41310009,1041110,0,4060111,31101309,2141171,40411009,2080151,0,31100319,31101719,10000309,1011140,0,10410319,-2121150,0,0,0,0,0,0,40911519,0,0,4091130,2161050,0,0,0,30000419,0,11001109,0
4,119,602.082932251506,0,0,189611.126350207,189612.173367029,1,15,5,1,0,17,10,83322068,36382090,68934069,108216247,0,0,30411109,0,31510809,0,20300019,0,1100131,0,0,0,0,1141110,0,31210909,-4030071,0,0,41411919,2120200,0,0,0,0,21401919,4000031,0,40401219,20310819,31310519,0,1040180,1081061,3071130,11001319
4,120,683.175343670882,0,0,189613.926274062,189614.973296274,1,15,5,1,0,26,10,103874727,110043798,82684409,46642441,0,0,20400119,1171171,40900919,0,30301109,11101409,0,0,42001409,0,0,31510509,31411709,1060000,0,4060171,4140200,0,41502009,0,1111070,0,0,-4031111,31900019,0,0,41411319,0,3191101,0,0,0,2040021
4,121,549.137711437652,1,0,189621.114299389,189622.161326605,1,15,6,1,1,10,5,10302019,8303431,92383817,35521370,0,0,0,10302019,0,0,0,0,0,-2001190,0,3081050,0,2161061,0,0,1060130,0,4160050,41910419,10811519,0,0,31411619,0,2060070,2030140,0,0,0,0,0,0,31500319,4021051,0
4,122,526.133214327274,1,0,189623.914231328,189624.961247765,1,15,6,0,1,4,20,149906084,77705547,125634398,214156864,42000319,11310419,30511319,-2181200,31801709,20800809,11300309,0,0,0,41601319,0,11001009,0,0,3111080,1091020,20901119,3061171,41910709,11701109,31000209,20710419,4150191,10000419,3100171,0,21211509,31000109,4150190,31112019,41210309,40701209,0,41600319,3171200
4,123,673.998259328073,0,0,189626.655328529,189627.702344581,1,15,6,1,0,32,10,43611628,72993229,95924187,53523650,31710419,11901209,0,0,0,0,0,0,0,11711609,31110409,0,2170180,4140161,0,3150151,20710719,0,0,10100519,3020021,10901109,0,30700719,41201819,0,0,0,1200050,0,3191050,-3141171,4091070,41900309,0,0
4,124,654.759065364487,0,0,189629.537606312,189630.584648541,1,15,6,1,0,17,10,83322068,36382090,68934069,108216247,0,0,30411109,0,31510809,0,20300019,0,1100131,0,0,0,0,1141110,0,31210909,-4030071,0,0,41411919,2120200,0,0,0,0,21401919,4000031,0,40401219,20310819,31310519,0,1040180,1081061,3071130,11001319
4,125,1311.84854492312,1,0,189632.349289569,189633.396306776,1,15,6,1,1,31,0,3161161,1051141,8100200,9362481,1141071,0,2020090,0,0,0,0,0,0,0,0,0,0,0,0,1051141,0,0,4100080,0,0,0,4000120,0,0,0,0,0,3171101,0,-2180190,0,0,0,4011190,0
4,126,586.219845950836,1,0,189635.760962586,189636.808005201,1,15,6,1,1,22,20,153207395,87372948,168258775,119976227,2031121,31701309,20611309,11410709,11800609,4040191,10300819,20000319,41311009,21500119,1060021,0,41201119,0,1180050,1131130,0,21300509,41001919,31410109,41601909,-1031201,21300709,21901009,10011919,0,0,31711209,31810109,2141181,0,11201119,0,42011609,0,1101000
4,127,1127.8930248518,1,0,189638.443236982,189639.490259963,1,15,6,0,1,11,0,4100171,6223362,10401293,1130021,0,0,0,0,4100171,0,0,0,0,1041020,-4141151,0,0,0,0,0,1041191,0,0,4190091,3200101,0,0,3011101,0,0,0,0,0,0,0,0,0,1130021,0,0
4,128,626.984516973607,0,0,189641.737259385,189642.784278517,1,15,6,1,0,14,0,4131071,7060362,8021221,5120200,4131071,0,0,0,0,0,0,0,0,4010181,0,0,0,-1020170,2030011,0,0,0,4000021,0,0,0,0,0,4021200,0,0,0,0,0,0,3100130,2020070,0,0,0
4,129,1039.9044227961,0,0,189644.584240483,189645.631260769,1,15,6,1,0,33,20,267639002,148586776,77164721,73076537,0,31001709,41200909,21510419,30901919,30010409,31811119,41200909,40001609,20410109,41511819,21711919,0,0,4141091,40400319,20411519,0,11901809,4151091,10610519,40010009,2040051,1180171,0,3080040,4191031,11300709,12001109,0,22001809,0,-2121101,21500619,4151190,0
4,130,760.820814641193,0,0,189647.878267505,189648.925288177,1,15,6,0,0,18,20,150575803,183496396,108743886,61287501,41301019,11300319,20701409,10000319,0,12011619,20900609,4160100,30200409,40701119,30310219,11110709,4030051,31901609,0,40700809,21700809,-3041071,11810019,0,11000819,31701209,10510619,0,40710219,3011001,0,1061180,3191051,4121021,30301419,0,0,0,2201021,20411809
4,131,1014.995908743,1,0,189650.784071023,189651.831087075,1,15,6,0,1,8,5,8182142,28332921,66731769,71501438,0,0,0,0,0,0,0,-4151051,4031091,0,1171020,2080160,1110071,21910619,0,2061051,0,0,0,0,0,40610719,0,0,20910819,1180121,4030110,41401119,30100319,0,0,0,0,0,0,0
4,132,724.47742021177,0,0,189653.960452436,189655.007474648,1,15,6,0,0,9,20,107770196,141626346,93113757,156715395,2111131,10701409,20901119,10611119,40411409,10911609,10011319,0,-2111081,0,2010111,12011419,41711709,31101319,2070070,10710609,42011109,0,3001060,40201519,4140200,20800319,21910519,3060140,0,0,0,10201609,41001109,21500009,20700909,30501109,0,30700519,2110131,0
4,133,638.295054959599,1,0,189656.748613809,189657.79563602,1,15,6,0,1,21,10,49373569,58315668,58993100,93323497,21411609,2021040,0,0,4130001,0,21810919,0,0,0,0,30901409,3151120,0,3051120,21212019,0,0,2140031,0,-3200141,0,0,21210409,30301509,0,2141010,20800019,0,30001519,0,0,0,1010131,30211409,11300419
4,134,673.290316102793,1,0,189659.536769407,189660.583790848,1,15,6,0,1,27,0,10302262,3131131,2210182,5111121,0,4071140,0,3170091,0,3061031,0,0,0,0,3131131,0,0,0,0,0,0,0,0,0,0,0,0,0,0,1090031,-1120151,0,0,0,0,0,1090071,4021050,0,0
4,135,1207.49871703447,0,0,189662.454336561,189663.501360313,1,15,6,0,0,13,5,37192470,75013609,45722200,8150221,0,2100001,0,0,3041030,0,30900419,1151020,0,0,0,0,-4100181,0,30702009,40211419,0,0,0,0,1011141,11310219,0,0,31310709,0,2090131,0,0,0,4000140,4150081,0,0,0,0
4,136,769.544030015823,1,0,189665.854242862,189666.901287786,1,15,6,1,1,26,10,103874727,110043798,82684409,46642441,0,0,20400119,1171171,40900919,0,30301109,11101409,0,0,42001409,0,0,31510509,31411709,1060000,0,4060171,4140200,0,41502009,0,1111070,0,0,-4031111,31900019,0,0,41411319,0,3191101,0,0,0,2040021
4,137,1438.7771030888,0,0,189668.807102467,189669.854128528,1,15,6,1,0,7,20,142347855,154736564,97573437,133004236,30011009,2031010,21111409,11811209,21610509,30211309,-4050181,21511219,0,4020070,30300519,10101019,21100319,10711619,10801119,21700209,4091171,41910519,0,31810809,41801509,3051000,20910119,0,0,0,0,31310019,21611019,1091100,3051040,0,4030030,0,40010819,31900209
4,138,928.536371589871,0,0,189672.48935107,189673.536372897,1,15,6,1,0,2,5,26741089,14153120,29132191,34714198,0,-1100060,0,0,1200050,0,0,21300819,3140160,0,0,0,2080091,0,0,11012019,1061010,0,0,0,0,0,21911009,4040001,3181181,0,0,0,0,0,3001060,0,0,21001819,10711319,0
4,139,556.758398626698,1,0,189675.653971156,189676.701055731,1,15,6,0,1,15,0,6143241,4211180,0,9323242,0,3021201,1111040,0,0,0,0,2011000,0,0,0,0,0,0,-1150020,3061160,0,0,0,0,0,0,0,0,0,0,0,3111020,0,0,2071161,0,0,4141061,0,0
4,140,949.539071734762,0,0,189678.289186769,189679.336216295,1,15,6,1,0,29,5,61921728,15271762,71812528,48101780,40811009,0,0,0,0,0,0,21110719,0,0,4040180,2011010,1020200,0,1120120,4000071,3080181,0,0,0,30211419,0,0,0,0,0,41601109,4050170,-3150101,0,0,40901509,0,0,0,0
4,141,979.405882913852,0,0,189681.324398763,189682.371459856,1,15,6,1,0,36,0,7311191,6240141,0,5261340,0,0,4160021,0,0,0,0,0,3151170,3100050,0,0,0,0,0,1100071,2040020,0,0,0,0,0,0,0,0,0,0,0,0,0,0,0,0,2030160,2061030,-1170150
4,142,721.745352289872,0,0,189684.441995483,189685.488991517,1,15,6,0,0,28,10,62763089,60811118,88616711,136153707,0,0,0,40211219,21511809,0,0,1040061,0,0,0,30510509,0,30300609,0,0,0,0,31310219,4081121,0,4011090,0,40912019,2091070,2091141,4120051,-1021020,41500119,0,1010121,20410519,0,40910509,0,31301419
4,143,1176.76420381758,1,0,189687.288961182,189688.335974154,1,15,6,0,1,5,10,63954648,45372858,104512767,43704859,11600409,3201150,2091090,0,-1120101,21701209,4130180,0,20110509,0,0,0,4070130,31201219,0,0,0,10101509,41510019,0,0,0,1091020,30610109,31301619,0,0,30910609,0,0,1191140,1091201,0,0,0,10511909
4,144,620.013258914696,1,0,189690.653548084,189691.700576455,1,15,6,0,1,20,5,1180061,33113239,7232482,105034418,1180061,0,0,0,0,0,0,0,0,1201201,0,0,0,21511619,0,0,0,10400419,0,-4070171,0,0,1010131,1091100,0,0,1061080,40700709,1161180,1050201,0,0,40210309,0,21912019,0
4,145,639.760601363378,0,0,189698.323931421,189699.370968646,1,15,7,1,0,10,5,10302019,8303431,92383817,35521370,0,0,0,10302019,0,0,0,0,0,-2001190,0,3081050,0,2161061,0,0,1060130,0,4160050,41910419,10811519,0,0,31411619,0,2060070,2030140,0,0,0,0,0,0,31500319,4021051,0
4,146,627.396040246822,0,0,189701.159148111,189702.206168013,1,15,7,0,0,27,5,4202261,74001957,53143060,14403980,2051110,0,0,0,0,0,0,2151151,0,0,21800719,41900019,0,0,0,10301219,0,0,4090150,4091171,0,0,0,0,41710609,1061000,-2190130,2121151,0,0,0,0,0,10111809,0,2171020
4,147,641.136066871695,0,0,189703.94729832,189704.994321301,1,15,7,0,0,28,20,140005988,121187526,117256616,200447355,41200009,41701119,30210609,10601409,1040061,3011081,0,11111519,1130181,12001309,41101819,0,31102009,1020180,4140081,21310619,10511509,0,41600009,0,41501619,11001319,1031160,20101319,2021190,0,0,-4201071,11210509,0,31500619,40010919,41311509,41901309,0,30311419
4,148,701.131847716169,0,1,189706.794278648,189707.841302399,1,15,7,0,1,8,20,160156125,212807244,131964317,102336695,31211719,0,41910309,12010909,41711719,2120150,30110209,-1081110,0,41301519,0,41600209,0,31310109,21702019,41711519,31011809,4170060,1180180,2070201,4051000,40410319,30600019,0,31411309,1040080,21201209,1111110,10110019,30101409,0,20712019,0,0,30000219,10301919
4,149,1115.93806219753,0,0,189709.676556046,189710.723570943,1,15,7,1,0,36,0,7311191,6240141,0,5261340,0,0,4160021,0,0,0,0,0,3151170,3100050,0,0,0,0,0,1100071,2040020,0,0,0,0,0,0,0,0,0,0,0,0,0,0,0,0,2030160,2061030,-1170150
4,150,729.979282303248,0,0,189712.923525826,189713.970541108,1,15,7,0,0,18,10,121453276,110106657,1061061,38631479,41510609,20600309,0,0,4030200,10911719,41300419,3100020,0,11511609,10811719,0,41010319,4111130,41511809,0,0,-1150071,0,1061061,0,0,0,0,0,0,0,21210209,0,0,1030160,3040011,11200919,0,0,2150180
4,151,677.557223389158,0,0,189715.899911935,189716.946935302,1,15,7,1,0,2,5,26741089,14153120,29132191,34714198,0,-1100060,0,0,1200050,0,0,21300819,3140160,0,0,0,2080091,0,0,11012019,1061010,0,0,0,0,0,21911009,4040001,3181181,0,0,0,0,0,3001060,0,0,21001819,10711319,0
4,152,875.397900381358,0,0,189718.793954896,189719.840969408,1,15,7,1,0,29,5,61921728,15271762,71812528,48101780,40811009,0,0,0,0,0,0,21110719,0,0,4040180,2011010,1020200,0,1120120,4000071,3080181,0,0,0,30211419,0,0,0,0,0,41601109,4050170,-3150101,0,0,40901509,0,0,0,0
4,153,872.893344378099,1,0,189721.770338311,189722.817358212,1,15,7,1,1,7,20,142347855,154736564,97573437,133004236,30011009,2031010,21111409,11811209,21610509,30211309,-4050181,21511219,0,4020070,30300519,10101019,21100319,10711619,10801119,21700209,4091171,41910519,0,31810809,41801509,3051000,20910119,0,0,0,0,31310019,21611019,1091100,3051040,0,4030030,0,40010819,31900209
4,154,612.576198123861,0,0,189724.746720956,189725.793749711,1,15,7,1,0,17,10,83322068,36382090,68934069,108216247,0,0,30411109,0,31510809,0,20300019,0,1100131,0,0,0,0,1141110,0,31210909,-4030071,0,0,41411919,2120200,0,0,0,0,21401919,4000031,0,40401219,20310819,31310519,0,1040180,1081061,3071130,11001319
4,155,539.14643463213,0,0,189727.617230867,189728.664257313,1,15,7,0,0,15,10,92422937,34683752,48623189,112722656,40711119,0,0,0,0,20210509,31501309,0,0,2181141,21300019,0,4001050,0,-3050190,1100161,3051191,0,21200009,0,2181050,0,3011041,21111009,1120080,0,0,0,0,0,0,20210519,0,41611209,30800919,20100009
4,156,1203.6287044757,1,0,189730.346363453,189731.393644771,1,15,7,1,1,32,10,43611628,72993229,95924187,53523650,31710419,11901209,0,0,0,0,0,0,0,11711609,31110409,0,2170180,4140161,0,3150151,20710719,0,0,10100519,3020021,10901109,0,30700719,41201819,0,0,0,1200050,0,3191050,-3141171,4091070,41900309,0,0
4,157,1893.40675910353,1,0,189733.781770111,189734.828793478,1,15,7,1,1,31,0,3161161,1051141,8100200,9362481,1141071,0,2020090,0,0,0,0,0,0,0,0,0,0,0,0,1051141,0,0,4100080,0,0,0,4000120,0,0,0,0,0,3171101,0,-2180190,0,0,0,4011190,0
4,158,683.76394896768,1,0,189737.840486667,189738.887506184,1,15,7,0,1,9,20,61623381,180029932,152377915,146185588,0,0,0,21500609,4001041,0,32000409,2021201,-2100121,31401019,32011419,11311119,31901219,21701409,0,20601619,20300209,10801919,10602019,30611209,31111819,31500009,21210209,3190051,4041180,0,20111419,0,41411419,4170131,20301109,4040031,0,31611519,40600319,4051060
4,159,1028.81100276136,1,0,189740.593342115,189741.640418991,1,15,7,1,1,26,10,103874727,110043798,82684409,46642441,0,0,20400119,1171171,40900919,0,30301109,11101409,0,0,42001409,0,0,31510509,31411709,1060000,0,4060171,4140200,0,41502009,0,1111070,0,0,-4031111,31900019,0,0,41411319,0,3191101,0,0,0,2040021
4,160,1105.48675706377,0,0,189743.769744316,189744.816753054,1,15,7,0,0,5,5,33153580,48310821,27863540,66472538,0,0,3061150,0,-4150000,21911409,0,0,4031021,40010619,0,4140011,0,4160191,0,0,0,0,0,0,3071080,0,3181141,0,21611319,0,0,0,0,0,3051010,31810809,0,0,0,31610719
4,161,638.32739170175,1,0,189747.016698697,189748.063713209,1,15,7,1,1,22,20,153207395,87372948,168258775,119976227,2031121,31701309,20611309,11410709,11800609,4040191,10300819,20000319,41311009,21500119,1060021,0,41201119,0,1180050,1131130,0,21300509,41001919,31410109,41601909,-1031201,21300709,21901009,10011919,0,0,31711209,31810109,2141181,0,11201119,0,42011609,0,1101000
4,162,565.363815927412,1,0,189749.910733958,189750.957762329,1,15,7,1,1,14,0,4131071,7060362,8021221,5120200,4131071,0,0,0,0,0,0,0,0,4010181,0,0,0,-1020170,2030011,0,0,0,4000021,0,0,0,0,0,4021200,0,0,0,0,0,0,3100130,2020070,0,0,0
4,163,595.18558671698,1,0,189752.54595573,189753.592974862,1,15,7,0,1,21,0,8231231,3001040,14582352,0,3080051,0,2030150,0,0,0,0,3121030,0,0,0,0,0,3001040,0,0,0,0,4180071,0,-3111111,0,3140050,0,0,4151120,0,0,0,0,0,0,0,0,0,0
4,164,1484.26332033705,0,0,189755.251762789,189756.298786926,1,15,7,0,0,4,0,7413363,0,3122130,6322352,0,3061161,0,-1131070,0,0,0,2091021,1130111,0,0,0,0,0,0,0,0,0,0,0,0,0,0,0,2101040,1021090,0,0,0,3171201,0,3151151,0,0,0,0
4,165,1259.74022923037,0,0,189758.969309233,189760.016327595,1,15,7,0,0,11,0,3020181,7262271,0,14492512,0,0,3020181,0,0,0,0,0,0,2131111,-4010120,1121040,0,0,0,0,0,0,0,0,0,0,0,0,0,0,0,3061100,4120201,0,0,3180190,0,0,4131021,0
4,166,1428.5598542192,1,0,189762.404501825,189763.451525961,1,15,7,0,1,13,10,114094527,63263460,83554338,44123937,30310309,40012009,40711009,0,0,3061200,0,0,0,41011519,4160151,1080120,-4140161,0,1061190,11810319,0,0,31501509,0,40901509,0,4100140,0,3030110,4021070,0,0,0,0,21511109,0,0,11511609,11101219,0
4,167,1017.1416811645,1,0,189765.886757049,189766.93378465,1,15,7,1,1,33,20,267639002,148586776,77164721,73076537,0,31001709,41200909,21510419,30901919,30010409,31811119,41200909,40001609,20410109,41511819,21711919,0,0,4141091,40400319,20411519,0,11901809,4151091,10610519,40010009,2040051,1180171,0,3080040,4191031,11300709,12001109,0,22001809,0,-2121101,21500619,4151190,0
4,168,1024.03633194626,0,0,189769.133725289,189770.180751351,1,15,7,0,0,20,5,51361941,39163250,2140111,74412137,3150110,0,3181101,0,0,0,4130111,40900619,0,4051021,0,30001109,0,0,0,2031040,3080080,0,1130101,-1010010,0,0,0,0,0,0,0,0,0,32000009,0,31500719,0,10911409,0,0
4,169,677.176497003529,0,0,189781.321621655,189782.368650026,1,15,8,1,0,26,10,103874727,110043798,82684409,46642441,0,0,20400119,1171171,40900919,0,30301109,11101409,0,0,42001409,0,0,31510509,31411709,1060000,0,4060171,4140200,0,41502009,0,1111070,0,0,-4031111,31900019,0,0,41411319,0,3191101,0,0,0,2040021
4,170,697.169829509221,0,0,189784.074493271,189785.121513943,1,15,8,0,0,13,0,6160210,2100061,3130132,6240260,0,0,0,0,0,4040170,0,0,2120040,0,0,0,-2100061,0,0,0,0,0,1120071,0,0,2010061,0,0,0,0,0,2180130,0,0,0,0,0,3060020,0,1000110
4,171,616.024678427493,1,0,189787.015577691,189788.062609141,1,15,8,1,1,22,20,153207395,87372948,168258775,119976227,2031121,31701309,20611309,11410709,11800609,4040191,10300819,20000319,41311009,21500119,1060021,0,41201119,0,1180050,1131130,0,21300509,41001919,31410109,41601909,-1031201,21300709,21901009,10011919,0,0,31711209,31810109,2141181,0,11201119,0,42011609,0,1101000
4,172,1090.03211432719,0,0,189789.803741373,189790.850764739,1,15,8,1,0,36,0,7311191,6240141,0,5261340,0,0,4160021,0,0,0,0,0,3151170,3100050,0,0,0,0,0,1100071,2040020,0,0,0,0,0,0,0,0,0,0,0,0,0,0,0,0,2030160,2061030,-1170150
4,173,595.243715826655,0,0,189792.968357609,189794.015383286,1,15,8,0,0,27,10,70405378,41571859,42641019,109213898,0,0,21701709,31111419,2041060,2180180,0,11200909,2170101,0,0,30210719,0,10210009,1151131,0,0,0,41511009,0,0,0,0,0,0,0,-1130010,40300519,0,1041190,1060061,21110209,4191181,11310119,0,30200619
4,174,1214.07769984216,1,0,189795.80357353,189796.850596127,1,15,8,0,1,18,20,81027839,147531406,107473517,193251474,20301609,3121201,3041001,0,0,21311719,21010719,2031171,10210419,0,21900419,40610019,21110119,30010019,31600809,1190020,0,-1110001,0,0,0,41600609,32010519,20810609,2150171,10901609,0,12011909,40602009,2091091,41501609,21901119,11811709,41701219,20600609,1030200
4,175,1602.51293366309,1,0,189799.179952557,189800.226973613,1,15,8,1,1,31,0,3161161,1051141,8100200,9362481,1141071,0,2020090,0,0,0,0,0,0,0,0,0,0,0,0,1051141,0,0,4100080,0,0,0,4000120,0,0,0,0,0,3171101,0,-2180190,0,0,0,4011190,0
4,176,643.217935750727,0,0,189802.850438293,189803.897466278,1,15,8,0,0,20,20,127927454,162286046,108655597,131686507,20001719,0,31011319,31001419,0,10400309,3101070,20401209,12010409,4130051,40501109,2190161,10501319,20000109,3141160,31110309,10700819,40011009,4041111,-2081130,20110019,30112019,0,0,0,20510209,31801109,0,2041101,4121170,21910809,41601609,0,40611209,21400609,0
4,177,818.019854079466,1,0,189805.544485949,189806.591504696,1,15,8,1,1,7,20,142347855,154736564,97573437,133004236,30011009,2031010,21111409,11811209,21610509,30211309,-4050181,21511219,0,4020070,30300519,10101019,21100319,10711619,10801119,21700209,4091171,41910519,0,31810809,41801509,3051000,20910119,0,0,0,0,31310019,21611019,1091100,3051040,0,4030030,0,40010819,31900209
4,178,633.295182022266,1,0,189808.509104957,189809.556131788,1,15,8,0,1,11,5,80913879,5402141,55612208,21220360,0,40300019,0,2180000,3151011,31201709,3081060,0,1000080,0,-4201091,0,0,0,1201050,0,0,0,0,0,0,0,0,21910919,0,31701219,2000070,0,0,1120151,0,0,20100209,0,0,0
4,179,868.698039819719,1,0,189811.273732896,189812.320764347,1,15,8,1,1,32,10,43611628,72993229,95924187,53523650,31710419,11901209,0,0,0,0,0,0,0,11711609,31110409,0,2170180,4140161,0,3150151,20710719,0,0,10100519,3020021,10901109,0,30700719,41201819,0,0,0,1200050,0,3191050,-3141171,4091070,41900309,0,0
4,180,494.068275991594,1,0,189814.191297741,189815.238324957,1,15,8,0,1,15,5,37732050,5433362,127646116,7331342,0,3011200,0,0,0,0,0,31700809,3020041,0,2101131,2171110,0,0,-1161121,0,0,0,0,0,10801219,4141050,0,40701219,40100709,31901919,0,0,3171151,0,0,0,0,0,0,4160191
4,181,450.988834694726,1,0,189816.932400331,189817.979421002,1,15,8,0,1,8,0,7223231,2090020,8392473,0,0,0,3081070,0,0,1101061,0,-3041100,0,0,1040010,0,0,0,0,0,1050010,0,0,0,0,0,1201151,4001131,0,0,3190191,0,0,0,0,0,0,0,0,0
4,182,585.285930661485,1,0,189819.544093289,189820.59112089,1,15,8,0,1,28,10,68076279,93213847,105836357,37333040,3121030,40901119,1191020,0,21811909,1051201,0,0,0,21401419,41510919,0,0,30301509,0,0,0,0,0,41210719,0,20111609,1031130,3181180,40301719,0,0,-1041111,0,0,0,2031001,20110719,0,2140000,12010209
4,183,1115.24436253239,1,0,189822.238133631,189823.285157383,1,15,8,1,1,10,5,10302019,8303431,92383817,35521370,0,0,0,10302019,0,0,0,0,0,-2001190,0,3081050,0,2161061,0,0,1060130,0,4160050,41910419,10811519,0,0,31411619,0,2060070,2030140,0,0,0,0,0,0,31500319,4021051,0
4,184,1097.1916182898,0,0,189825.485103026,189826.532132937,1,15,8,1,0,33,20,267639002,148586776,77164721,73076537,0,31001709,41200909,21510419,30901919,30010409,31811119,41200909,40001609,20410109,41511819,21711919,0,0,4141091,40400319,20411519,0,11901809,4151091,10610519,40010009,2040051,1180171,0,3080040,4191031,11300709,12001109,0,22001809,0,-2121101,21500619,4151190,0
4,185,571.62174131372,0,0,189828.7556047,189829.802676956,1,15,8,1,0,14,0,4131071,7060362,8021221,5120200,4131071,0,0,0,0,0,0,0,0,4010181,0,0,0,-1020170,2030011,0,0,0,4000021,0,0,0,0,0,4021200,0,0,0,0,0,0,3100130,2020070,0,0,0
4,186,533.677679224638,1,0,189831.49670421,189832.543727191,1,15,8,1,1,17,10,83322068,36382090,68934069,108216247,0,0,30411109,0,31510809,0,20300019,0,1100131,0,0,0,0,1141110,0,31210909,-4030071,0,0,41411919,2120200,0,0,0,0,21401919,4000031,0,40401219,20310819,31310519,0,1040180,1081061,3071130,11001319
4,187,460.646350315074,0,0,189834.143686924,189835.190707981,1,15,8,0,0,21,10,107913428,79273637,42543489,32782458,0,0,0,0,4081181,21610419,40910209,0,41311619,0,0,0,31410409,3010010,11910909,0,1141100,31801209,11901719,21510419,-3130080,0,0,0,2000090,4001181,0,0,1020200,0,0,10311209,20401009,0,0,1050040
4,188,1286.95157973561,0,0,189836.661260392,189837.708286068,1,15,8,1,0,2,5,26741089,14153120,29132191,34714198,0,-1100060,0,0,1200050,0,0,21300819,3140160,0,0,0,2080091,0,0,11012019,1061010,0,0,0,0,0,21911009,4040001,3181181,0,0,0,0,0,3001060,0,0,21001819,10711319,0
4,189,502.486602315912,0,0,189840.084703206,189841.131724647,1,15,8,0,0,9,5,58453850,48642420,9432282,30912828,0,0,0,10711919,0,40310519,2190041,1140191,-4101180,0,4011130,0,3131181,41500109,0,0,0,0,0,3091121,0,0,3181130,0,0,3160031,0,0,0,10000809,0,20912019,0,0,0,0
4,190,1419.72423024708,1,0,189842.743448787,189843.790474464,1,15,8,0,1,5,0,16703491,0,3291221,4010011,0,0,4200060,3060080,-3201131,2041150,0,4201070,0,0,0,0,0,0,0,0,0,0,0,0,0,0,2181090,1110131,0,0,0,0,0,0,0,0,4010011,0,0,0
4,191,636.270160321146,1,0,189846.272762795,189847.319789626,1,15,8,1,1,29,5,61921728,15271762,71812528,48101780,40811009,0,0,0,0,0,0,21110719,0,0,4040180,2011010,1020200,0,1120120,4000071,3080181,0,0,0,30211419,0,0,0,0,0,41601109,4050170,-3150101,0,0,40901509,0,0,0,0
4,192,1117.03481600853,0,0,189849.107977561,189850.155001697,1,15,8,0,0,4,20,199788986,68354117,135978904,90232045,41011319,31201019,40001209,-2170010,1111181,30601409,21301219,2190101,30201519,0,32001419,3111010,20110019,0,0,0,12000509,1131160,10811919,12011819,20701809,0,1130010,0,40011119,30601109,20711119,0,20000719,4070010,10810109,3041050,10500019,20300119,0,21510019
4,193,798.316012253053,1,0,189865.801631017,189866.848653229,1,15,9,1,1,26,10,103874727,110043798,82684409,46642441,0,0,20400119,1171171,40900919,0,30301109,11101409,0,0,42001409,0,0,31510509,31411709,1060000,0,4060171,4140200,0,41502009,0,1111070,0,0,-4031111,31900019,0,0,41411319,0,3191101,0,0,0,2040021
4,194,915.958927071188,1,0,189868.730965273,189869.77798325,1,15,9,0,1,4,20,66882290,137962923,129265076,138166676,0,40000019,2160000,-3070141,0,0,0,20512009,1140121,10500319,20010009,11510009,10910019,40710319,10101319,2060050,1050160,31110719,4140111,11800709,40411709,0,0,0,21500609,10810419,40601519,11311019,40510519,12011119,2051171,30400009,10700409,30111309,1071121,0
4,195,880.896297778236,1,0,189871.824993143,189872.87200958,1,15,9,1,1,33,20,267639002,148586776,77164721,73076537,0,31001709,41200909,21510419,30901919,30010409,31811119,41200909,40001609,20410109,41511819,21711919,0,0,4141091,40400319,20411519,0,11901809,4151091,10610519,40010009,2040051,1180171,0,3080040,4191031,11300709,12001109,0,22001809,0,-2121101,21500619,4151190,0
4,196,547.484689072007,1,0,189874.907258915,189875.954282667,1,15,9,1,1,14,0,4131071,7060362,8021221,5120200,4131071,0,0,0,0,0,0,0,0,4010181,0,0,0,-1020170,2030011,0,0,0,4000021,0,0,0,0,0,4021200,0,0,0,0,0,0,3100130,2020070,0,0,0
4,197,688.506283040624,1,0,189877.601304262,189878.648326859,1,15,9,1,1,22,20,153207395,87372948,168258775,119976227,2031121,31701309,20611309,11410709,11800609,4040191,10300819,20000319,41311009,21500119,1060021,0,41201119,0,1180050,1131130,0,21300509,41001919,31410109,41601909,-1031201,21300709,21901009,10011919,0,0,31711209,31810109,2141181,0,11201119,0,42011609,0,1101000
4,198,848.211187374545,1,0,189880.389456396,189881.436485152,1,15,9,1,1,7,20,142347855,154736564,97573437,133004236,30011009,2031010,21111409,11811209,21610509,30211309,-4050181,21511219,0,4020070,30300519,10101019,21100319,10711619,10801119,21700209,4091171,41910519,0,31810809,41801509,3051000,20910119,0,0,0,0,31310019,21611019,1091100,3051040,0,4030030,0,40010819,31900209
4,199,967.623767763143,0,0,189883.30702894,189884.354057696,1,15,9,1,0,2,5,26741089,14153120,29132191,34714198,0,-1100060,0,0,1200050,0,0,21300819,3140160,0,0,0,2080091,0,0,11012019,1061010,0,0,0,0,0,21911009,4040001,3181181,0,0,0,0,0,3001060,0,0,21001819,10711319,0
4,200,1038.1147392618,0,0,189886.471648641,189887.518672007,1,15,9,1,0,36,0,7311191,6240141,0,5261340,0,0,4160021,0,0,0,0,0,3151170,3100050,0,0,0,0,0,1100071,2040020,0,0,0,0,0,0,0,0,0,0,0,0,0,0,0,0,2030160,2061030,-1170150
4,201,788.230035075685,1,0,189889.577440532,189890.624471598,1,15,9,0,1,27,5,94975118,5362371,61821899,4110020,2061081,41110809,20701209,0,0,0,0,0,31102019,0,0,1161191,0,4201180,0,0,0,0,10200809,0,40200719,2200131,0,0,4140070,2010070,-3070100,0,0,0,0,0,4110020,0,0,0
4,202,1304.6505448583,0,0,189892.495018081,189893.542051456,1,15,9,0,0,18,5,73494440,13302449,90382938,1031021,32011619,0,3091201,0,0,0,31110419,4080131,3201070,0,0,10000109,0,0,0,0,2191190,-1111150,0,0,41710009,3150040,4111080,0,41411809,0,0,0,0,0,0,0,0,1031021,0,0
4,203,611.860555713065,1,0,189895.953734867,189897.000751304,1,15,9,0,1,28,10,112942988,3080151,105683988,104843739,31900709,42011809,21900019,0,11800409,0,1150041,4180001,0,0,0,0,0,3080151,0,0,0,0,0,0,0,30510709,30000619,41011519,3001000,0,1160141,-4160060,30000809,4050191,0,4021041,0,0,21010119,41601519
4,204,771.510795573704,0,0,189898.6830769,189899.730093337,1,15,9,1,0,29,5,61921728,15271762,71812528,48101780,40811009,0,0,0,0,0,0,21110719,0,0,4040180,2011010,1020200,0,1120120,4000071,3080181,0,0,0,30211419,0,0,0,0,0,41601109,4050170,-3150101,0,0,40901509,0,0,0,0
4,205,810.156641498907,1,0,189901.506524179,189902.553545235,1,15,9,1,1,32,10,43611628,72993229,95924187,53523650,31710419,11901209,0,0,0,0,0,0,0,11711609,31110409,0,2170180,4140161,0,3150151,20710719,0,0,10100519,3020021,10901109,0,30700719,41201819,0,0,0,1200050,0,3191050,-3141171,4091070,41900309,0,0
4,206,1076.0915230203,1,0,189904.459366461,189905.506408691,1,15,9,1,1,17,10,83322068,36382090,68934069,108216247,0,0,30411109,0,31510809,0,20300019,0,1100131,0,0,0,0,1141110,0,31210909,-4030071,0,0,41411919,2120200,0,0,0,0,21401919,4000031,0,40401219,20310819,31310519,0,1040180,1081061,3071130,11001319
4,207,2063.53756116005,0,0,189907.776933462,189908.823963757,1,15,9,0,0,13,20,183854983,90274218,158315267,123027976,0,21810119,0,20010009,20411719,30911709,40010609,30000709,20700109,21501609,20810109,20011709,-2020081,4060061,0,20710619,1160030,0,4080100,0,40201709,0,30211419,40501809,40200109,3120121,0,0,41000009,20211209,4011180,2081070,22000509,2201071,21511519,10011409
4,208,608.563750021858,0,0,189912.070933537,189913.117955364,1,15,9,1,0,10,5,10302019,8303431,92383817,35521370,0,0,0,10302019,0,0,0,0,0,-2001190,0,3081050,0,2161061,0,0,1060130,0,4160050,41910419,10811519,0,0,31411619,0,2060070,2030140,0,0,0,0,0,0,31500319,4021051,0
4,209,1576.35368144838,0,0,189914.812036512,189915.859061033,1,15,9,0,0,5,0,1041121,3061111,9281431,7140482,0,0,0,0,-1041121,0,0,0,0,0,3061111,0,0,0,0,0,0,0,3180140,0,0,0,0,3000191,3101100,0,0,0,0,0,0,3080180,0,0,2000171,2060131
4,210,520.476212986978,0,0,189918.506055681,189919.553071734,1,15,9,0,0,15,0,5261302,2120041,4231281,7351151,0,0,0,0,0,0,1171050,2050161,2040091,0,0,0,0,0,-2120041,0,0,0,0,2171170,0,0,2060111,0,0,0,0,0,0,0,0,0,4161121,0,3190030,0
4,211,934.686507913284,0,0,189921.117780206,189922.164768156,1,15,9,0,0,21,10,17882489,84003709,146424367,24671559,0,3060180,0,0,0,0,0,11801309,3021000,0,0,12001819,3051081,4100001,41200409,0,2040180,21610219,30910009,0,-2140201,30201119,21701209,0,20100809,40210009,1161011,0,0,0,0,0,0,21511509,0,3160050
4,212,474.679717211984,1,0,189924.22360405,189925.270604703,1,15,9,0,1,9,20,130247347,107716747,128778215,231266895,0,11211619,0,40712009,42010809,1171181,30900609,2091080,-2150040,20411409,0,4080201,0,0,40711809,31211609,11301719,0,2131061,0,20901009,0,21811909,31301509,30110309,11811209,10711209,2181190,31111119,40001109,30111309,41210419,4010070,40411609,1130061,41100009
4,213,1515.13179996982,0,0,189926.882288808,189927.929309864,1,15,9,1,0,31,0,3161161,1051141,8100200,9362481,1141071,0,2020090,0,0,0,0,0,0,0,0,0,0,0,0,1051141,0,0,4100080,0,0,0,4000120,0,0,0,0,0,3171101,0,-2180190,0,0,0,4011190,0
4,214,656.006723846076,0,0,189930.576306437,189931.623327109,1,15,9,0,0,20,5,8321032,32012338,67124199,8302212,0,2160011,0,0,0,0,2011021,0,4150000,0,0,0,0,21001419,0,0,0,11010919,0,-1041111,2061131,41901519,0,0,0,10110219,12010219,0,0,0,4131071,0,1061021,0,0,3110120
4,215,1837.92906979215,1,0,189933.364521704,189934.411282723,1,15,9,0,1,11,0,1020131,6242262,3010180,8231131,1020131,0,0,0,0,0,0,0,0,0,-4080121,1151020,0,0,1011121,0,0,0,0,0,0,3010180,0,0,0,0,0,1110001,3001110,0,0,0,4120020,0,0,0
4,216,526.594782510074,0,0,189937.305531057,189938.352601388,1,15,9,0,0,8,10,160236095,25291810,67284470,35751968,40410819,0,10810819,20000709,0,41610009,41111519,-3091110,3201110,0,0,0,1190021,0,0,22000609,2101180,0,1131120,0,42011009,20912009,2150141,0,0,1080191,0,0,0,11511019,3030130,0,0,0,0,21210819
4,217,1436.06466814526,0,0,189945.011194525,189946.058214042,1,15,10,0,0,5,5,46031301,10400809,51011350,42122028,31510919,0,0,0,-4110200,3090071,4170060,3150051,0,0,0,0,0,0,10400809,0,0,0,41600009,3151090,0,0,3190040,2020191,1050020,0,0,11410209,0,30711819,0,0,0,0,0,0
4,218,707.475619390607,0,0,189948.634627638,189949.681651774,1,15,10,0,0,8,20,123995165,198477807,125445745,86095369,20500919,0,11711119,21510819,11500009,40210809,10410319,-4031141,4120030,30910309,40510719,41112009,11210419,31911819,3140021,4120141,4151161,31411209,0,2001090,0,0,11100809,21111419,40111409,10810209,40310809,11401209,0,0,1131121,3051021,0,30000609,40511409,0
4,219,762.802208715584,0,0,189951.599252805,189952.646277711,1,15,10,0,0,11,0,3312121,8240252,7161201,1111101,2121061,0,1191060,0,0,0,0,0,0,0,-4130091,0,0,0,0,4110161,0,0,0,0,0,0,0,0,4090070,2050020,1021111,1111101,0,0,0,0,0,0,0,0
4,220,762.671321979724,0,0,189954.434466031,189955.481493632,1,15,10,0,0,4,10,45581860,131005188,81744697,88151429,0,2080091,0,-3091150,0,0,0,0,40410619,0,4001131,4171130,41311409,40810709,40710809,0,0,0,0,4180131,0,0,4131110,20600319,20410409,11111419,21311309,0,0,0,41100519,3050081,0,0,41900709,2100120
4,221,934.295002633007,0,0,189957.269677718,189958.316701469,1,15,10,1,0,32,10,43611628,72993229,95924187,53523650,31710419,11901209,0,0,0,0,0,0,0,11711609,31110409,0,2170180,4140161,0,3150151,20710719,0,0,10100519,3020021,10901109,0,30700719,41201819,0,0,0,1200050,0,3191050,-3141171,4091070,41900309,0,0
4,222,856.411625776673,1,0,189960.422530317,189961.469559073,1,15,10,1,1,33,20,267639002,148586776,77164721,73076537,0,31001709,41200909,21510419,30901919,30010409,31811119,41200909,40001609,20410109,41511819,21711919,0,0,4141091,40400319,20411519,0,11901809,4151091,10610519,40010009,2040051,1180171,0,3080040,4191031,11300709,12001109,0,22001809,0,-2121101,21500619,4151190,0
4,223,548.152981267776,0,0,189963.45775001,189964.504772991,1,15,10,0,0,15,5,17913811,68821928,8381191,75123568,0,1151201,2041090,0,3110001,0,0,11611519,0,0,0,0,4130110,0,-3191100,41000209,0,20500509,0,0,0,0,4181021,4200170,0,0,0,3111140,0,30401719,0,0,0,41610709,0,0
4,224,619.764959119493,1,0,189966.187083573,189967.234096546,1,15,10,0,1,13,0,1130061,12581312,3121030,2251221,0,0,0,1130061,0,0,0,0,0,0,0,2151101,-4180131,0,0,4160060,2090020,0,0,0,0,0,0,3121030,0,0,0,1050201,0,0,1201020,0,0,0,0,0
4,225,1070.2485855727,1,0,189968.928186163,189969.9752026,1,15,10,1,1,10,5,10302019,8303431,92383817,35521370,0,0,0,10302019,0,0,0,0,0,-2001190,0,3081050,0,2161061,0,0,1060130,0,4160050,41910419,10811519,0,0,31411619,0,2060070,2030140,0,0,0,0,0,0,31500319,4021051,0
4,226,1009.92481800495,0,0,189972.186906876,189973.233930243,1,15,10,1,0,36,0,7311191,6240141,0,5261340,0,0,4160021,0,0,0,0,0,3151170,3100050,0,0,0,0,0,1100071,2040020,0,0,0,0,0,0,0,0,0,0,0,0,0,0,0,0,2030160,2061030,-1170150
4,227,879.030776966829,0,0,189975.386826727,189976.433848939,1,15,10,1,0,22,20,153207395,87372948,168258775,119976227,2031121,31701309,20611309,11410709,11800609,4040191,10300819,20000319,41311009,21500119,1060021,0,41201119,0,1180050,1131130,0,21300509,41001919,31410109,41601909,-1031201,21300709,21901009,10011919,0,0,31711209,31810109,2141181,0,11201119,0,42011609,0,1101000
4,228,931.429353222484,0,0,189978.457324628,189979.504356849,1,15,10,1,0,26,10,103874727,110043798,82684409,46642441,0,0,20400119,1171171,40900919,0,30301109,11101409,0,0,42001409,0,0,31510509,31411709,1060000,0,4060171,4140200,0,41502009,0,1111070,0,0,-4031111,31900019,0,0,41411319,0,3191101,0,0,0,2040021
4,229,776.440605637617,0,0,189981.457244171,189982.504271002,1,15,10,0,0,28,5,11483333,104824557,66773849,5201350,0,1161081,4161040,0,0,3021011,3140201,0,0,0,41801919,0,0,0,31611119,31411519,0,0,0,0,30701519,30901209,0,0,4010100,0,1161021,-2191150,0,0,0,0,0,3010200,0,0
4,230,489.878360909643,1,0,189984.374809016,189985.421850476,1,15,10,0,1,9,20,110654108,123304517,163867087,209038202,0,0,0,20901819,0,40310419,4010131,41301609,-4130130,4040041,21111919,0,40800309,10110619,40000419,0,4181080,3060130,1170131,40600619,31900409,3201060,2170121,0,31301919,11911109,41611719,31100619,11011519,31401209,21210109,20800209,30312019,41301809,21900709,0
4,231,546.173127077054,0,0,189986.939449351,189987.986467328,1,15,10,0,0,21,20,180205724,85793979,148144985,133373678,4060031,31211019,41700609,21600109,20011319,11400119,30010909,0,20211609,3130191,4080061,32010509,3151181,21710519,10610409,0,0,11101109,30910509,0,-3010110,0,20311419,41100619,10901719,0,41910609,4150041,3020051,20700219,0,21900709,0,1190020,40410919,42001719
4,232,904.776581097394,1,0,189989.715834768,189990.762862369,1,15,10,0,1,18,10,34863613,95614928,73913888,58844488,4010171,3031141,4110071,21511219,0,0,0,0,2201011,41101309,0,0,40601909,10910709,0,0,0,-3001001,30211119,0,11710919,0,0,1091141,30900709,0,0,0,1041110,10200619,31410219,0,0,12001419,4191121,0
4,233,839.606155030197,1,0,189992.703991059,189993.75101635,1,15,10,1,1,7,20,142347855,154736564,97573437,133004236,30011009,2031010,21111409,11811209,21610509,30211309,-4050181,21511219,0,4020070,30300519,10101019,21100319,10711619,10801119,21700209,4091171,41910519,0,31810809,41801509,3051000,20910119,0,0,0,0,31310019,21611019,1091100,3051040,0,4030030,0,40010819,31900209
4,234,971.653539105318,1,0,189995.703906752,189996.750923959,1,15,10,0,1,20,10,64021269,128528237,77852800,64545009,20200209,0,0,0,0,0,40810009,0,3011051,30000419,31311719,21211909,40701709,0,2121111,2090170,0,1091200,0,-3031001,40800809,0,31910909,0,0,2110081,0,2051131,0,1091050,0,0,0,30900819,0,30502009
4,235,686.10489659477,1,0,189998.821466901,189999.868489882,1,15,10,1,1,17,10,83322068,36382090,68934069,108216247,0,0,30411109,0,31510809,0,20300019,0,1100131,0,0,0,0,1141110,0,31210909,-4030071,0,0,41411919,2120200,0,0,0,0,21401919,4000031,0,40401219,20310819,31310519,0,1040180,1081061,3071130,11001319
4,236,1634.26181901013,0,0,190001.68021125,190002.72724655,1,15,10,1,0,31,0,3161161,1051141,8100200,9362481,1141071,0,2020090,0,0,0,0,0,0,0,0,0,0,0,0,1051141,0,0,4100080,0,0,0,4000120,0,0,0,0,0,3171101,0,-2180190,0,0,0,4011190,0
4,237,1711.66976905079,1,0,190005.538942896,190006.585949709,1,15,10,0,1,27,0,6302340,9062242,3221181,1041081,0,2111190,4191150,0,0,0,0,0,0,0,0,2011040,0,4021071,0,0,3030131,0,0,1100081,0,0,0,0,0,0,-2121100,0,0,0,0,0,0,1041081,0,0
4,238,562.399231566815,1,0,190009.374119551,190010.421140608,1,15,10,1,1,14,0,4131071,7060362,8021221,5120200,4131071,0,0,0,0,0,0,0,0,4010181,0,0,0,-1020170,2030011,0,0,0,4000021,0,0,0,0,0,4021200,0,0,0,0,0,0,3100130,2020070,0,0,0
4,239,1045.53563171066,1,0,190012.174038401,190013.221058303,1,15,10,1,1,29,5,61921728,15271762,71812528,48101780,40811009,0,0,0,0,0,0,21110719,0,0,4040180,2011010,1020200,0,1120120,4000071,3080181,0,0,0,30211419,0,0,0,0,0,41601109,4050170,-3150101,0,0,40901509,0,0,0,0
4,240,592.47777130804,1,0,190015.4680558,190016.515096105,1,15,10,1,1,2,5,26741089,14153120,29132191,34714198,0,-1100060,0,0,1200050,0,0,21300819,3140160,0,0,0,2080091,0,0,11012019,1061010,0,0,0,0,0,21911009,4040001,3181181,0,0,0,0,0,3001060,0,0,21001819,10711319,0
4,241,753.380674141226,1,0,190030.408820702,190031.455850998,1,15,11,0,1,11,10,97393628,12855503,147444965,42803218,0,0,41001619,1150071,3130010,0,10310709,41801219,0,1100031,-1051040,0,2131190,3181021,2201170,0,0,3191051,41211609,22011119,0,0,0,21910009,40800809,21511419,0,0,0,0,0,11001609,0,0,0,31801609
4,242,477.210835524602,1,0,190033.338153418,190034.385176015,1,15,11,0,1,8,5,33791020,12761840,33493619,59123259,2160070,0,30510919,0,0,0,0,-1120031,0,0,11700809,0,0,1061031,0,0,0,0,0,30211319,0,0,0,0,2191170,0,1091130,2200000,0,2171181,0,11511609,0,41100409,0,2140060
4,243,970.890931435861,1,0,190035.926316408,190036.973334,1,15,11,0,1,27,10,63175047,70514119,106204428,88274938,0,30211219,0,0,0,2050000,0,20301819,10612009,0,2101091,0,0,2080060,30911619,0,4111130,31310219,1091180,0,41610519,0,0,32000809,30310919,0,-1191001,0,0,41000819,0,0,4151000,41112009,0,2011110
4,244,1074.52434697188,0,0,190039.055644428,190040.102663559,1,15,11,1,0,32,10,43611628,72993229,95924187,53523650,31710419,11901209,0,0,0,0,0,0,0,11711609,31110409,0,2170180,4140161,0,3150151,20710719,0,0,10100519,3020021,10901109,0,30700719,41201819,0,0,0,1200050,0,3191050,-3141171,4091070,41900309,0,0
4,245,560.842834413052,0,0,190042.255582372,190043.302578406,1,15,11,1,0,17,10,83322068,36382090,68934069,108216247,0,0,30411109,0,31510809,0,20300019,0,1100131,0,0,0,0,1141110,0,31210909,-4030071,0,0,41411919,2120200,0,0,0,0,21401919,4000031,0,40401219,20310819,31310519,0,1040180,1081061,3071130,11001319
4,246,578.582990390714,0,0,190045.055495063,190046.102511885,1,15,11,0,0,28,20,217550373,61615208,131526337,85227316,20701209,40800519,0,10411909,40801009,3111000,30211609,41501309,30011809,20411609,2010191,4200070,3181200,11401619,0,0,20410519,0,10110409,2070030,3121161,30600219,0,3001091,20711709,40110909,21800809,-2190151,0,0,30411309,10011619,0,21601809,10001319,11011109
4,247,1229.63204747066,0,0,190047.855403904,190048.902423806,1,15,11,1,0,2,5,26741089,14153120,29132191,34714198,0,-1100060,0,0,1200050,0,0,21300819,3140160,0,0,0,2080091,0,0,11012019,1061010,0,0,0,0,0,21911009,4040001,3181181,0,0,0,0,0,3001060,0,0,21001819,10711319,0
4,248,936.248294543475,1,0,190051.231776771,190052.278802447,1,15,11,1,1,7,20,142347855,154736564,97573437,133004236,30011009,2031010,21111409,11811209,21610509,30211309,-4050181,21511219,0,4020070,30300519,10101019,21100319,10711619,10801119,21700209,4091171,41910519,0,31810809,41801509,3051000,20910119,0,0,0,0,31310019,21611019,1091100,3051040,0,4030030,0,40010819,31900209
4,249,1182.24643287249,0,0,190054.32581311,190055.372834551,1,15,11,0,0,5,5,5112242,17973040,27570760,97152848,0,0,0,0,-3051071,0,2061171,0,0,0,1040070,1031010,0,0,0,4201151,11700809,0,0,21400519,0,4040191,0,0,2130050,0,0,0,3140011,21401909,0,0,0,30700919,41910009,0
4,250,533.394732919987,0,0,190057.631592991,190058.678624441,1,15,11,0,0,9,5,30373660,81122759,42151539,31421899,0,1131061,20901309,3000090,0,0,0,2191140,-3150060,31311409,4030170,4071161,0,0,0,0,0,41710019,0,0,0,1051020,41100519,0,0,0,0,0,0,0,0,30411809,0,1010090,0,0
4,251,588.526532024844,0,0,190060.27857686,190061.325604076,1,15,11,0,0,20,0,2090010,4281110,9323512,3081051,0,2090010,0,0,0,0,0,0,0,0,2100050,0,2181060,0,0,0,0,0,0,-4020160,0,2111081,0,1031090,2161181,0,0,0,0,0,0,0,0,0,0,3081051
4,252,982.503278821241,0,0,190063.078503025,190064.125527546,1,15,11,1,0,36,0,7311191,6240141,0,5261340,0,0,4160021,0,0,0,0,0,3151170,3100050,0,0,0,0,0,1100071,2040020,0,0,0,0,0,0,0,0,0,0,0,0,0,0,0,0,2030160,2061030,-1170150
4,253,644.220759073505,1,0,190066.313709937,190067.360730224,1,15,11,0,1,15,0,5281290,6493490,6251301,0,0,0,2130110,0,0,3151180,0,0,0,0,1041160,0,0,0,-2190130,0,2061170,1201030,4161110,2090191,0,0,0,0,0,0,0,0,0,0,0,0,0,0,0,0
4,254,1343.07580813766,1,0,190069.007754899,190070.054771721,1,15,11,1,1,33,20,267639002,148586776,77164721,73076537,0,31001709,41200909,21510419,30901919,30010409,31811119,41200909,40001609,20410109,41511819,21711919,0,0,4141091,40400319,20411519,0,11901809,4151091,10610519,40010009,2040051,1180171,0,3080040,4191031,11300709,12001109,0,22001809,0,-2121101,21500619,4151190,0
4,255,684.842609596672,0,0,190072.537063902,190073.584086113,1,15,11,1,0,22,20,153207395,87372948,168258775,119976227,2031121,31701309,20611309,11410709,11800609,4040191,10300819,20000319,41311009,21500119,1060021,0,41201119,0,1180050,1131130,0,21300509,41001919,31410109,41601909,-1031201,21300709,21901009,10011919,0,0,31711209,31810109,2141181,0,11201119,0,42011609,0,1101000
4,256,528.20776894805,1,1,190075.348752549,190076.39577476,1,15,11,1,0,10,5,10302019,8303431,92383817,35521370,0,0,0,10302019,0,0,0,0,0,-2001190,0,3081050,0,2161061,0,0,1060130,0,4160050,41910419,10811519,0,0,31411619,0,2060070,2030140,0,0,0,0,0,0,31500319,4021051,0
4,257,741.826840821886,0,0,190077.936909379,190078.983931205,1,15,11,0,0,13,10,89905066,54971369,82483392,55221188,10911609,21711119,11801609,0,0,0,41300609,0,4180120,0,0,0,-3060131,0,40110319,11800919,0,0,3140160,31500309,2160131,3101151,0,1101161,0,1070171,40410309,0,21900719,0,2110150,0,0,31210319,0,0
4,258,1280.5519887188,1,0,190080.772139158,190081.819190241,1,15,11,1,1,31,0,3161161,1051141,8100200,9362481,1141071,0,2020090,0,0,0,0,0,0,0,0,0,0,0,0,1051141,0,0,4100080,0,0,0,4000120,0,0,0,0,0,3171101,0,-2180190,0,0,0,4011190,0
4,259,590.380503999768,1,0,190084.289673745,190085.348466138,1,15,11,1,1,26,10,103874727,110043798,82684409,46642441,0,0,20400119,1171171,40900919,0,30301109,11101409,0,0,42001409,0,0,31510509,31411709,1060000,0,4060171,4140200,0,41502009,0,1111070,0,0,-4031111,31900019,0,0,41411319,0,3191101,0,0,0,2040021
4,260,853.567919170018,0,0,190087.066134614,190088.113092537,1,15,11,1,0,29,5,61921728,15271762,71812528,48101780,40811009,0,0,0,0,0,0,21110719,0,0,4040180,2011010,1020200,0,1120120,4000071,3080181,0,0,0,30211419,0,0,0,0,0,41601109,4050170,-3150101,0,0,40901509,0,0,0,0
4,261,891.988562914776,1,0,190090.124809979,190091.171831035,1,15,11,0,1,4,0,14604633,2010070,3152251,0,2030031,3081161,0,-2181200,4171091,0,0,3141150,0,0,0,2010070,0,0,0,0,0,0,0,2041050,0,0,0,0,0,0,1111201,0,0,0,0,0,0,0,0,0
4,262,471.831776027102,1,0,190093.218842083,190094.265865064,1,15,11,1,1,14,0,4131071,7060362,8021221,5120200,4131071,0,0,0,0,0,0,0,0,4010181,0,0,0,-1020170,2030011,0,0,0,4000021,0,0,0,0,0,4021200,0,0,0,0,0,0,3100130,2020070,0,0,0
4,263,929.587315040408,1,0,190095.854073094,190096.901089916,1,15,11,0,1,18,20,171739363,108393869,73497059,177737013,10911419,4111070,31300819,20501819,31901309,42000809,20600509,10411609,0,2130041,0,0,0,30301309,0,31300919,41500519,-3161081,3031020,30300919,0,10212019,2170161,21611809,3170030,3001101,0,21200609,10200009,30511219,30601319,2120010,0,21501809,41301219,20300819
4,264,788.04332902655,1,0,190098.971628623,190100.018646215,1,15,11,0,1,21,20,151668416,118554628,119464136,188546045,11811809,2050020,20802019,0,31201419,4200031,0,41201809,40401309,2130161,2031070,0,2061141,30010709,40101119,0,10510119,31710309,11700719,0,-1050010,21711319,31700619,32000119,0,20100209,1201141,11300419,0,30000619,0,40901919,4031141,40200809,20200519,41910619
4,265,809.907186805503,0,0,190115.100580536,190116.147604287,1,15,12,0,0,5,5,80154609,43750919,22360779,5162140,40510309,0,4161060,0,-1181161,0,31301009,0,3001070,0,2030181,0,0,0,11710419,30010319,0,0,0,21210609,0,0,0,0,0,0,1150170,0,0,2011050,0,1081070,2070020,0,0,0
4,266,946.22802248341,1,0,190118.112265641,190119.159292857,1,15,12,1,1,29,5,61921728,15271762,71812528,48101780,40811009,0,0,0,0,0,0,21110719,0,0,4040180,2011010,1020200,0,1120120,4000071,3080181,0,0,0,30211419,0,0,0,0,0,41601109,4050170,-3150101,0,0,40901509,0,0,0,0
4,267,1051.1013972864,0,0,190121.159240117,190122.206265408,1,15,12,0,0,18,10,55724031,40952031,55721778,135755494,0,0,3031140,4181171,0,4170050,4031051,40310619,0,0,0,4200181,0,31500509,0,0,4150150,-1101191,0,0,30700719,0,3011050,0,0,22010009,0,10110409,21910709,41111519,0,11810819,30501019,0,0,20311019
4,268,564.861826831475,0,0,190124.441498113,190125.48852148,1,15,12,0,0,4,20,120868665,155827475,169757764,113104257,0,20101519,10201519,-4200070,40010819,12000909,21001309,11211409,2141111,0,0,31200719,40501819,0,1100090,21011719,30412009,31601119,41402009,2010200,0,41210409,20011619,2090090,40510909,11110609,11411919,41610419,20911609,4151170,0,3200110,0,40210919,0,3020030
4,269,813.23671413702,0,0,190127.159074584,190128.20609564,1,15,12,1,0,7,20,142347855,154736564,97573437,133004236,30011009,2031010,21111409,11811209,21610509,30211309,-4050181,21511219,0,4020070,30300519,10101019,21100319,10711619,10801119,21700209,4091171,41910519,0,31810809,41801509,3051000,20910119,0,0,0,0,31310019,21611019,1091100,3051040,0,4030030,0,40010819,31900209
4,270,550.201358564664,0,0,190130.100168627,190131.147193919,1,15,12,0,0,20,10,36941967,112073890,18663220,104323307,0,0,0,0,4020030,10700109,11610209,0,10611619,41110119,4160061,2030011,1081131,20911809,40710609,0,0,2070150,0,-3190121,4071190,0,0,11401909,0,0,0,21910319,1111150,0,40501519,0,40800319,0,0,0
4,271,626.688482007012,1,0,190132.782449182,190133.829541072,1,15,12,0,1,8,5,39131511,90463450,14690730,47172450,3070180,0,0,0,0,0,1150081,-4111041,30800209,0,0,41610909,41711209,4070141,0,0,3071191,0,0,0,11500609,0,0,0,0,3190121,0,42001219,0,0,1071121,0,0,0,4100110,0
4,272,497.65226256568,1,0,190135.617664718,190136.664687315,1,15,12,0,1,9,0,3201151,6311331,3191010,7102062,0,0,0,0,1020151,0,0,0,-2181000,0,0,0,1191200,0,3020090,2100041,0,0,0,0,3191010,0,0,0,0,0,0,3031041,0,0,0,4071021,0,0,0,0
4,273,729.518484033179,0,0,190138.264647818,190139.311671569,1,15,12,1,0,26,10,103874727,110043798,82684409,46642441,0,0,20400119,1171171,40900919,0,30301109,11101409,0,0,42001409,0,0,31510509,31411709,1060000,0,4060171,4140200,0,41502009,0,1111070,0,0,-4031111,31900019,0,0,41411319,0,3191101,0,0,0,2040021
4,274,953.125753003405,1,0,190141.088095097,190142.135122313,1,15,12,0,1,13,0,1110000,4312300,4201090,9091431,0,0,0,1110000,0,0,0,0,0,0,0,1121080,-2160120,0,0,0,1031100,0,0,0,0,0,0,0,0,0,4201090,0,4000060,0,2021200,0,0,3070171,0,0
4,275,1108.50485099945,0,0,190144.299805532,190145.346801566,1,15,12,1,0,33,20,267639002,148586776,77164721,73076537,0,31001709,41200909,21510419,30901919,30010409,31811119,41200909,40001609,20410109,41511819,21711919,0,0,4141091,40400319,20411519,0,11901809,4151091,10610519,40010009,2040051,1180171,0,3080040,4191031,11300709,12001109,0,22001809,0,-2121101,21500619,4151190,0
4,276,550.220606615767,1,0,190147.534984728,190148.582001165,1,15,12,1,1,10,5,10302019,8303431,92383817,35521370,0,0,0,10302019,0,0,0,0,0,-2001190,0,3081050,0,2161061,0,0,1060130,0,4160050,41910419,10811519,0,0,31411619,0,2060070,2030140,0,0,0,0,0,0,31500319,4021051,0
4,277,575.984888855601,0,0,190150.170199956,190151.217217163,1,15,12,1,0,14,0,4131071,7060362,8021221,5120200,4131071,0,0,0,0,0,0,0,0,4010181,0,0,0,-1020170,2030011,0,0,0,4000021,0,0,0,0,0,4021200,0,0,0,0,0,0,3100130,2020070,0,0,0
4,278,993.739519355586,0,0,190152.958364408,190154.005382,1,15,12,1,0,17,10,83322068,36382090,68934069,108216247,0,0,30411109,0,31510809,0,20300019,0,1100131,0,0,0,0,1141110,0,31210909,-4030071,0,0,41411919,2120200,0,0,0,0,21401919,4000031,0,40401219,20310819,31310519,0,1040180,1081061,3071130,11001319
4,279,741.540814837208,1,0,190156.099454525,190157.146468652,1,15,12,0,1,27,20,140618005,129878546,122414336,119336196,4081110,40501519,30610409,10702019,21510709,21801819,0,10300319,1110101,0,40401409,30611909,4041151,1020020,21701819,0,21400919,10701319,0,20711219,1090070,41210019,41210519,2100160,0,12001309,-4091040,0,0,41810209,41511019,11711719,11410419,1181121,11711709,0
4,280,1460.02579326159,0,0,190159.064072378,190160.11108997,1,15,12,1,0,31,0,3161161,1051141,8100200,9362481,1141071,0,2020090,0,0,0,0,0,0,0,0,0,0,0,0,1051141,0,0,4100080,0,0,0,4000120,0,0,0,0,0,3171101,0,-2180190,0,0,0,4011190,0
4,281,778.687622776488,1,0,190162.593383306,190163.640408982,1,15,12,1,1,36,0,7311191,6240141,0,5261340,0,0,4160021,0,0,0,0,0,3151170,3100050,0,0,0,0,0,1100071,2040020,0,0,0,0,0,0,0,0,0,0,0,0,0,0,0,0,2030160,2061030,-1170150
4,282,744.310223963112,1,0,190165.56977596,190166.616797786,1,15,12,1,1,22,20,153207395,87372948,168258775,119976227,2031121,31701309,20611309,11410709,11800609,4040191,10300819,20000319,41311009,21500119,1060021,0,41201119,0,1180050,1131130,0,21300509,41001919,31410109,41601909,-1031201,21300709,21901009,10011919,0,0,31711209,31810109,2141181,0,11201119,0,42011609,0,1101000
4,283,554.194173659198,1,0,190168.416769761,190169.463775034,1,15,12,0,1,28,10,35222658,96363088,44371489,42565140,0,0,10200109,11610119,0,0,3011021,0,10401409,0,30510719,40811209,3031151,0,0,22010009,0,0,2060071,0,0,21110909,21200509,0,0,0,0,-4180070,3161040,0,1150071,20210919,0,10610909,1131080,2121051
4,284,705.488835868891,0,0,190171.228438005,190172.275462911,1,15,12,0,0,15,20,141583967,150244014,112525367,145185786,3140001,3041031,2170160,0,30101109,10310009,40800519,21410019,30611119,42011309,11400319,40610609,0,12010119,-3200140,10200009,30811509,0,0,20700819,40700219,21401319,21310719,2171051,0,4190180,2051060,0,10810419,41311219,40101919,0,1150201,10101719,0,41710309
4,285,781.977499165805,1,0,190174.098943682,190175.145963968,1,15,12,1,1,32,10,43611628,72993229,95924187,53523650,31710419,11901209,0,0,0,0,0,0,0,11711609,31110409,0,2170180,4140161,0,3150151,20710719,0,0,10100519,3020021,10901109,0,30700719,41201819,0,0,0,1200050,0,3191050,-3141171,4091070,41900309,0,0
4,286,1017.57476222701,1,0,190177.134161835,190178.181228702,1,15,12,0,1,11,5,68813369,26641269,3001060,88383378,21510219,0,42000709,1090171,2101130,2111140,0,0,0,0,-1140150,21311119,0,0,0,0,4190000,0,0,0,3001060,0,0,0,0,0,0,0,4160080,0,1020170,0,41601409,41601719,0,0
4,287,708.344476268394,1,0,190180.310540554,190181.357564305,1,15,12,0,1,21,0,4141131,4191100,5110352,9303371,0,0,0,0,0,0,0,4141131,0,0,0,0,0,0,0,0,4191100,0,0,0,-4020161,0,0,0,0,0,1090191,0,0,0,4001000,1101150,0,1171090,0,3030131
4,288,532.437719986774,0,0,190183.216340221,190184.263368592,1,15,12,1,0,2,5,26741089,14153120,29132191,34714198,0,-1100060,0,0,1200050,0,0,21300819,3140160,0,0,0,2080091,0,0,11012019,1061010,0,0,0,0,0,21911009,4040001,3181181,0,0,0,0,0,3001060,0,0,21001819,10711319,0
4,289,857.306275051087,1,0,190205.686299408,190206.733325084,1,15,13,1,1,33,20,267639002,148586776,77164721,73076537,0,31001709,41200909,21510419,30901919,30010409,31811119,41200909,40001609,20410109,41511819,21711919,0,0,4141091,40400319,20411519,0,11901809,4151091,10610519,40010009,2040051,1180171,0,3080040,4191031,11300709,12001109,0,22001809,0,-2121101,21500619,4151190,0
4,290,914.919917442603,1,0,190208.615630584,190209.662655491,1,15,13,1,1,32,10,43611628,72993229,95924187,53523650,31710419,11901209,0,0,0,0,0,0,0,11711609,31110409,0,2170180,4140161,0,3150151,20710719,0,0,10100519,3020021,10901109,0,30700719,41201819,0,0,0,1200050,0,3191050,-3141171,4091070,41900309,0,0
4,291,655.33381208661,1,0,190211.639075862,190212.686098843,1,15,13,1,1,31,0,3161161,1051141,8100200,9362481,1141071,0,2020090,0,0,0,0,0,0,0,0,0,0,0,0,1051141,0,0,4100080,0,0,0,4000120,0,0,0,0,0,3171101,0,-2180190,0,0,0,4011190,0
4,292,449.713843991049,0,0,190214.356650408,190215.403731518,1,15,13,0,0,9,10,25723068,64564302,85744756,66374120,0,0,0,11410409,10201609,0,0,0,-4111050,3070071,0,3020171,0,0,41901009,11511719,4060131,1001201,11810109,0,0,0,31512009,0,21011419,0,21411219,30201509,1171021,0,2131121,0,0,31700409,0,1170060
4,293,495.652775338385,0,0,190216.944817632,190217.991832914,1,15,13,0,0,21,0,6182091,5151312,11342393,0,0,3161030,3021061,0,0,0,0,0,0,0,0,0,0,0,4071121,0,1080191,0,2041171,0,-3060161,0,4061020,0,0,0,2180041,0,0,0,0,0,0,0,0,0
4,294,1172.33715279144,0,0,190219.532982161,190220.579996673,1,15,13,0,0,11,5,14671999,9162071,33691240,108513397,0,11500709,0,0,0,1060140,0,2111150,0,0,-3041020,0,2011041,0,0,4110010,0,0,2080121,0,0,31611119,0,0,0,0,0,0,2080160,31910619,2020180,0,0,0,31701019,40801419
4,295,958.950982254464,0,0,190222.909353488,190223.956373005,1,15,13,1,0,26,10,103874727,110043798,82684409,46642441,0,0,20400119,1171171,40900919,0,30301109,11101409,0,0,42001409,0,0,31510509,31411709,1060000,0,4060171,4140200,0,41502009,0,1111070,0,0,-4031111,31900019,0,0,41411319,0,3191101,0,0,0,2040021
4,296,1058.48340867669,0,0,190226.073969339,190227.12099463,1,15,13,0,0,28,20,110698578,195097864,85973956,98783678,30411009,30000609,11211009,3051191,2001140,31811309,1071120,0,1141191,11010319,0,41600619,30000919,30311219,1051031,30710519,20411719,30001519,11110209,10311919,10300319,0,41211309,0,0,11900109,1140091,-3140191,2110041,20110009,0,0,31511619,11601809,0,30310009
4,297,537.678193562897,1,0,190229.332705451,190230.379726507,1,15,13,0,1,20,0,10242341,6311392,1071031,1080080,4111041,0,0,0,3040140,0,0,3091160,0,4030200,0,0,1090001,0,1191191,0,0,0,0,-1071031,0,0,0,0,0,0,0,1080080,0,0,0,0,0,0,0,0
4,298,548.417064506793,1,0,190231.967924143,190233.014948665,1,15,13,1,1,10,5,10302019,8303431,92383817,35521370,0,0,0,10302019,0,0,0,0,0,-2001190,0,3081050,0,2161061,0,0,1060130,0,4160050,41910419,10811519,0,0,31411619,0,2060070,2030140,0,0,0,0,0,0,31500319,4021051,0
4,299,891.237119125435,1,0,190234.709028273,190235.756046635,1,15,13,1,1,7,20,142347855,154736564,97573437,133004236,30011009,2031010,21111409,11811209,21610509,30211309,-4050181,21511219,0,4020070,30300519,10101019,21100319,10711619,10801119,21700209,4091171,41910519,0,31810809,41801509,3051000,20910119,0,0,0,0,31310019,21611019,1091100,3051040,0,4030030,0,40010819,31900209
4,300,2873.85305203497,0,0,190237.732471626,190238.77951424,1,15,13,0,0,5,20,93717199,119206114,144632475,153726805,4141000,0,3131201,40800909,-1101061,20601019,0,2131200,21810809,10010109,4030120,10400109,20101909,31911809,1040020,0,31300619,10411419,40410819,21310109,21300819,0,0,21510009,0,0,40100719,21801609,31200809,21300609,0,3030081,11001109,21711919,3170150,40510519
4,301,906.392647215398,0,0,190242.755856079,190243.8028806,1,15,13,0,0,13,5,34833079,78075140,1160151,35261979,0,3170170,0,0,0,1161000,0,0,30501909,41400309,31211509,0,-1160090,0,1091030,2091111,1121091,0,0,0,1160151,0,0,0,0,0,0,0,0,11501209,0,3150151,0,20610619,0,0
4,302,1368.11289913021,0,0,190245.896947736,190246.943978032,1,15,13,1,0,36,0,7311191,6240141,0,5261340,0,0,4160021,0,0,0,0,0,3151170,3100050,0,0,0,0,0,1100071,2040020,0,0,0,0,0,0,0,0,0,0,0,0,0,0,0,0,2030160,2061030,-1170150
4,303,910.025523800869,1,0,190249.379265709,190250.426225942,1,15,13,1,1,17,10,83322068,36382090,68934069,108216247,0,0,30411109,0,31510809,0,20300019,0,1100131,0,0,0,0,1141110,0,31210909,-4030071,0,0,41411919,2120200,0,0,0,0,21401919,4000031,0,40401219,20310819,31310519,0,1040180,1081061,3071130,11001319
4,304,501.155792269856,0,0,190252.437946463,190253.484963285,1,15,13,1,0,2,5,26741089,14153120,29132191,34714198,0,-1100060,0,0,1200050,0,0,21300819,3140160,0,0,0,2080091,0,0,11012019,1061010,0,0,0,0,0,21911009,4040001,3181181,0,0,0,0,0,3001060,0,0,21001819,10711319,0
4,305,682.656416291138,0,0,190255.108457607,190256.155481358,1,15,13,1,0,29,5,61921728,15271762,71812528,48101780,40811009,0,0,0,0,0,0,21110719,0,0,4040180,2011010,1020200,0,1120120,4000071,3080181,0,0,0,30211419,0,0,0,0,0,41601109,4050170,-3150101,0,0,40901509,0,0,0,0
4,306,427.255221526138,1,0,190257.931905656,190258.978936722,1,15,13,0,1,15,0,3071171,10221430,7272412,0,0,0,0,0,0,0,0,3071171,0,3070160,1010180,0,0,4030010,-2111080,0,0,0,1131161,0,0,0,2121080,0,4020171,0,0,0,0,0,0,0,0,0,0,0
4,307,1301.47192222648,0,0,190260.449491058,190261.496514039,1,15,13,0,0,18,5,5262300,60693049,20900109,87604458,1151190,0,0,0,1071050,0,0,3040060,0,21110619,0,0,30201119,0,3051090,0,4140031,-2190190,20900109,0,0,0,0,0,0,0,0,41800719,4151090,0,0,0,0,1151130,0,40501519
4,308,525.65586270066,1,0,190263.802393625,190264.849355012,1,15,13,1,1,14,0,4131071,7060362,8021221,5120200,4131071,0,0,0,0,0,0,0,0,4010181,0,0,0,-1020170,2030011,0,0,0,4000021,0,0,0,0,0,4021200,0,0,0,0,0,0,3100130,2020070,0,0,0
4,309,966.029644419905,0,0,190266.414028454,190267.461039886,1,15,13,0,0,4,10,55794479,48356239,86412288,86663599,0,40911219,0,-3191180,1181171,0,10510909,0,0,0,0,0,0,11711309,3121181,21901309,1111131,10511309,0,40900909,0,0,0,0,40200109,3160100,2151170,4120041,0,21010819,40200519,0,0,0,20301219,1031001
4,310,668.33933320595,1,0,190269.48452443,190270.53155742,1,15,13,0,1,27,10,75943079,101484848,13641099,76495957,0,30701609,1081201,40010209,4150060,0,0,0,0,0,0,0,21511019,0,41301709,3151070,31500909,4020141,0,10501009,0,0,0,0,0,2010070,-1130020,0,0,12001609,11711219,1001081,0,20700419,1080110,30001519
4,311,645.561578072375,1,0,190272.343271859,190273.390302925,1,15,13,0,1,8,20,71806067,186008624,67863968,174004396,0,2111040,0,21402009,10400609,10000009,20711319,-4131031,3050050,0,1071140,31701519,21001109,40611219,20401619,31211509,0,40010509,3000051,10300009,0,1141181,11211209,30210009,0,0,12001509,30610019,31800509,41600809,0,20701209,20310219,4080121,3091101,21810409
4,312,722.566473996267,0,0,190275.190245643,190276.237269779,1,15,13,1,0,22,20,153207395,87372948,168258775,119976227,2031121,31701309,20611309,11410709,11800609,4040191,10300819,20000319,41311009,21500119,1060021,0,41201119,0,1180050,1131130,0,21300509,41001919,31410109,41601909,-1031201,21300709,21901009,10011919,0,0,31711209,31810109,2141181,0,11201119,0,42011609,0,1101000
4,313,887.938773608767,1,0,190281.601832429,190282.64885618,1,15,14,1,1,33,20,267639002,148586776,77164721,73076537,0,31001709,41200909,21510419,30901919,30010409,31811119,41200909,40001609,20410109,41511819,21711919,0,0,4141091,40400319,20411519,0,11901809,4151091,10610519,40010009,2040051,1180171,0,3080040,4191031,11300709,12001109,0,22001809,0,-2121101,21500619,4151190,0
4,314,581.772006989922,0,0,190284.74293063,190285.789944757,1,15,14,1,0,22,20,153207395,87372948,168258775,119976227,2031121,31701309,20611309,11410709,11800609,4040191,10300819,20000319,41311009,21500119,1060021,0,41201119,0,1180050,1131130,0,21300509,41001919,31410109,41601909,-1031201,21300709,21901009,10011919,0,0,31711209,31810109,2141181,0,11201119,0,42011609,0,1101000
4,315,1205.80758352298,1,0,190287.389911035,190288.436927857,1,15,14,1,1,26,10,103874727,110043798,82684409,46642441,0,0,20400119,1171171,40900919,0,30301109,11101409,0,0,42001409,0,0,31510509,31411709,1060000,0,4060171,4140200,0,41502009,0,1111070,0,0,-4031111,31900019,0,0,41411319,0,3191101,0,0,0,2040021
4,316,455.852431477979,0,0,190290.789821185,190291.836838777,1,15,14,0,0,15,20,189628224,108506166,117339276,185377846,20900609,40901819,30601219,2011140,41000809,30001309,20100119,0,4111200,10101319,0,4130070,40601709,0,-2061040,30701219,0,20910809,10400309,20100909,0,2111060,30911919,0,1201151,21211919,31402009,21701919,41501009,4001001,4150090,31410909,0,0,41801309,40811609
4,317,903.537776728626,0,0,190293.319162909,190294.366186276,1,15,14,0,0,5,10,37173399,49974519,98714646,75622828,0,0,0,0,-1040000,30911209,0,1141130,4081060,1170130,0,21901919,21810309,0,0,4001090,0,1091071,0,11600609,30711209,20500919,0,0,31700819,0,4201090,41111809,20800309,3000101,0,0,0,0,0,10710609
4,318,584.186097170459,0,1,190296.448482845,190297.495507366,1,15,14,0,1,18,10,24430809,39773110,80436008,166975235,0,3030090,0,0,0,0,21400719,0,0,2111040,0,3201050,0,0,0,31300919,0,-3160101,3111100,0,2001150,31101819,0,41201819,0,3020120,0,30510519,1030031,41511219,11711009,40110419,10300219,0,31801819,0
4,319,520.145531510934,1,0,190299.248413629,190300.295426601,1,15,14,0,1,20,0,5080372,7361201,4200110,3232250,0,1010201,0,0,0,0,0,4070171,0,0,2040191,1161000,4160010,0,0,0,0,0,0,-4200110,0,0,0,0,0,0,0,0,0,0,0,0,2051070,0,1181180,0
4,320,958.307712484384,0,0,190301.848337561,190302.895356307,1,15,14,1,0,36,0,7311191,6240141,0,5261340,0,0,4160021,0,0,0,0,0,3151170,3100050,0,0,0,0,0,1100071,2040020,0,0,0,0,0,0,0,0,0,0,0,0,0,0,0,0,2030160,2061030,-1170150
4,321,602.707338926848,0,0,190305.060004495,190306.107031711,1,15,14,1,0,14,0,4131071,7060362,8021221,5120200,4131071,0,0,0,0,0,0,0,0,4010181,0,0,0,-1020170,2030011,0,0,0,4000021,0,0,0,0,0,4021200,0,0,0,0,0,0,3100130,2020070,0,0,0
4,322,535.174792428734,0,0,190307.730521413,190308.77754555,1,15,14,1,0,10,5,10302019,8303431,92383817,35521370,0,0,0,10302019,0,0,0,0,0,-2001190,0,3081050,0,2161061,0,0,1060130,0,4160050,41910419,10811519,0,0,31411619,0,2060070,2030140,0,0,0,0,0,0,31500319,4021051,0
4,323,933.715636376292,1,0,190310.506931083,190311.553937896,1,15,14,0,1,4,20,79125468,122826855,81992928,277428501,30701109,2081040,0,-3040080,20711919,0,0,20400219,2191101,20110709,21811519,20811509,0,31410809,3070200,0,4111090,21501019,3050030,0,4120071,0,40701009,10100309,20001319,0,4020190,10401009,30200009,40401519,41311719,31600309,30110809,41101109,10301509,42000509
4,324,1635.51063236082,0,0,190313.648008496,190314.695029553,1,15,14,1,0,31,0,3161161,1051141,8100200,9362481,1141071,0,2020090,0,0,0,0,0,0,0,0,0,0,0,0,1051141,0,0,4100080,0,0,0,4000120,0,0,0,0,0,3171101,0,-2180190,0,0,0,4011190,0
4,325,837.585879897233,1,0,190317.400841231,190318.447867677,1,15,14,0,1,13,0,7183563,2161331,6161151,3050190,1021191,0,0,0,3131191,3031181,0,0,0,0,0,0,-1040131,0,0,0,0,1121200,3001131,0,0,0,0,3160020,0,0,0,0,0,3050190,0,0,0,0,0,0
4,326,1426.25586286886,0,0,190320.377229651,190321.424293438,1,15,14,1,0,7,20,142347855,154736564,97573437,133004236,30011009,2031010,21111409,11811209,21610509,30211309,-4050181,21511219,0,4020070,30300519,10101019,21100319,10711619,10801119,21700209,4091171,41910519,0,31810809,41801509,3051000,20910119,0,0,0,0,31310019,21611019,1091100,3051040,0,4030030,0,40010819,31900209
4,327,936.353388882708,1,0,190323.977121246,190325.024154621,1,15,14,0,1,8,0,8151162,7372282,3182361,0,0,0,0,3060020,0,0,1021071,-4070071,0,0,0,1191081,0,3171111,0,0,0,3010090,0,0,0,2151190,1031171,0,0,0,0,0,0,0,0,0,0,0,0,0
4,328,833.23389623547,1,0,190327.071160279,190328.118179796,1,15,14,1,1,17,10,83322068,36382090,68934069,108216247,0,0,30411109,0,31510809,0,20300019,0,1100131,0,0,0,0,1141110,0,31210909,-4030071,0,0,41411919,2120200,0,0,0,0,21401919,4000031,0,40401219,20310819,31310519,0,1040180,1081061,3071130,11001319
4,329,852.426124969497,0,0,190330.024015265,190331.071039401,1,15,14,1,0,32,10,43611628,72993229,95924187,53523650,31710419,11901209,0,0,0,0,0,0,0,11711609,31110409,0,2170180,4140161,0,3150151,20710719,0,0,10100519,3020021,10901109,0,30700719,41201819,0,0,0,1200050,0,3191050,-3141171,4091070,41900309,0,0
4,330,790.082852181513,1,0,190332.953346442,190334.000365188,1,15,14,0,1,11,5,74284999,70173508,45091549,5341163,0,1030100,0,0,0,30612009,2041081,40601809,0,0,-4061070,40810119,0,0,4091010,21211309,0,0,3081130,42010419,0,0,0,0,0,0,0,0,0,3091051,0,1190011,1060101,0,0,0
4,331,819.856887799688,0,0,190335.894446645,190336.941467701,1,15,14,1,0,29,5,61921728,15271762,71812528,48101780,40811009,0,0,0,0,0,0,21110719,0,0,4040180,2011010,1020200,0,1120120,4000071,3080181,0,0,0,30211419,0,0,0,0,0,41601109,4050170,-3150101,0,0,40901509,0,0,0,0
4,332,561.730939341942,0,0,190338.788524636,190339.835511816,1,15,14,0,0,9,5,57413590,67252979,52005381,0,30401119,0,21701409,0,0,3190041,0,0,-2121021,3101060,0,0,2140101,31400909,0,0,0,30610909,0,0,0,3011080,2191010,2071151,0,40711009,4021131,0,0,0,0,0,0,0,0,0
4,333,879.722551821033,1,0,190341.588403451,190342.635427972,1,15,14,0,1,28,10,4260241,61784949,104932047,113067256,0,0,0,0,3170081,0,0,0,1090160,3140041,0,11601709,20710309,0,21110819,2051021,3171050,0,0,0,31410319,0,0,41911419,0,31610309,0,-1190010,20710509,41501519,3041070,3001120,31611319,0,0,12011709
4,334,1653.49331373,1,0,190344.623612365,190345.670642661,1,15,14,1,1,2,5,26741089,14153120,29132191,34714198,0,-1100060,0,0,1200050,0,0,21300819,3140160,0,0,0,2080091,0,0,11012019,1061010,0,0,0,0,0,21911009,4040001,3181181,0,0,0,0,0,3001060,0,0,21001819,10711319,0
4,335,845.487588579999,1,0,190348.364680693,190349.411710989,1,15,14,0,1,27,5,75955677,5100280,20904120,17051691,0,10201819,0,4141140,0,31500909,30111809,0,0,0,0,2070200,3030080,0,0,0,0,0,10611809,4040170,0,0,0,2151051,0,0,-4101090,1150041,11700619,0,4201031,0,0,0,0,0
4,336,654.246682301164,1,0,190351.352838909,190352.399863815,1,15,14,0,1,21,20,121517137,157326984,184377774,126795807,2090070,2201010,0,42011509,11511119,2080011,20512009,0,41111409,11110919,40900709,0,0,41401419,21701109,21111909,21100919,0,31710719,2061200,-1131050,41211409,20101209,20600009,4140150,41710619,21711409,0,40501609,0,31101619,1041141,10001409,4040020,0,40110009
4,337,773.361687868601,1,0,190372.434596148,190373.481623364,1,15,15,1,1,33,20,267639002,148586776,77164721,73076537,0,31001709,41200909,21510419,30901919,30010409,31811119,41200909,40001609,20410109,41511819,21711919,0,0,4141091,40400319,20411519,0,11901809,4151091,10610519,40010009,2040051,1180171,0,3080040,4191031,11300709,12001109,0,22001809,0,-2121101,21500619,4151190,0
