sub_id,Trial,RT,Resp,Error,Fix_onset,Disp_onset,q1,q2,block,repeat,tid,tloc,d_setsize,quad1,quad2,quad3,quad4,loc1,loc2,loc3,loc4,loc5,loc6,loc7,loc8,loc9,loc10,loc11,loc12,loc13,loc14,loc15,loc16,loc17,loc18,loc19,loc20,loc21,loc22,loc23,loc24,loc25,loc26,loc27,loc28,loc29,loc30,loc31,loc32,loc33,loc34,loc35,loc36
5,1,764.102527115028,0,0,192681.902818855,192682.949906895,0,40,1,0,0,10,10,79084446,26230360,107286008,37241389,0,0,3190160,30011319,21600409,11911319,1070130,11301109,0,-3040050,20100219,0,0,0,0,3090091,0,0,0,3071141,30301309,0,30810709,30411219,11611519,0,1080111,0,2031200,0,0,0,31110019,4100170,0,0
5,2,764.66726482613,1,0,192684.726390862,192685.773468893,0,40,1,1,1,24,20,113604636,178595315,105714556,120475225,1150100,0,1131180,30201819,40010909,0,0,10010209,31100419,0,4171031,41300809,31000619,31101219,10110819,20710709,40200109,0,10811019,2060190,0,41600919,21610909,-1151130,3040180,21310109,4130100,41410619,21700709,11200609,11110719,11511209,0,3140051,0,20401309
5,3,1267.27614525589,0,0,192687.667607708,192688.71467419,0,40,1,1,0,27,0,4161211,7342373,1150011,4272062,0,0,0,1131151,0,0,3030060,0,0,1071141,0,0,3200161,3071071,0,0,0,0,0,0,0,0,0,0,0,0,-1150011,0,1161031,0,0,0,0,0,0,3111031
5,4,517.72096764762,1,0,192691.079414692,192692.126480404,0,40,1,0,1,5,0,7140330,2031170,11203232,7220310,0,0,0,0,-4060130,3080200,0,0,0,0,0,2031170,0,0,0,0,0,0,3081130,0,0,0,0,4121061,0,4001041,0,4100150,0,3120160,0,0,0,0,0,0
5,5,1929.3855157448,1,0,192693.679444103,192694.726509815,0,40,1,1,1,31,20,129595344,125325230,141857457,163436624,12010119,0,31301309,21400609,0,31011309,21101619,11700209,1070170,0,4061021,1011051,41911409,0,4120050,4110171,40110309,30001219,3051141,21600619,0,41600319,3181031,41111119,0,20511909,10801319,32001309,11001919,0,-3100130,42000309,0,41810819,11611019,21911119
5,6,1575.59715342359,0,0,192697.797181718,192698.844202005,0,40,1,0,0,1,5,36390892,58193310,66422048,4251340,-1200171,0,1190191,0,0,32000519,0,0,2000011,0,0,0,0,3190051,22000809,1091031,0,31911419,30300509,0,0,0,0,0,4111130,32010409,0,0,0,0,0,1100190,0,3151150,0,0
5,7,1389.56707873149,1,0,192701.585416618,192702.632476171,0,40,1,1,1,29,10,135403865,16671523,126622977,25301229,31001219,11100019,0,0,0,41600509,40702009,11000109,0,2130161,4190021,0,0,3050030,0,4181191,0,3120120,0,4000021,30510119,40200909,0,10610919,0,0,41301009,0,-2090070,0,0,20111019,0,0,0,3100140
5,8,1619.88691199804,1,0,192705.114850348,192706.161932614,0,40,1,1,1,32,10,70433709,71812328,138727107,47852709,0,3100131,31701309,0,30501109,0,2021100,0,3110060,0,0,0,31200719,40611609,0,0,0,0,30210209,0,41201519,0,1121021,2031030,41611409,2050000,20501919,11511119,2181010,0,0,-4050071,0,0,0,30110509
5,9,1811.91929799388,1,0,192708.914907784,192709.961967722,0,40,1,1,1,11,5,35842939,5062122,43361949,55113449,1050111,0,0,3190200,0,0,0,10801509,20801119,0,-1001081,0,0,0,0,0,0,4061041,0,0,0,0,40300809,0,3061140,0,0,0,0,4201121,0,0,31810809,10910409,4021060,4170050
5,10,824.186079000356,0,0,192712.832601206,192713.879666148,0,40,1,0,0,30,5,20163249,47823852,3051031,76075978,0,3200180,10701809,0,4200190,0,0,2061070,0,3050191,0,1161051,3201201,40411409,0,0,0,0,3051031,0,0,0,0,0,0,0,0,0,0,-3041041,0,30711709,0,11711809,30611419,0
5,11,663.287025789032,0,0,192715.750277305,192716.797343017,0,40,1,0,0,21,10,16802011,120403707,93264257,65224398,0,0,0,10511919,2200011,4090081,0,0,0,0,0,21311009,0,4181191,20500219,2100070,41900009,30411209,31800609,0,-4141140,0,0,22011709,3070010,30100609,2140180,0,0,0,0,20711909,41311419,3201070,0,0
5,12,882.996180094779,0,0,192718.526839034,192719.573842767,0,40,1,0,0,34,0,4101031,7240282,1161200,8431360,0,0,0,0,4101031,0,0,0,0,4000131,0,2150041,0,0,0,1090110,0,0,0,0,1161200,0,0,0,0,0,0,3120140,0,0,0,0,0,-4110180,0,1201040
5,13,576.451766741229,1,0,192721.597402763,192722.644466165,0,40,1,0,1,2,5,83414719,15572090,7241182,10800309,30211109,-3010021,3191071,0,0,4160130,30712009,1030160,11100219,0,0,0,2171041,10400919,0,0,3000130,0,4041151,0,0,0,0,0,3200031,0,0,0,0,0,0,0,0,0,10800309,0
5,14,1681.32129195146,1,0,192724.350372544,192725.397444415,0,40,1,1,1,18,10,112813189,32871808,109466369,49195278,4090141,0,40500519,3020051,3080050,0,30810609,0,31311819,0,20311219,0,0,0,11500419,0,0,-1060170,30411409,0,3081061,31011819,0,0,0,41900909,3061171,12001419,0,0,3081030,0,0,0,2201010,31911819
5,15,831.367140810471,1,0,192728.268063271,192729.315131293,0,40,1,0,1,8,20,90495558,82067905,189546314,129665876,0,10300719,0,30801019,4181011,1100030,31210009,-2191161,10711609,10001609,0,10410609,20501109,4041090,21510409,11502019,4101060,0,31401309,21201709,2030030,41801419,31310609,20400119,41401119,0,0,40500309,21200219,21410909,31611019,2121041,0,0,11811219,1011160
5,16,948.136579187121,1,0,192731.303393833,192732.35046301,0,40,1,0,1,25,10,66044420,65995866,20370772,57723557,0,41212019,0,20800209,2031031,0,0,0,2001161,20411819,10011809,2161120,11410409,0,0,0,22000709,0,0,10910219,0,0,4160200,2120031,-1050171,0,2130151,11510609,21001019,0,0,0,0,0,21210809,4001120
5,17,1110.79952353612,1,0,192734.444614452,192735.491685938,0,40,1,1,1,20,0,0,9261332,9372412,6261391,0,0,0,0,0,0,0,0,0,1020180,0,0,4170021,0,0,4071131,0,0,0,-3061181,0,0,4110101,0,2201130,0,0,0,0,0,4090201,2171190,0,0,0,0
5,18,1189.09750334569,0,0,192737.75052368,192738.797648676,0,40,1,1,0,19,0,4161031,4140150,9154343,6201282,0,0,0,0,4161031,0,0,0,0,0,0,0,0,0,0,4140150,0,0,-2061091,3011150,0,0,0,3011061,0,1071041,0,0,0,0,0,0,4080081,0,2121201,0
5,19,1042.72764673806,0,0,192741.091756925,192742.138803774,0,40,1,1,0,15,5,45712071,10391393,67282190,76343548,0,0,3030011,0,0,0,41501009,1181051,0,0,3200201,0,0,0,-4180121,3011071,0,0,31900419,30211609,3160121,2010041,0,0,0,0,0,0,0,0,0,42001719,3030010,0,31311819,0
5,20,533.582899079192,0,0,192744.185892584,192745.232954446,0,40,1,0,0,16,20,117744897,82548131,131306536,251147993,1170091,0,4160150,41711419,0,10001809,40101019,0,20600409,0,2061101,11700819,20111719,0,40401209,-1141121,4001121,3131041,30300019,0,0,4191071,0,31601719,21501309,31701409,12011009,30411119,41600419,41510709,11311209,40611419,30200709,10311509,42010819,3180081
5,21,676.734867040068,0,0,192746.891803198,192747.93886737,0,40,1,0,0,9,0,2201120,8232201,0,8372643,0,0,0,0,0,1110060,0,0,-1091060,4141050,0,0,0,4091151,0,0,0,0,0,0,0,0,0,0,0,0,0,0,0,3000141,3141150,0,1201161,1030191,0,0
5,22,737.79006046243,0,0,192749.80948815,192750.856546548,0,40,1,1,0,14,5,33902420,24020700,36103049,41892971,0,1071061,0,0,0,31811319,1020040,0,0,0,0,0,0,-3020091,0,0,0,21000609,0,20410309,0,0,0,3011120,2170001,0,10511619,0,4061111,4140071,0,0,0,0,3181080,30510709
5,23,1381.78278313717,1,0,192752.750699222,192753.797758775,0,40,1,1,1,17,20,126945538,160396937,155657303,182085166,40911209,30100709,20511609,0,30300819,0,4060011,1061181,0,0,42010019,41702019,31001509,4171150,3010130,31300909,-4051010,3150191,0,10411319,11310119,20610719,0,30101019,30311109,31712009,21201009,3180180,31100409,40911409,3080121,40800719,21711409,0,0,41300919
5,24,1137.90539474576,1,1,192756.209557289,192757.256624541,0,40,1,0,0,36,20,160117704,81136519,145083825,73287147,11200309,21711719,41201509,11600319,0,2070201,40810819,20011319,11511509,20210519,21811009,0,21402019,10410619,1030151,0,4181001,2091201,40800019,11510009,40111109,10510109,0,20311319,20800209,0,1041051,1011020,4131110,10701809,0,0,41501019,11911109,0,-4031080
5,25,1318.99949998478,1,0,192787.998175225,192789.045218225,0,40,2,1,1,29,10,135403865,16671523,126622977,25301229,31001219,11100019,0,0,0,41600509,40702009,11000109,0,2130161,4190021,0,0,3050030,0,4181191,0,3120120,0,4000021,30510119,40200909,0,10610919,0,0,41301009,0,-2090070,0,0,20111019,0,0,0,3100140
5,26,932.505624339683,0,0,192791.480543243,192792.52761165,0,40,2,0,0,34,10,65843969,61882149,108024158,62855828,42010809,20802009,0,0,0,3031151,0,0,0,0,0,0,0,2181041,4190000,22010019,3201070,30300019,32011719,0,0,41010909,0,0,30900419,0,4101111,20501209,20810309,11202019,4141130,0,0,-3091101,3110060,0
5,27,1090.95016648644,1,0,192794.504105164,192795.551215916,0,40,2,1,1,14,5,33902420,24020700,36103049,41892971,0,1071061,0,0,0,31811319,1020040,0,0,0,0,0,0,-3020091,0,0,0,21000609,0,20410309,0,0,0,3011120,2170001,0,10511619,0,4061111,4140071,0,0,0,0,3181080,30510709
5,28,1222.34658157686,1,0,192797.68060938,192798.727680481,0,40,2,0,1,25,5,46773419,48811928,34382740,42771379,40501309,0,0,4141040,0,0,0,0,2131070,4071070,0,20700819,0,0,0,0,21010009,3030030,1031101,0,0,0,1100040,0,-1151090,31100509,0,0,0,0,0,0,0,0,1070170,41701209
5,29,1375.58414172963,0,0,192801.151238398,192802.19830488,0,40,2,1,0,19,0,4161031,4140150,9154343,6201282,0,0,0,0,4161031,0,0,0,0,0,0,0,0,0,0,4140150,0,0,-2061091,3011150,0,0,0,3011061,0,1071041,0,0,0,0,0,0,4080081,0,2121201,0
5,30,1810.07071546628,1,0,192804.668929279,192805.715987677,0,40,2,1,1,11,5,35842939,5062122,43361949,55113449,1050111,0,0,3190200,0,0,0,10801509,20801119,0,-1001081,0,0,0,0,0,0,4061041,0,0,0,0,40300809,0,3061140,0,0,0,0,4201121,0,0,31810809,10910409,4021060,4170050
5,31,2889.79690041742,0,0,192808.621957498,192809.668979324,0,40,2,1,0,18,10,112813189,32871808,109466369,49195278,4090141,0,40500519,3020051,3080050,0,30810609,0,31311819,0,20311219,0,0,0,11500419,0,0,-1060170,30411409,0,3081061,31011819,0,0,0,41900909,3061171,12001419,0,0,3081030,0,0,0,2201010,31911819
5,32,653.308452718193,1,0,192813.704322975,192814.751386762,0,40,2,1,1,15,5,45712071,10391393,67282190,76343548,0,0,3030011,0,0,0,41501009,1181051,0,0,3200201,0,0,0,-4180121,3011071,0,0,31900419,30211609,3160121,2010041,0,0,0,0,0,0,0,0,0,42001719,3030010,0,31311819,0
5,33,1896.06945432024,1,0,192816.586704698,192817.633770025,0,40,2,0,1,5,20,152255777,94343537,113684479,168526103,11910119,1111161,40701609,1191131,-2020101,11900109,40500019,11710009,31211519,2030110,0,0,0,30000809,21511109,0,40801509,0,2080041,21400409,4100051,30211519,1070160,0,10811919,2110071,41900309,11900009,31600219,31901719,0,20610719,30200609,20501909,21810919,0
5,34,1059.05576588702,0,0,192820.645572543,192821.6926371,0,40,2,1,0,27,0,4161211,7342373,1150011,4272062,0,0,0,1131151,0,0,3030060,0,0,1071141,0,0,3200161,3071071,0,0,0,0,0,0,0,0,0,0,0,0,-1150011,0,1161031,0,0,0,0,0,0,3111031
5,35,601.035373751074,0,0,192823.892662815,192824.939789351,0,40,2,0,0,9,0,8232422,2070051,6241272,4131131,0,0,0,0,3191141,0,0,1001130,-4040151,0,0,0,2070051,0,0,0,0,0,1091081,0,1140160,4010031,0,0,0,0,0,4131131,0,0,0,0,0,0,0,0
5,36,1540.56609090185,0,0,192826.669174884,192827.716235592,0,40,2,1,0,31,20,129595344,125325230,141857457,163436624,12010119,0,31301309,21400609,0,31011309,21101619,11700209,1070170,0,4061021,1011051,41911409,0,4120050,4110171,40110309,30001219,3051141,21600619,0,41600319,3181031,41111119,0,20511909,10801319,32001309,11001919,0,-3100130,42000309,0,41810819,11611019,21911119
5,37,2160.03218086553,1,0,192830.457442506,192831.504510528,0,40,2,0,1,1,10,55602688,68684738,36832637,39191331,-4090051,0,20901509,0,10600819,0,0,0,20010309,0,21901109,30001519,2090000,1131000,0,2150201,11410909,0,0,0,0,11601009,11211009,0,4010110,10010509,0,0,0,0,0,2010080,3200131,0,30911109,3070011
5,38,614.819670852739,0,0,192834.704559341,192835.751678563,0,40,2,0,0,2,10,28512941,58683859,13041959,106654464,0,-1051000,0,0,2170050,3001141,1190031,21100719,0,0,4201191,1031030,2040000,0,0,31010219,0,20401419,0,0,0,10901909,0,0,0,0,2140050,10310909,0,21211509,11400709,0,10710809,12010219,0,41010309
5,39,2435.87480267161,0,0,192837.398699388,192838.445796667,0,40,2,0,0,30,20,142325047,126414237,137925724,109638726,31900809,11200309,31401009,20000409,1070171,40711309,2030020,0,4011011,20510519,0,2090091,31901009,0,0,30410809,41501809,0,20801119,0,3200030,0,20000819,20000719,11211419,41201009,21510609,0,3020190,-1181051,12011309,10501409,31010919,40302019,1110010,10501819
5,40,1583.39992712718,0,0,192841.975222698,192843.02229149,0,40,2,1,0,17,20,126945538,160396937,155657303,182085166,40911209,30100709,20511609,0,30300819,0,4060011,1061181,0,0,42010019,41702019,31001509,4171150,3010130,31300909,-4051010,3150191,0,10411319,11310119,20610719,0,30101019,30311109,31712009,21201009,3180180,31100409,40911409,3080121,40800719,21711409,0,0,41300919
5,41,1149.82263121055,0,0,192845.645853179,192846.704709091,0,40,2,1,0,32,10,70433709,71812328,138727107,47852709,0,3100131,31701309,0,30501109,0,2021100,0,3110060,0,0,0,31200719,40611609,0,0,0,0,30210209,0,41201519,0,1121021,2031030,41611409,2050000,20501919,11511119,2181010,0,0,-4050071,0,0,0,30110509
5,42,1880.62405065284,1,0,192849.057655928,192850.104722025,0,40,2,0,1,10,0,1090111,1131050,8241412,10262251,0,0,0,0,0,0,0,1090111,0,-1131050,0,0,0,0,0,0,0,0,0,4110181,0,1041130,0,0,0,0,3090101,0,4090120,0,0,0,0,0,3171010,3001121
5,43,897.883390367497,0,0,192853.022410058,192854.069469995,0,40,2,0,0,8,5,60854330,44351751,6292201,63081558,32001109,21610909,2081031,2121160,0,0,0,-3040121,0,0,0,41100609,0,1070111,0,0,0,2181031,4101191,0,2191010,0,0,0,0,0,0,41101319,20900119,0,0,0,1080120,0,0,0
5,44,669.414834381314,0,0,192856.104792088,192857.151860495,0,40,2,0,0,16,20,160327064,82076039,146467225,210515965,41401209,10401309,21601419,11600809,0,0,4100190,30911519,40310609,0,2011080,3050071,21110209,2200160,10101609,-3101101,40501809,0,30801809,31410019,0,2131170,0,20401809,0,41111209,20611209,40110719,31110509,30301519,30800009,3200140,31301209,41500809,0,2191051
5,45,1238.1407598732,1,0,192859.034237983,192860.081292916,0,40,2,1,1,20,0,0,9261332,9372412,6261391,0,0,0,0,0,0,0,0,0,1020180,0,0,4170021,0,0,4071131,0,0,0,-3061181,0,0,4110101,0,2201130,0,0,0,0,0,4090201,2171190,0,0,0,0
5,46,542.570197663736,0,0,192862.504865462,192863.551929249,0,40,2,0,0,21,0,5091052,6330150,5320170,6162232,0,0,0,1011001,0,4080051,0,0,0,0,0,0,0,2200000,0,4130150,0,0,0,1170040,-4150130,0,0,0,0,0,0,0,0,0,3051091,0,0,0,3111141,0
5,47,1137.05347612267,1,0,192865.281412947,192866.328431309,0,40,2,0,1,36,5,3120151,71812528,69173929,24993892,0,0,3120151,0,0,0,0,0,0,0,40200919,0,31611609,0,0,0,0,0,0,0,4181101,3080110,30211709,0,0,0,31701009,0,3120120,10601419,0,3071051,3120050,3061181,0,-2020071
5,48,992.960278643295,1,0,192868.493169193,192869.540226051,0,40,2,1,1,24,20,113604636,178595315,105714556,120475225,1150100,0,1131180,30201819,40010909,0,0,10010209,31100419,0,4171031,41300809,31000619,31101219,10110819,20710709,40200109,0,10811019,2060190,0,41600919,21610909,-1151130,3040180,21310109,4130100,41410619,21700709,11200609,11110719,11511209,0,3140051,0,20401309
5,49,602.022413659142,0,0,192882.610970327,192883.658031804,0,40,3,0,0,9,20,90856646,182436485,135954986,157185915,3121170,11712019,4040170,0,21801009,11311619,30710409,4070200,-4090050,11800919,40010809,22011619,31610319,41900819,0,30910819,0,4191181,0,2040120,41611619,0,0,30701809,21600019,40001419,0,20511509,40110209,30201709,30500119,10600009,0,20100019,2081200,3081141
5,50,2021.85352356173,0,0,192885.305123848,192886.352190715,0,40,3,1,0,31,20,129595344,125325230,141857457,163436624,12010119,0,31301309,21400609,0,31011309,21101619,11700209,1070170,0,4061021,1011051,41911409,0,4120050,4110171,40110309,30001219,3051141,21600619,0,41600319,3181031,41111119,0,20511909,10801319,32001309,11001919,0,-3100130,42000309,0,41810819,11611019,21911119
5,51,777.665471658111,1,0,192889.493403249,192890.540464342,0,40,3,1,1,19,0,4161031,4140150,9154343,6201282,0,0,0,0,4161031,0,0,0,0,0,0,0,0,0,0,4140150,0,0,-2061091,3011150,0,0,0,3011061,0,1071041,0,0,0,0,0,0,4080081,0,2121201,0
5,52,585.114928224357,1,0,192892.517041777,192893.564028957,0,40,3,1,1,14,5,33902420,24020700,36103049,41892971,0,1071061,0,0,0,31811319,1020040,0,0,0,0,0,0,-3020091,0,0,0,21000609,0,20410309,0,0,0,3011120,2170001,0,10511619,0,4061111,4140071,0,0,0,0,3181080,30510709
5,53,762.491080502514,1,0,192895.187584102,192896.23464866,0,40,3,0,1,16,0,4081221,5311131,1200200,8423342,0,0,0,0,0,0,0,2071090,2010131,0,0,3110101,0,0,0,-2201030,0,0,0,0,0,1200200,0,0,0,0,0,0,0,1201160,0,0,0,3041151,4181031,0
5,54,1001.63421899197,1,0,192898.199383156,192899.246446558,0,40,3,1,1,11,5,35842939,5062122,43361949,55113449,1050111,0,0,3190200,0,0,0,10801509,20801119,0,-1001081,0,0,0,0,0,0,4061041,0,0,0,0,40300809,0,3061140,0,0,0,0,4201121,0,0,31810809,10910409,4021060,4170050
5,55,1079.179600114,0,0,192901.340586066,192902.387653318,0,40,3,0,0,30,0,6211252,9381261,6191261,1111020,0,4111201,0,0,0,0,0,0,2100051,0,4080060,0,4201011,1100190,0,0,0,0,0,2180090,0,0,0,4011171,0,0,0,0,0,-1111020,0,0,0,0,0,0
5,56,1452.90316583123,1,0,192904.517101446,192905.564161384,0,40,3,1,1,24,20,113604636,178595315,105714556,120475225,1150100,0,1131180,30201819,40010909,0,0,10010209,31100419,0,4171031,41300809,31000619,31101219,10110819,20710709,40200109,0,10811019,2060190,0,41600919,21610909,-1151130,3040180,21310109,4130100,41410619,21700709,11200609,11110719,11511209,0,3140051,0,20401309
5,57,1108.59369725222,1,0,192908.117137401,192909.164208503,0,40,3,0,1,8,10,17753901,65012339,98785688,155455217,2031181,0,10601619,0,1080061,0,0,-4041040,0,41410609,20511619,0,0,0,0,3090111,0,0,2151190,0,0,20011919,0,1190091,41600719,30801719,3030050,0,40300409,1031171,0,41111909,41300219,31711509,0,0
5,58,1331.91763496143,0,0,192911.387755718,192912.43482297,0,40,3,0,0,5,20,99114619,119684566,156257212,146697997,0,1150111,0,40711819,-1100140,40500609,10401809,1080031,4170100,41201909,4070120,21900709,0,0,41401209,11110619,0,0,10011209,30602019,21110919,11711309,21000019,0,41411619,10110109,10300009,3081121,21511009,0,21711009,2051131,10910309,41801809,41510409,4121200
5,59,711.772088921862,0,0,192914.881924329,192915.928990041,0,40,3,1,0,15,5,45712071,10391393,67282190,76343548,0,0,3030011,0,0,0,41501009,1181051,0,0,3200201,0,0,0,-4180121,3011071,0,0,31900419,30211609,3160121,2010041,0,0,0,0,0,0,0,0,0,42001719,3030010,0,31311819,0
5,60,1067.41480820347,0,0,192917.670188871,192918.717254968,0,40,3,0,0,34,20,165155404,146455784,160465177,93103577,10610019,0,11611419,0,30211509,41210519,40401919,31110019,0,21510909,11410509,21510519,0,30501719,1001100,40310509,20210519,0,42000619,40200219,31010619,3020000,4000051,4070001,21601419,11501109,3061140,0,10010119,3121090,0,31901009,0,-4130020,40900209,3041130
5,61,1794.86398756853,0,0,192920.834932145,192921.881991698,0,40,3,0,0,2,5,5092201,63061198,87604548,10301403,3061090,-2031111,0,0,0,0,0,0,0,0,0,20600119,0,0,0,40301019,2160060,0,0,31111119,0,10301109,0,40911319,2081000,3200001,0,0,4161161,0,3100111,0,0,0,3040131,0
5,62,1297.02554337564,0,0,192924.705552155,192925.752619407,0,40,3,0,0,25,5,65324109,29091210,12343452,47833959,0,0,20111619,0,42011409,0,0,0,3201081,0,4180031,0,0,20800119,4111060,0,0,0,0,2170031,4151161,0,0,2001190,-4021070,0,0,0,0,4111041,12010909,0,31712009,0,0,0
5,63,619.3418072653,0,0,192928.223238032,192929.270308363,0,40,3,1,0,20,0,0,9261332,9372412,6261391,0,0,0,0,0,0,0,0,0,1020180,0,0,4170021,0,0,4071131,0,0,0,-3061181,0,0,4110101,0,2201130,0,0,0,0,0,4090201,2171190,0,0,0,0
5,64,591.513364372076,1,0,192931.035037162,192932.082100564,0,40,3,1,1,17,20,126945538,160396937,155657303,182085166,40911209,30100709,20511609,0,30300819,0,4060011,1061181,0,0,42010019,41702019,31001509,4171150,3010130,31300909,-4051010,3150191,0,10411319,11310119,20610719,0,30101019,30311109,31712009,21201009,3180180,31100409,40911409,3080121,40800719,21711409,0,0,41300919
5,65,1134.39493573969,1,0,192933.835074965,192934.882136828,0,40,3,0,1,1,0,9441350,3281221,5170212,3081111,-1171020,0,4110160,0,0,0,4160170,0,0,0,0,0,0,0,2191021,1090200,0,0,0,0,3070121,0,0,0,2100091,0,0,0,0,0,0,0,0,3081111,0,0
5,66,1277.94418341364,0,0,192937.152811349,192938.199816622,0,40,3,0,0,10,10,80712319,66364419,73813398,78346246,4020191,1170140,40401409,31000519,4120060,0,0,0,0,-1091121,0,1131080,0,0,21900809,40101409,0,2140000,0,2010170,0,40701209,0,0,31102019,0,0,0,31901319,11601419,0,0,21901909,0,10900409,2041190
5,67,1058.03677422227,1,0,192940.517499496,192941.564558278,0,40,3,1,1,29,10,135403865,16671523,126622977,25301229,31001219,11100019,0,0,0,41600509,40702009,11000109,0,2130161,4190021,0,0,3050030,0,4181191,0,3120120,0,4000021,30510119,40200909,0,10610919,0,0,41301009,0,-2090070,0,0,20111019,0,0,0,3100140
5,68,1177.55175419734,1,0,192943.694001787,192944.741071348,0,40,3,1,1,32,10,70433709,71812328,138727107,47852709,0,3100131,31701309,0,30501109,0,2021100,0,3110060,0,0,0,31200719,40611609,0,0,0,0,30210209,0,41201519,0,1121021,2031030,41611409,2050000,20501919,11511119,2181010,0,0,-4050071,0,0,0,30110509
5,69,624.20078451396,0,0,192947.082276107,192948.129340664,0,40,3,1,0,27,0,4161211,7342373,1150011,4272062,0,0,0,1131151,0,0,3030060,0,0,1071141,0,0,3200161,3071071,0,0,0,0,0,0,0,0,0,0,0,0,-1150011,0,1161031,0,0,0,0,0,0,3111031
5,70,1767.63954840135,0,0,192949.952900737,192950.99995721,0,40,3,0,0,36,5,44550849,47762021,25921640,29733911,0,2040021,31910609,0,0,10600219,0,0,0,0,0,0,2100161,0,41500819,0,4161041,0,0,0,0,4010121,0,21911519,0,0,0,0,1070000,2091191,3191171,0,0,0,20210409,-3171140
5,71,1142.73973446689,1,0,192953.870644203,192954.917648707,0,40,3,1,1,18,10,112813189,32871808,109466369,49195278,4090141,0,40500519,3020051,3080050,0,30810609,0,31311819,0,20311219,0,0,0,11500419,0,0,-1060170,30411409,0,3081061,31011819,0,0,0,41900909,3061171,12001419,0,0,3081030,0,0,0,2201010,31911819
5,72,808.975886495318,0,0,192957.23533158,192958.282387283,0,40,3,0,0,21,10,36396410,66891999,85573477,126654107,2130130,0,11611109,0,10511909,4051201,4081051,0,4011010,3070100,0,40010919,0,0,0,0,21710919,2100061,31211409,0,-3051140,0,10700109,0,0,0,40610819,40200819,0,0,40701619,0,0,41701619,4050050,0
5,73,1831.50341696455,0,0,192965.611891923,192966.658956865,0,40,4,0,0,36,10,110094557,41275852,153913546,17794291,0,0,0,11810219,0,11300319,41101709,4071201,41811109,4021021,0,4021050,0,2111061,0,0,30001619,1121101,41201119,0,40510109,30800909,0,0,0,41401409,0,0,11410909,0,1111190,0,2171051,0,0,-3101141
5,74,735.654297022847,1,0,192969.576645283,192970.623709455,0,40,4,0,1,9,0,6160181,5210271,2172191,6200202,0,0,0,0,0,4160000,0,0,-2000181,1080090,0,0,0,0,4130181,0,0,0,0,0,1101001,0,0,1071190,0,0,0,3080191,0,0,0,0,3120011,0,0,0
5,75,738.827530236449,0,0,192972.400205355,192973.447269143,0,40,4,1,0,15,5,45712071,10391393,67282190,76343548,0,0,3030011,0,0,0,41501009,1181051,0,0,3200201,0,0,0,-4180121,3011071,0,0,31900419,30211609,3160121,2010041,0,0,0,0,0,0,0,0,0,42001719,3030010,0,31311819,0
5,76,1541.73752712086,1,0,192975.235522136,192976.282600167,0,40,4,1,1,31,20,129595344,125325230,141857457,163436624,12010119,0,31301309,21400609,0,31011309,21101619,11700209,1070170,0,4061021,1011051,41911409,0,4120050,4110171,40110309,30001219,3051141,21600619,0,41600319,3181031,41111119,0,20511909,10801319,32001309,11001919,0,-3100130,42000309,0,41810819,11611019,21911119
5,77,838.309141807258,0,0,192978.976750993,192980.023813625,0,40,4,0,0,25,20,111094195,120585707,99492807,175846303,3000090,3050040,11500719,40610209,21710519,0,21211809,0,10010809,41701509,1080160,21901609,20100119,0,2020041,1060150,2111000,30611119,0,0,31500119,3140110,31011709,10310119,-3030041,20500709,0,0,41112019,10601809,0,21110419,11010419,40900309,31001109,20110219
5,78,625.095433788374,1,0,192981.917959755,192982.965020463,0,40,4,0,1,16,10,44903420,130577714,14211650,44154619,0,0,3171030,0,40701309,1031081,0,0,0,41201709,11210409,20801009,11411519,20410109,1030110,-3131130,20200519,1181200,1040071,2071060,0,0,11100519,0,0,0,0,0,31211619,2041191,0,0,0,0,0,10901809
5,79,616.466918814695,0,0,192984.788573606,192985.835645093,0,40,4,1,0,20,0,0,9261332,9372412,6261391,0,0,0,0,0,0,0,0,0,1020180,0,0,4170021,0,0,4071131,0,0,0,-3061181,0,0,4110101,0,2201130,0,0,0,0,0,4090201,2171190,0,0,0,0
5,80,598.142007132992,0,0,192987.529779365,192988.576847772,0,40,4,0,0,10,10,46203969,88264117,34374408,79376949,0,1011200,1020131,20000519,0,0,21101919,0,3070200,-4151180,0,0,31311409,11801219,0,0,41000309,0,10811919,0,0,0,0,0,0,20401419,3161070,2011000,21301309,2101151,2050171,30601509,0,0,0,21311809
5,81,1059.15778054623,0,0,192990.223935581,192991.270991669,0,40,4,1,0,32,10,70433709,71812328,138727107,47852709,0,3100131,31701309,0,30501109,0,2021100,0,3110060,0,0,0,31200719,40611609,0,0,0,0,30210209,0,41201519,0,1121021,2031030,41611409,2050000,20501919,11511119,2181010,0,0,-4050071,0,0,0,30110509
5,82,577.748700248776,0,0,192993.471021234,192994.518138531,0,40,4,1,0,14,5,33902420,24020700,36103049,41892971,0,1071061,0,0,0,31811319,1020040,0,0,0,0,0,0,-3020091,0,0,0,21000609,0,20410309,0,0,0,3011120,2170001,0,10511619,0,4061111,4140071,0,0,0,0,3181080,30510709
5,83,1544.80066147516,0,0,192996.223997945,192997.271110237,0,40,4,1,0,11,5,35842939,5062122,43361949,55113449,1050111,0,0,3190200,0,0,0,10801509,20801119,0,-1001081,0,0,0,0,0,0,4061041,0,0,0,0,40300809,0,3061140,0,0,0,0,4201121,0,0,31810809,10910409,4021060,4170050
5,84,1751.64403551025,1,0,192999.859327506,193000.906400917,0,40,4,1,1,18,10,112813189,32871808,109466369,49195278,4090141,0,40500519,3020051,3080050,0,30810609,0,31311819,0,20311219,0,0,0,11500419,0,0,-1060170,30411409,0,3081061,31011819,0,0,0,41900909,3061171,12001419,0,0,3081030,0,0,0,2201010,31911819
5,85,729.473363811849,1,0,193003.753492499,193004.80056283,0,40,4,0,1,21,20,186135774,139395626,89683929,159535196,0,42010319,31200009,0,40301009,20801309,0,30011919,21811209,0,20600709,0,41500619,10601119,4170151,0,30811119,31711909,3061001,10700019,-4160031,4160091,20310409,4120030,31000109,10111109,2061130,21811709,3180030,1110001,0,21211009,30501019,41311019,0,40410409
5,86,1169.05759062502,1,0,193006.682994213,193007.730001796,0,40,4,1,1,29,10,135403865,16671523,126622977,25301229,31001219,11100019,0,0,0,41600509,40702009,11000109,0,2130161,4190021,0,0,3050030,0,4181191,0,3120120,0,4000021,30510119,40200909,0,10610919,0,0,41301009,0,-2090070,0,0,20111019,0,0,0,3100140
5,87,1249.20107325306,1,0,193010.094741528,193011.14179877,0,40,4,0,1,34,5,65591029,47512631,2170201,34863649,0,20510209,3070111,42010709,0,0,0,0,0,2071051,0,1170110,0,3061061,0,41210409,0,0,0,2170201,0,0,0,0,0,0,0,0,4011160,0,0,12000619,3090071,-4061090,0,11700709
5,88,1574.52850177651,0,0,193013.412421322,193014.459491268,0,40,4,0,0,5,5,107084666,3140300,7491192,26472401,0,30801009,31600819,0,-3171010,0,11010809,30501019,0,0,1000190,0,2140110,0,0,0,0,0,0,0,1200060,2120031,0,0,0,0,4171101,2090131,0,0,21311209,3071061,0,0,0,0
5,89,789.346727076918,1,0,193017.118368891,193018.165414586,0,40,4,0,1,2,0,6301201,6131281,4150360,2171080,4190191,-2111010,0,0,0,0,0,0,0,2101000,0,0,0,0,3000131,1030150,0,0,0,0,0,1140170,0,3010190,0,0,0,0,0,0,0,2171080,0,0,0,0
5,90,506.70184509363,1,0,193019.98900738,193021.036034211,0,40,4,0,1,8,0,5112101,7363252,7261151,4070060,0,0,0,1101101,0,0,0,-4011000,0,4101120,0,0,1151051,0,0,2111081,0,0,0,0,0,0,0,0,4141090,0,3120061,0,0,0,0,0,0,0,4070060,0
5,91,1377.91315556387,1,0,193022.706647369,193023.753705382,0,40,4,0,1,1,20,135585729,88114055,110815356,144116204,-3171031,0,31501909,20600319,3110051,40500709,31610519,4081090,1010101,0,11410209,0,10511319,21010919,11601219,3170070,0,30410319,11310019,0,40500019,3201020,2170131,10511319,30111319,3001020,10010509,30200819,20401509,0,10702019,0,31310119,20800519,30701219,0
5,92,863.027485116618,0,0,193026.200818675,193027.247868604,0,40,4,1,0,19,0,4161031,4140150,9154343,6201282,0,0,0,0,4161031,0,0,0,0,0,0,0,0,0,0,4140150,0,0,-2061091,3011150,0,0,0,3011061,0,1071041,0,0,0,0,0,0,4080081,0,2121201,0
5,93,1061.97492487263,1,0,193029.306724515,193030.353789073,0,40,4,1,1,27,0,4161211,7342373,1150011,4272062,0,0,0,1131151,0,0,3030060,0,0,1071141,0,0,3200161,3071071,0,0,0,0,0,0,0,0,0,0,0,0,-1150011,0,1161031,0,0,0,0,0,0,3111031
5,94,1464.2672133923,1,0,193032.624403924,193033.671470022,0,40,4,0,1,30,5,3140140,79313829,3081171,95913408,0,0,0,0,0,0,0,3140140,0,0,3201040,0,0,0,40811909,2160111,1130160,32010609,0,0,0,1071130,0,0,0,0,2010041,1190170,20400319,-3100101,30012009,41210809,0,0,0,0
5,95,662.305760313757,0,0,193036.177380327,193037.224452199,0,40,4,1,0,17,20,126945538,160396937,155657303,182085166,40911209,30100709,20511609,0,30300819,0,4060011,1061181,0,0,42010019,41702019,31001509,4171150,3010130,31300909,-4051010,3150191,0,10411319,11310119,20610719,0,30101019,30311109,31712009,21201009,3180180,31100409,40911409,3080121,40800719,21711409,0,0,41300919
5,96,1184.64504487929,0,0,193038.906824759,193039.953892781,0,40,4,1,0,24,20,113604636,178595315,105714556,120475225,1150100,0,1131180,30201819,40010909,0,0,10010209,31100419,0,4171031,41300809,31000619,31101219,10110819,20710709,40200109,0,10811019,2060190,0,41600919,21610909,-1151130,3040180,21310109,4130100,41410619,21700709,11200609,11110719,11511209,0,3140051,0,20401309
5,97,2153.20258846623,0,0,193045.848068938,193046.895143504,0,40,5,0,0,1,20,155992340,71155167,137228494,168019195,-3120151,31310109,40700919,2160111,31010709,1060111,1040071,4180050,41410109,3101070,11611909,20500419,10500519,4031041,0,0,21410209,0,0,31401519,0,20201609,0,10410609,21701119,31811819,21701819,0,10301819,31301619,11111409,3091001,41000409,0,31011119,40201819
5,98,2067.91102286661,1,0,193050.083420211,193051.130479378,0,40,5,1,1,19,0,4161031,4140150,9154343,6201282,0,0,0,0,4161031,0,0,0,0,0,0,0,0,0,0,4140150,0,0,-2061091,3011150,0,0,0,3011061,0,1071041,0,0,0,0,0,0,4080081,0,2121201,0
5,99,1064.16150310542,0,0,193054.248178882,193055.295241515,0,40,5,1,0,17,20,126945538,160396937,155657303,182085166,40911209,30100709,20511609,0,30300819,0,4060011,1061181,0,0,42010019,41702019,31001509,4171150,3010130,31300909,-4051010,3150191,0,10411319,11310119,20610719,0,30101019,30311109,31712009,21201009,3180180,31100409,40911409,3080121,40800719,21711409,0,0,41300919
5,100,538.857634179294,0,0,193057.389388337,193058.436489466,0,40,5,0,0,21,10,101412988,82312038,75756670,57903189,0,4031011,20611019,31510309,0,2150021,31510019,11600609,0,41001219,0,0,0,0,0,0,41310819,0,0,0,-4051030,3101090,0,42001809,4111201,20400419,2091121,0,0,2070031,21811619,0,31911509,0,0,2110030
5,101,1310.05108245881,1,0,193060.154123681,193061.201180539,0,40,5,1,1,18,10,112813189,32871808,109466369,49195278,4090141,0,40500519,3020051,3080050,0,30810609,0,31311819,0,20311219,0,0,0,11500419,0,0,-1060170,30411409,0,3081061,31011819,0,0,0,41900909,3061171,12001419,0,0,3081030,0,0,0,2201010,31911819
5,102,949.934346863301,1,0,193063.601218496,193064.648283053,0,40,5,1,1,32,10,70433709,71812328,138727107,47852709,0,3100131,31701309,0,30501109,0,2021100,0,3110060,0,0,0,31200719,40611609,0,0,0,0,30210209,0,41201519,0,1121021,2031030,41611409,2050000,20501919,11511119,2181010,0,0,-4050071,0,0,0,30110509
5,103,555.025994544849,0,0,193066.660081721,193067.707137809,0,40,5,1,0,20,0,0,9261332,9372412,6261391,0,0,0,0,0,0,0,0,0,1020180,0,0,4170021,0,0,4071131,0,0,0,-3061181,0,0,4110101,0,2201130,0,0,0,0,0,4090201,2171190,0,0,0,0
5,104,1550.66400190117,1,0,193069.283633402,193070.330699884,0,40,5,1,1,31,20,129595344,125325230,141857457,163436624,12010119,0,31301309,21400609,0,31011309,21101619,11700209,1070170,0,4061021,1011051,41911409,0,4120050,4110171,40110309,30001219,3051141,21600619,0,41600319,3181031,41111119,0,20511909,10801319,32001309,11001919,0,-3100130,42000309,0,41810819,11611019,21911119
5,105,825.533057417488,1,0,193072.942491007,193073.989565188,0,40,5,1,1,27,0,4161211,7342373,1150011,4272062,0,0,0,1131151,0,0,3030060,0,0,1071141,0,0,3200161,3071071,0,0,0,0,0,0,0,0,0,0,0,0,-1150011,0,1161031,0,0,0,0,0,0,3111031
5,106,783.12498802552,1,0,193076.024884587,193077.071946064,0,40,5,1,1,29,10,135403865,16671523,126622977,25301229,31001219,11100019,0,0,0,41600509,40702009,11000109,0,2130161,4190021,0,0,3050030,0,4181191,0,3120120,0,4000021,30510119,40200909,0,10610919,0,0,41301009,0,-2090070,0,0,20111019,0,0,0,3100140
5,107,626.329233695287,0,0,193079.036679021,193080.083745888,0,40,5,1,0,14,5,33902420,24020700,36103049,41892971,0,1071061,0,0,0,31811319,1020040,0,0,0,0,0,0,-3020091,0,0,0,21000609,0,20410309,0,0,0,3011120,2170001,0,10511619,0,4061111,4140071,0,0,0,0,3181080,30510709
5,108,1047.55197747727,0,0,193081.848480461,193082.895542323,0,40,5,1,0,11,5,35842939,5062122,43361949,55113449,1050111,0,0,3190200,0,0,0,10801509,20801119,0,-1001081,0,0,0,0,0,0,4061041,0,0,0,0,40300809,0,3061140,0,0,0,0,4201121,0,0,31810809,10910409,4021060,4170050
5,109,493.623951304471,1,0,193085.095578048,193086.14263683,0,40,5,1,1,15,5,45712071,10391393,67282190,76343548,0,0,3030011,0,0,0,41501009,1181051,0,0,3200201,0,0,0,-4180121,3011071,0,0,31900419,30211609,3160121,2010041,0,0,0,0,0,0,0,0,0,42001719,3030010,0,31311819,0
5,110,523.101566999685,1,0,193087.825014781,193088.872077028,0,40,5,0,1,16,10,94213357,81684288,82866319,31101119,0,0,0,0,21001919,31701119,0,0,41510319,0,30800509,0,12001109,4031060,30600219,-2100190,2151201,0,21111309,20300909,2060171,0,4091041,30210609,2020030,2051070,1021180,0,0,0,0,0,0,0,31101119,0
5,111,1569.0077766485,0,0,193090.530927704,193091.577986872,0,40,5,0,0,30,0,1040071,5311241,4351331,6381251,0,0,0,0,0,1040071,0,0,0,0,0,0,3181160,0,0,2130081,0,0,0,2170020,1131180,1050131,0,0,0,0,0,0,0,-2200060,4181191,0,0,0,0,0
5,112,630.039102456067,0,0,193094.283911344,193095.330974746,0,40,5,0,0,8,20,119906537,132925117,170307985,120354865,11711409,30000509,1031191,41001319,0,10610609,4011141,-1030150,20510209,3191080,0,4200171,31401309,41710319,41510519,0,0,10911719,30600509,0,41201109,32001419,0,10601809,3191111,41410909,11301119,20410809,21401209,21801519,0,20010119,0,4100200,1030190,31600819
5,113,1354.73273129901,1,0,193096.966300073,193098.013355776,0,40,5,0,1,5,5,21742160,31611409,9292191,87295089,0,11311009,4191020,0,-3040121,0,3200010,0,0,0,0,0,0,0,0,0,0,31611409,0,0,4201090,3010091,0,0,0,2081010,0,21911319,21500419,1080131,0,0,0,40612019,2191201,0
5,114,991.252206848003,1,0,193100.448690034,193101.495753821,0,40,5,0,1,25,10,61475407,75923108,69212949,44533500,11601509,0,11511019,0,0,3150131,4110120,20700609,10402019,0,0,0,3110180,30811619,0,0,0,42001309,41911309,0,0,0,20200419,0,-4010191,3091030,0,0,0,3041141,11510919,21701209,4180110,0,0,4100121
5,115,655.526982736774,0,0,193103.613425608,193104.660496709,0,40,5,0,0,34,0,6260042,2120171,2001111,11462523,0,0,2090021,4170021,0,0,0,0,0,0,0,2120171,0,0,0,0,0,0,0,0,0,0,0,0,2001111,0,0,0,0,4060041,2081150,0,0,-4140171,0,1181161
5,116,680.390456342138,1,0,193106.519336914,193107.566404166,0,40,5,0,1,10,0,3061060,15644281,7120260,0,0,0,0,0,0,0,3061060,0,0,-3191161,0,0,0,4181040,0,4090000,3071070,1111010,0,0,0,0,0,0,3030100,0,4090160,0,0,0,0,0,0,0,0,0
5,117,648.273548315046,0,0,193109.307606846,193110.354678332,0,40,5,0,0,9,20,66016389,136016894,168957865,170977964,4170090,1161101,11812019,0,0,11810719,32001319,3001060,-2060081,11400219,41110809,0,21001519,40611509,1081110,10610719,0,10201009,0,40501719,0,3021090,0,41812009,11502019,31210309,40910719,11610609,30711209,30701519,1161150,31201219,0,41401109,4191040,20000109
5,118,2088.9760866703,0,0,193112.154698812,193113.201749896,0,40,5,1,0,24,20,113604636,178595315,105714556,120475225,1150100,0,1131180,30201819,40010909,0,0,10010209,31100419,0,4171031,41300809,31000619,31101219,10110819,20710709,40200109,0,10811019,2060190,0,41600919,21610909,-1151130,3040180,21310109,4130100,41410619,21700709,11200609,11110719,11511209,0,3140051,0,20401309
5,119,1057.40890291054,1,0,193116.378276824,193117.425342536,0,40,5,0,1,36,5,31201619,56945087,26931390,9354433,0,0,31201619,0,0,0,0,0,0,0,20112009,0,11800219,4021040,0,0,21011819,0,2040000,0,0,0,0,20800219,0,0,4091171,1151101,1050111,2061080,0,3091011,0,0,0,-2001130
5,120,1432.26771845366,0,0,193119.519486664,193120.566554686,0,40,5,0,0,2,5,27673742,32592618,25051820,46072099,0,-4010151,0,4111091,0,4141081,0,11401409,4010010,10410109,0,1081000,0,0,0,0,0,21101509,0,0,20800609,0,0,3121151,0,1130060,0,0,0,4060090,0,0,42012009,0,0,0
5,121,643.044623575406,0,0,193126.072495788,193127.119561116,0,40,6,0,0,34,0,4171111,3100051,5251091,7232522,0,0,0,0,0,0,0,0,4171111,0,0,0,0,0,2100051,0,0,1000000,0,0,0,0,0,0,0,2080011,3171080,0,0,0,0,2111201,0,-3051171,2070150,0
5,122,1252.00551384478,1,0,193128.872537441,193129.919595454,0,40,6,1,1,14,5,33902420,24020700,36103049,41892971,0,1071061,0,0,0,31811319,1020040,0,0,0,0,0,0,-3020091,0,0,0,21000609,0,20410309,0,0,0,3011120,2170001,0,10511619,0,4061111,4140071,0,0,0,0,3181080,30510709
5,123,797.709619015222,0,0,193132.201984722,193133.249041965,0,40,6,1,0,19,0,4161031,4140150,9154343,6201282,0,0,0,0,4161031,0,0,0,0,0,0,0,0,0,0,4140150,0,0,-2061091,3011150,0,0,0,3011061,0,1071041,0,0,0,0,0,0,4080081,0,2121201,0
5,124,1234.31232312578,1,0,193135.084369909,193136.131425612,0,40,6,0,1,9,0,5331301,0,4262170,5250190,1040170,0,0,0,1080000,0,0,2190050,-1021081,0,0,0,0,0,0,0,0,0,0,2101110,0,0,0,2161060,0,0,0,0,0,0,2160000,0,0,3090190,0,0
5,125,883.32301194896,0,0,193138.484405942,193139.531462415,0,40,6,1,0,11,5,35842939,5062122,43361949,55113449,1050111,0,0,3190200,0,0,0,10801509,20801119,0,-1001081,0,0,0,0,0,0,4061041,0,0,0,0,40300809,0,3061140,0,0,0,0,4201121,0,0,31810809,10910409,4021060,4170050
5,126,1457.30288463528,1,0,193141.543263008,193142.590325255,0,40,6,0,1,25,5,24921089,46723269,9361292,65841479,0,0,4120180,0,0,0,0,20800909,0,10300019,31211019,0,0,0,2031190,0,0,3181041,0,0,2140080,0,0,0,-3100041,0,4121171,3180150,0,40900319,0,0,20600919,1160091,0,0
5,127,989.876356354216,0,0,193145.119773999,193146.166833937,0,40,6,1,0,31,20,129595344,125325230,141857457,163436624,12010119,0,31301309,21400609,0,31011309,21101619,11700209,1070170,0,4061021,1011051,41911409,0,4120050,4110171,40110309,30001219,3051141,21600619,0,41600319,3181031,41111119,0,20511909,10801319,32001309,11001919,0,-3100130,42000309,0,41810819,11611019,21911119
5,128,933.373326348374,1,0,193148.20215526,193149.249229441,0,40,6,1,1,32,10,70433709,71812328,138727107,47852709,0,3100131,31701309,0,30501109,0,2021100,0,3110060,0,0,0,31200719,40611609,0,0,0,0,30210209,0,41201519,0,1121021,2031030,41611409,2050000,20501919,11511119,2181010,0,0,-4050071,0,0,0,30110509
5,129,1562.64822158846,1,0,193151.225719875,193152.272786357,0,40,6,1,1,24,20,113604636,178595315,105714556,120475225,1150100,0,1131180,30201819,40010909,0,0,10010209,31100419,0,4171031,41300809,31000619,31101219,10110819,20710709,40200109,0,10811019,2060190,0,41600919,21610909,-1151130,3040180,21310109,4130100,41410619,21700709,11200609,11110719,11511209,0,3140051,0,20401309
5,130,891.625080024824,1,0,193154.93166937,193155.978706595,0,40,6,0,1,30,20,128914566,99976546,133064957,152554675,20111619,0,10200419,0,0,4070171,11811519,41110219,41610619,10901209,2081140,20111819,21010609,11510219,0,31211409,0,3150141,31810719,2050111,21701609,0,11111909,40700119,2040120,3050051,20600319,31111009,31301919,-3050080,31810109,0,10510719,0,40700709,4070130
5,131,602.846230089199,0,0,193157.896386158,193158.943449175,0,40,6,1,0,17,20,126945538,160396937,155657303,182085166,40911209,30100709,20511609,0,30300819,0,4060011,1061181,0,0,42010019,41702019,31001509,4171150,3010130,31300909,-4051010,3150191,0,10411319,11310119,20610719,0,30101019,30311109,31712009,21201009,3180180,31100409,40911409,3080121,40800719,21711409,0,0,41300919
5,132,827.553717506817,0,0,193160.719949695,193161.767007708,0,40,6,1,0,27,0,4161211,7342373,1150011,4272062,0,0,0,1131151,0,0,3030060,0,0,1071141,0,0,3200161,3071071,0,0,0,0,0,0,0,0,0,0,0,0,-1150011,0,1161031,0,0,0,0,0,0,3111031
5,133,1959.67424416449,0,0,193163.790583102,193164.837629951,0,40,6,0,0,1,5,22612799,68522941,35452371,13530870,-2101090,0,0,0,20511709,0,0,0,0,0,0,0,1100121,0,3010081,3111011,40900309,20401419,1180001,0,0,0,31110219,2121140,1041011,0,0,0,3120051,0,0,0,10410819,0,0,0
5,134,779.660339379916,0,0,193167.943558504,193168.990617287,0,40,6,0,0,8,20,123556007,175976157,157246495,86546008,11910419,0,0,41811419,10700109,3191031,22000419,-3131001,30811609,30000409,4071201,30300509,3050121,41612009,10110309,4121071,21000419,31710109,1130111,11801009,31000019,20911319,11401919,40702009,40300109,0,0,31501509,0,0,0,0,2151021,31001209,1181050,20711219
5,135,1308.29527552123,1,0,193170.93181835,193171.978890991,0,40,6,1,1,18,10,112813189,32871808,109466369,49195278,4090141,0,40500519,3020051,3080050,0,30810609,0,31311819,0,20311219,0,0,0,11500419,0,0,-1060170,30411409,0,3081061,31011819,0,0,0,41900909,3061171,12001419,0,0,3081030,0,0,0,2201010,31911819
5,136,962.39745800267,0,0,193174.437750598,193175.484808611,0,40,6,0,0,5,10,79852949,75224888,60513288,52321928,0,30901509,0,0,-4141150,2160170,0,1140011,41510109,11410209,0,0,10011519,0,30300519,1000141,21401309,1101191,1040180,4111200,4050170,41011419,0,0,0,10300319,0,0,0,0,20811719,0,31510209,0,0,0
5,137,612.362465064507,0,0,193177.543658748,193178.590723305,0,40,6,1,0,20,0,0,9261332,9372412,6261391,0,0,0,0,0,0,0,0,0,1020180,0,0,4170021,0,0,4071131,0,0,0,-3061181,0,0,4110101,0,2201130,0,0,0,0,0,4090201,2171190,0,0,0,0
5,138,1157.87139500026,1,0,193180.308423733,193181.355468657,0,40,6,0,1,36,0,10503193,6081360,3021041,2000081,0,1081001,0,1131051,0,4110030,4181111,0,0,4021190,0,0,0,0,2060170,0,0,0,0,0,0,0,0,0,0,0,3021041,0,0,0,0,0,0,0,0,-2000081
5,139,1281.87271000934,1,0,193183.661376345,193184.708440132,0,40,6,0,1,16,10,84482719,85735849,56906088,56914549,0,0,0,40111419,40311209,4060091,0,0,0,0,0,31810609,4200181,3111181,11101909,-4201050,31310919,0,3181150,21412009,0,1111101,10500719,0,0,20701109,0,0,20011209,0,4051201,0,0,30712019,0,2140120
5,140,1158.4730889881,1,0,193187.155534947,193188.202597195,0,40,6,1,1,29,10,135403865,16671523,126622977,25301229,31001219,11100019,0,0,0,41600509,40702009,11000109,0,2130161,4190021,0,0,3050030,0,4181191,0,3120120,0,4000021,30510119,40200909,0,10610919,0,0,41301009,0,-2090070,0,0,20111019,0,0,0,3100140
5,141,932.75392416399,1,0,193190.520317025,193191.567341546,0,40,6,0,1,2,10,109956898,7212060,47702319,137693736,0,-3110150,20801519,30110119,10301809,3071081,0,41511019,1051201,4161030,0,0,3051030,0,0,0,0,0,0,1110041,4190160,0,0,0,20601309,0,21800809,30010519,4071070,0,31201509,0,0,40910619,31500019,0
5,142,650.050528114662,1,0,193193.543839679,193194.590898847,0,40,6,1,1,15,5,45712071,10391393,67282190,76343548,0,0,3030011,0,0,0,41501009,1181051,0,0,3200201,0,0,0,-4180121,3011071,0,0,31900419,30211609,3160121,2010041,0,0,0,0,0,0,0,0,0,42001719,3030010,0,31311819,0
5,143,572.759606176987,0,0,193196.437990814,193197.485113115,0,40,6,0,0,21,5,40412019,61003279,9391451,39843808,0,0,0,0,0,0,40412019,0,0,0,1050050,0,3061010,10900319,41801719,4190181,0,0,3200171,0,-2130100,0,0,0,4061180,0,0,0,0,0,2070130,0,0,4061060,11911909,21800709
5,144,587.713029730367,0,0,193199.08510711,193200.132229411,0,40,6,0,0,10,20,77624808,146366556,101894986,220236495,2150131,0,0,21911609,0,0,31500519,21001519,1061030,-4060021,0,11401919,22001209,11410909,4060051,31310019,21011219,41111209,21301619,0,0,12000309,3080050,21300619,1190161,31110209,11912019,2000040,40601519,41600219,40600619,20910909,30011909,40310219,4201061,0
5,145,844.120512454538,0,0,193204.908673727,193205.955736744,0,40,7,0,0,34,10,117053278,1160011,117615857,92236400,0,0,0,40500909,40500409,4051051,32000909,0,0,0,0,0,1160011,0,0,0,0,0,1100191,3001100,0,30010119,0,40901519,0,11401319,31201609,2000151,0,4121100,40702019,3090051,10311209,-1000051,31011819,0
5,146,564.754727936815,1,0,193207.944020842,193208.991068846,0,40,7,1,1,20,0,0,9261332,9372412,6261391,0,0,0,0,0,0,0,0,0,1020180,0,0,4170021,0,0,4071131,0,0,0,-3061181,0,0,4110101,0,2201130,0,0,0,0,0,4090201,2171190,0,0,0,0
5,147,1299.60285700508,0,0,193210.579323841,193211.626390323,0,40,7,0,0,1,10,46613291,61593710,108262927,131174387,-2081201,0,4130071,0,0,40402019,0,0,0,3031181,0,0,0,4010030,30810619,3140171,20601709,0,0,41400819,0,0,21510209,41301719,0,0,4050180,31410909,31601119,0,3130191,31911119,2011040,0,0,31110009
5,148,1673.17975257174,1,0,193214.073485908,193215.120547386,0,40,7,1,1,31,20,129595344,125325230,141857457,163436624,12010119,0,31301309,21400609,0,31011309,21101619,11700209,1070170,0,4061021,1011051,41911409,0,4120050,4110171,40110309,30001219,3051141,21600619,0,41600319,3181031,41111119,0,20511909,10801319,32001309,11001919,0,-3100130,42000309,0,41810819,11611019,21911119
5,149,987.744057609234,0,0,193217.802940734,193218.850039168,0,40,7,0,0,2,0,10331321,2121191,6353463,4150100,0,-3140100,0,0,0,4040200,0,3151021,0,0,0,0,2121191,0,0,0,0,0,2171111,1111201,0,0,0,3071151,0,0,0,0,0,0,0,0,0,4150100,0,0
5,150,611.541728285374,1,1,193220.88532238,193221.932388477,0,40,7,0,0,10,0,8383300,6361202,6070081,2091040,0,2171150,0,0,0,0,0,2111080,4101070,-3180071,0,3181131,0,0,0,0,0,0,0,2020061,0,0,0,0,4050020,0,0,0,2091040,0,0,0,0,0,0,0
5,151,922.247954556951,1,0,193223.685355178,193224.732415501,0,40,7,1,1,27,0,4161211,7342373,1150011,4272062,0,0,0,1131151,0,0,3030060,0,0,1071141,0,0,3200161,3071071,0,0,0,0,0,0,0,0,0,0,0,0,-1150011,0,1161031,0,0,0,0,0,0,3111031
5,152,577.638216462219,0,0,193226.708965604,193227.755980116,0,40,7,0,0,21,5,59361940,58481460,7172340,15711900,31510719,0,3010140,3010161,1020011,0,20810909,0,0,0,0,0,21000219,0,30200219,0,4131001,3150021,4151160,0,-3021180,0,0,0,0,0,0,0,4000081,0,0,11711819,0,0,0,0
5,153,499.796030402649,0,0,193229.520708145,193230.567797725,0,40,7,1,0,14,5,33902420,24020700,36103049,41892971,0,1071061,0,0,0,31811319,1020040,0,0,0,0,0,0,-3020091,0,0,0,21000609,0,20410309,0,0,0,3011120,2170001,0,10511619,0,4061111,4140071,0,0,0,0,3181080,30510709
5,154,964.818862441462,1,0,193232.226627228,193233.273755689,0,40,7,1,1,19,0,4161031,4140150,9154343,6201282,0,0,0,0,4161031,0,0,0,0,0,0,0,0,0,0,4140150,0,0,-2061091,3011150,0,0,0,3011061,0,1071041,0,0,0,0,0,0,4080081,0,2121201,0
5,155,733.146276383195,1,0,193235.34430171,193236.391372426,0,40,7,0,1,9,5,48592849,29041251,12511370,64101459,0,1090110,0,0,0,41310519,0,4071170,-2121050,0,3000000,20801009,4120121,0,1120121,0,0,0,0,0,0,0,2101061,0,0,10410309,0,0,3090141,0,0,0,40010009,0,21001309,0
5,156,1473.30571181374,1,0,193238.297293357,193239.34435214,0,40,7,0,1,5,20,145163847,131398256,116982907,233167693,4200190,41910509,41301619,0,-4010201,40101109,2030010,0,11610209,1181140,0,2080110,21611009,21400009,40201819,31311519,11411509,2201141,30510209,31610009,0,0,30910409,0,20811219,3141061,0,0,20700709,31611209,4050100,41901319,21800509,40401409,41001419,31701019
5,157,972.852612758288,1,0,193241.979674002,193243.026790528,0,40,7,1,1,17,20,126945538,160396937,155657303,182085166,40911209,30100709,20511609,0,30300819,0,4060011,1061181,0,0,42010019,41702019,31001509,4171150,3010130,31300909,-4051010,3150191,0,10411319,11310119,20610719,0,30101019,30311109,31712009,21201009,3180180,31100409,40911409,3080121,40800719,21711409,0,0,41300919
5,158,857.237287302269,1,0,193245.156189766,193246.203247009,0,40,7,1,1,11,5,35842939,5062122,43361949,55113449,1050111,0,0,3190200,0,0,0,10801509,20801119,0,-1001081,0,0,0,0,0,0,4061041,0,0,0,0,40300809,0,3061140,0,0,0,0,4201121,0,0,31810809,10910409,4021060,4170050
5,159,1428.42619301518,0,0,193248.168009992,193249.215048757,0,40,7,0,0,36,20,154477305,197545993,145835795,106904479,0,11812019,4100000,41101219,20311609,42010509,4040140,31101809,0,0,41611009,30810319,11210509,10111919,42001309,0,20100619,41700309,2010130,0,41800709,30512019,0,31311009,20000709,20201219,0,0,2170031,3060170,3001160,41410509,40001519,1080040,12010919,-4170131
5,160,734.474391705589,0,0,193251.67390028,193252.720964452,0,40,7,1,0,32,10,70433709,71812328,138727107,47852709,0,3100131,31701309,0,30501109,0,2021100,0,3110060,0,0,0,31200719,40611609,0,0,0,0,30210209,0,41201519,0,1121021,2031030,41611409,2050000,20501919,11511119,2181010,0,0,-4050071,0,0,0,30110509
5,161,1215.62670302228,0,0,193254.579815821,193255.626884613,0,40,7,0,0,25,20,154097097,105555616,170137455,153314498,4070201,41611619,1031091,11210419,2051121,11710909,40100609,21410519,20900609,0,0,0,1131150,30801319,11101819,0,41511009,21010319,20201809,0,0,11911019,21800409,41200019,-2001171,41711709,31311319,0,20311109,41710209,0,4091121,1081111,41110709,3100020,41910219
5,162,1105.96518381499,1,0,193257.956325349,193259.003379513,0,40,7,1,1,29,10,135403865,16671523,126622977,25301229,31001219,11100019,0,0,0,41600509,40702009,11000109,0,2130161,4190021,0,0,3050030,0,4181191,0,3120120,0,4000021,30510119,40200909,0,10610919,0,0,41301009,0,-2090070,0,0,20111019,0,0,0,3100140
5,163,1435.1456866134,1,0,193261.121068238,193262.168124711,0,40,7,1,1,24,20,113604636,178595315,105714556,120475225,1150100,0,1131180,30201819,40010909,0,0,10010209,31100419,0,4171031,41300809,31000619,31101219,10110819,20710709,40200109,0,10811019,2060190,0,41600919,21610909,-1151130,3040180,21310109,4130100,41410619,21700709,11200609,11110719,11511209,0,3140051,0,20401309
5,164,503.873151959851,1,0,193264.650515441,193265.697579229,0,40,7,0,1,16,5,5031201,45082330,87121540,32643468,0,0,0,3010191,2021010,0,0,0,0,1071190,0,2100101,0,40910009,0,-1001030,0,0,4051181,0,0,0,40200119,40700109,0,0,2170131,0,21201809,0,10410519,0,0,0,0,1031140
5,165,1975.72557639796,0,0,193267.309424247,193268.356435294,0,40,7,1,0,18,10,112813189,32871808,109466369,49195278,4090141,0,40500519,3020051,3080050,0,30810609,0,31311819,0,20311219,0,0,0,11500419,0,0,-1060170,30411409,0,3081061,31011819,0,0,0,41900909,3061171,12001419,0,0,3081030,0,0,0,2201010,31911819
5,166,978.978496510535,1,0,193271.474122864,193272.521188192,0,40,7,0,1,8,0,6440291,2060031,7023311,1050090,0,0,0,4200061,0,0,1090050,-1150180,0,2060031,0,0,0,0,0,0,0,0,0,1021070,2001120,0,0,0,0,0,4001121,1050090,0,0,0,0,0,0,0,0
5,167,546.477936411975,0,0,193274.650625925,193275.697689713,0,40,7,1,0,15,5,45712071,10391393,67282190,76343548,0,0,3030011,0,0,0,41501009,1181051,0,0,3200201,0,0,0,-4180121,3011071,0,0,31900419,30211609,3160121,2010041,0,0,0,0,0,0,0,0,0,42001719,3030010,0,31311819,0
5,168,1175.63926815637,1,0,193277.262459779,193278.309486225,0,40,7,0,1,30,10,58803819,85836007,33124647,34272532,0,0,31910019,10211309,2111121,0,10401219,0,4170151,0,31200409,0,11101409,0,1011120,41412019,0,1111050,0,11211919,0,0,0,10111209,11801519,0,0,0,2071161,-3190111,0,0,0,20810909,4140201,4060150
5,169,657.885253574932,0,0,193283.580128409,193284.627203361,0,40,8,0,0,9,0,1080001,7302282,2141171,5241371,0,0,0,0,0,0,0,0,-1080001,2171141,4001021,0,1130120,0,0,0,0,0,0,0,0,0,0,0,2141171,0,0,2121050,0,0,2120141,0,0,0,1000180,0
5,170,1094.15650632582,0,0,193286.344872607,193287.391940244,0,40,8,1,0,24,20,113604636,178595315,105714556,120475225,1150100,0,1131180,30201819,40010909,0,0,10010209,31100419,0,4171031,41300809,31000619,31101219,10110819,20710709,40200109,0,10811019,2060190,0,41600919,21610909,-1151130,3040180,21310109,4130100,41410619,21700709,11200609,11110719,11511209,0,3140051,0,20401309
5,171,1682.86421545781,1,0,193289.686091224,193290.733150391,0,40,8,1,1,27,0,4161211,7342373,1150011,4272062,0,0,0,1131151,0,0,3030060,0,0,1071141,0,0,3200161,3071071,0,0,0,0,0,0,0,0,0,0,0,0,-1150011,0,1161031,0,0,0,0,0,0,3111031
5,172,1583.30753652263,1,0,193293.615546743,193294.66260976,0,40,8,0,1,2,5,42213081,63702509,7201420,43082359,0,-4150141,4171120,0,3081111,0,0,30810709,0,0,0,0,0,40900809,2000191,20801509,0,0,3061170,0,0,0,0,0,2080080,0,2060170,11910109,0,0,0,0,0,1171031,0,30001219
5,173,885.600440989947,0,0,193297.380295944,193298.427363581,0,40,8,1,0,15,5,45712071,10391393,67282190,76343548,0,0,3030011,0,0,0,41501009,1181051,0,0,3200201,0,0,0,-4180121,3011071,0,0,31900419,30211609,3160121,2010041,0,0,0,0,0,0,0,0,0,42001719,3030010,0,31311819,0
5,174,575.55788740865,0,0,193300.333271423,193301.380331746,0,40,8,1,0,14,5,33902420,24020700,36103049,41892971,0,1071061,0,0,0,31811319,1020040,0,0,0,0,0,0,-3020091,0,0,0,21000609,0,20410309,0,0,0,3011120,2170001,0,10511619,0,4061111,4140071,0,0,0,0,3181080,30510709
5,175,1391.96538552642,0,0,193303.156830341,193304.203888354,0,40,8,0,0,36,10,118223888,34621948,44811908,72719169,41001519,1071021,31210109,0,0,0,0,3131120,41810119,0,11100309,0,3111130,20410509,0,0,0,0,0,0,3001180,0,21200509,0,0,0,20610219,0,2081131,11611019,21302019,1061201,0,4201180,31411509,-1051110
5,176,737.020138505613,1,0,193306.651038603,193307.698053116,0,40,8,1,1,20,0,0,9261332,9372412,6261391,0,0,0,0,0,0,0,0,0,1020180,0,0,4170021,0,0,4071131,0,0,0,-3061181,0,0,4110101,0,2201130,0,0,0,0,0,4090201,2171190,0,0,0,0
5,177,1275.46041528694,1,0,193309.639251869,193310.686317581,0,40,8,1,1,32,10,70433709,71812328,138727107,47852709,0,3100131,31701309,0,30501109,0,2021100,0,3110060,0,0,0,31200719,40611609,0,0,0,0,30210209,0,41201519,0,1121021,2031030,41611409,2050000,20501919,11511119,2181010,0,0,-4050071,0,0,0,30110509
5,178,697.27753882762,1,0,193312.980468176,193314.027527729,0,40,8,0,1,10,20,126626493,132374306,110246678,114993016,0,11201519,21800719,11310109,10000509,20201619,31711109,20400909,0,-4191201,20710809,2140170,20800319,0,10410109,30410509,3001170,40710019,31601809,10501309,30411509,0,4050061,2181080,1090201,0,30410709,4070120,0,32001209,4010060,41900609,21300209,11710809,0,0
5,179,1261.75888476428,0,0,193315.909960266,193316.956977473,0,40,8,0,0,25,10,26080161,88285778,77914137,62553948,0,0,4000151,20000009,0,0,2080001,0,0,31801719,31801519,0,0,21611509,3071031,0,0,0,2121160,0,0,11600009,21201709,0,-1081050,0,41910209,0,0,20510319,0,21001619,3201151,4160120,2180030,11500709
5,180,864.935351652093,1,0,193319.32171605,193320.368770213,0,40,8,0,1,21,20,135116793,200758685,57946499,141856208,0,0,10111819,10501009,41300309,20401519,20801209,21900519,10100409,3121160,40210819,0,4091151,11111709,20501609,40811909,40700109,40210219,10911819,21301409,-2050110,0,21301909,0,1200081,0,1181171,20611919,40410919,30901819,4130031,40610319,3050091,0,2141110,0
5,181,1422.85388312303,1,0,193322.3099809,193323.357047767,0,40,8,1,1,18,10,112813189,32871808,109466369,49195278,4090141,0,40500519,3020051,3080050,0,30810609,0,31311819,0,20311219,0,0,0,11500419,0,0,-1060170,30411409,0,3081061,31011819,0,0,0,41900909,3061171,12001419,0,0,3081030,0,0,0,2201010,31911819
5,182,1470.95475520473,0,0,193325.815905449,193326.862967312,0,40,8,0,0,1,0,4022101,2021151,7090330,8301302,-1001071,0,0,3021030,0,0,0,0,0,0,0,0,2021151,0,0,0,0,0,0,4040200,0,0,0,0,3050130,0,0,0,2011141,0,0,4170061,0,0,0,2120100
5,183,1431.48932739859,0,0,193329.498296488,193330.54535989,0,40,8,1,0,11,5,35842939,5062122,43361949,55113449,1050111,0,0,3190200,0,0,0,10801509,20801119,0,-1001081,0,0,0,0,0,0,4061041,0,0,0,0,40300809,0,3061140,0,0,0,0,4201121,0,0,31810809,10910409,4021060,4170050
5,184,1362.98590933438,1,0,193333.039516183,193334.086574966,0,40,8,1,1,31,20,129595344,125325230,141857457,163436624,12010119,0,31301309,21400609,0,31011309,21101619,11700209,1070170,0,4061021,1011051,41911409,0,4120050,4110171,40110309,30001219,3051141,21600619,0,41600319,3181031,41111119,0,20511909,10801319,32001309,11001919,0,-3100130,42000309,0,41810819,11611019,21911119
5,185,850.908144115238,0,0,193336.627795431,193337.674866532,0,40,8,0,0,30,10,56293579,53432668,143547368,57415510,0,0,0,0,40000919,0,10010519,4091061,2191080,10600819,0,0,0,0,41700819,1131030,0,0,0,3091091,2020081,41501309,0,31811509,31801319,2111150,31210909,3171151,22001719,-2141131,0,0,30101509,0,0,0
5,186,1526.01456659613,1,0,193339.651355426,193340.698451165,0,40,8,0,1,5,5,47503210,9403280,88604539,45822449,0,0,0,0,-4051121,0,41412009,0,2040080,0,0,4161130,0,4161090,0,0,0,1081060,41410709,0,0,0,41911719,3201071,2081040,0,0,0,20710919,0,4200011,0,0,20911519,0,0
5,187,859.594018285861,1,0,193343.380807173,193344.42787096,0,40,8,1,1,17,20,126945538,160396937,155657303,182085166,40911209,30100709,20511609,0,30300819,0,4060011,1061181,0,0,42010019,41702019,31001509,4171150,3010130,31300909,-4051010,3150191,0,10411319,11310119,20610719,0,30101019,30311109,31712009,21201009,3180180,31100409,40911409,3080121,40800719,21711409,0,0,41300919
5,188,1515.95592164085,0,0,193346.404364474,193347.451434035,0,40,8,0,0,8,20,98304389,208334803,162687916,93066565,0,0,0,41300619,21701219,0,31101419,-1180121,3021011,30200519,0,30610309,31900819,40810619,21701819,21400309,0,31710409,41411019,2161141,0,1021060,2180120,31201119,42000319,21501219,21211919,31010419,0,20002019,11701109,10300209,2151170,2180150,4111080,11610409
5,189,793.793026183266,0,0,193350.145618353,193351.192655193,0,40,8,1,0,19,0,4161031,4140150,9154343,6201282,0,0,0,0,4161031,0,0,0,0,0,0,0,0,0,0,4140150,0,0,-2061091,3011150,0,0,0,3011061,0,1071041,0,0,0,0,0,0,4080081,0,2121201,0
5,190,671.504402474966,0,0,193353.075030371,193354.122096853,0,40,8,0,0,16,0,3040111,12372413,3162201,6200030,0,0,0,0,0,3040111,0,0,0,0,0,0,0,4090101,0,-4151131,4131181,0,1061081,0,0,0,0,2101120,0,0,0,4200000,2000030,0,0,0,0,0,0,0
5,191,695.364282815717,1,0,193355.969181121,193357.016247988,0,40,8,0,1,34,5,1040151,7331333,57365039,35265119,0,1040151,0,0,0,0,0,0,0,0,0,0,0,3120081,0,3080151,0,1131101,11102009,30501609,3040191,0,0,10711109,0,2010121,0,0,11101909,0,0,2180041,0,-1071150,0,20912019
5,192,1153.82314551971,1,0,193358.910388343,193359.9574529,0,40,8,1,1,29,10,135403865,16671523,126622977,25301229,31001219,11100019,0,0,0,41600509,40702009,11000109,0,2130161,4190021,0,0,3050030,0,4181191,0,3120120,0,4000021,30510119,40200909,0,10610919,0,0,41301009,0,-2090070,0,0,20111019,0,0,0,3100140
5,193,946.381542162271,1,0,193366.79282781,193367.839896216,0,40,9,1,1,32,10,70433709,71812328,138727107,47852709,0,3100131,31701309,0,30501109,0,2021100,0,3110060,0,0,0,31200719,40611609,0,0,0,0,30210209,0,41201519,0,1121021,2031030,41611409,2050000,20501919,11511119,2181010,0,0,-4050071,0,0,0,30110509
5,194,765.254715253832,1,0,193369.792863226,193370.839927398,0,40,9,1,1,20,0,0,9261332,9372412,6261391,0,0,0,0,0,0,0,0,0,1020180,0,0,4170021,0,0,4071131,0,0,0,-3061181,0,0,4110101,0,2201130,0,0,0,0,0,4090201,2171190,0,0,0,0
5,195,1508.37488542311,1,0,193372.651718829,193373.698785696,0,40,9,1,1,31,20,129595344,125325230,141857457,163436624,12010119,0,31301309,21400609,0,31011309,21101619,11700209,1070170,0,4061021,1011051,41911409,0,4120050,4110171,40110309,30001219,3051141,21600619,0,41600319,3181031,41111119,0,20511909,10801319,32001309,11001919,0,-3100130,42000309,0,41810819,11611019,21911119
5,196,1511.72943526763,0,0,193376.310584904,193377.357651001,0,40,9,1,0,24,20,113604636,178595315,105714556,120475225,1150100,0,1131180,30201819,40010909,0,0,10010209,31100419,0,4171031,41300809,31000619,31101219,10110819,20710709,40200109,0,10811019,2060190,0,41600919,21610909,-1151130,3040180,21310109,4130100,41410619,21700709,11200609,11110719,11511209,0,3140051,0,20401309
5,197,771.230849233689,0,0,193380.051804907,193381.098865999,0,40,9,0,0,8,20,149985318,48244240,181997534,186227384,21500909,2151191,40301209,30601609,20710119,30510109,0,-3130021,1080151,10400619,0,3111171,0,2181030,1000021,30510209,0,1041190,21111819,0,20600219,11211019,41400409,40900719,21201119,21501119,4071111,10101119,0,21611509,41001309,41702009,0,0,41600119,30211319
5,198,1323.16400765558,0,0,193383.051837628,193384.098896796,0,40,9,1,0,29,10,135403865,16671523,126622977,25301229,31001219,11100019,0,0,0,41600509,40702009,11000109,0,2130161,4190021,0,0,3050030,0,4181191,0,3120120,0,4000021,30510119,40200909,0,10610919,0,0,41301009,0,-2090070,0,0,20111019,0,0,0,3100140
5,199,580.595101579092,0,0,193386.47540209,193387.522468187,0,40,9,0,0,16,5,57931649,8203311,3061031,99644587,1071131,0,0,11600309,4050000,41210209,0,0,0,3031040,0,3141120,0,0,0,-2031151,0,0,0,0,0,0,0,0,0,3061031,0,0,4110090,3111050,21301909,0,0,30610219,0,40511319
5,200,1441.96296026348,1,0,193389.146024102,193390.193087889,0,40,9,1,1,11,5,35842939,5062122,43361949,55113449,1050111,0,0,3190200,0,0,0,10801509,20801119,0,-1001081,0,0,0,0,0,0,4061041,0,0,0,0,40300809,0,3061140,0,0,0,0,4201121,0,0,31810809,10910409,4021060,4170050
5,201,1115.45678123366,1,0,193392.828417835,193393.875477773,0,40,9,1,1,17,20,126945538,160396937,155657303,182085166,40911209,30100709,20511609,0,30300819,0,4060011,1061181,0,0,42010019,41702019,31001509,4171150,3010130,31300909,-4051010,3150191,0,10411319,11310119,20610719,0,30101019,30311109,31712009,21201009,3180180,31100409,40911409,3080121,40800719,21711409,0,0,41300919
5,202,1396.95255475817,0,0,193396.004924746,193397.051983529,0,40,9,1,0,18,10,112813189,32871808,109466369,49195278,4090141,0,40500519,3020051,3080050,0,30810609,0,31311819,0,20311219,0,0,0,11500419,0,0,-1060170,30411409,0,3081061,31011819,0,0,0,41900909,3061171,12001419,0,0,3081030,0,0,0,2201010,31911819
5,203,625.662096339511,0,0,193399.640251612,193400.687318094,0,40,9,0,0,10,5,77143828,7271352,1180010,57344899,2111160,0,20600519,0,30000509,21300519,0,0,3131121,-2001161,0,0,0,4130120,0,0,1140071,0,0,0,0,0,0,0,0,1180010,0,10311419,0,4001180,0,2021181,0,0,0,41011119
5,204,992.005575448275,0,0,193402.510880862,193403.55793926,0,40,9,1,0,19,0,4161031,4140150,9154343,6201282,0,0,0,0,4161031,0,0,0,0,0,0,0,0,0,0,4140150,0,0,-2061091,3011150,0,0,0,3011061,0,1071041,0,0,0,0,0,0,4080081,0,2121201,0
5,205,1298.67240635213,1,0,193405.746214812,193406.793273979,0,40,9,0,1,5,0,7421203,5232101,0,9131371,0,0,2201021,0,-4100001,0,0,0,1120181,0,0,4171001,0,0,0,0,0,1061100,0,0,0,0,0,0,0,0,0,0,3000181,4130150,0,0,0,0,2001040,0
5,206,1356.30799154751,0,0,193409.287420648,193410.33449021,0,40,9,0,0,36,0,9211402,3222100,3050180,5181172,3110171,0,0,3031101,0,3070130,0,0,0,1191020,0,0,0,0,2031080,0,0,0,0,0,0,3050180,0,0,0,0,0,0,0,0,0,1121131,0,0,0,-4060041
5,207,1058.70237172348,0,0,193412.805104215,193413.852173776,0,40,9,0,0,25,10,64783179,74532699,82594619,74714458,0,30311219,0,1090170,3181171,0,0,30200619,0,0,0,2011161,0,0,40510719,32010819,0,0,2161141,0,0,12010809,3061140,40500519,-4060191,20800819,0,0,30810209,30011619,0,0,1150060,0,11611419,1131151
5,208,666.975721745985,1,0,193416.016957471,193417.063976987,0,40,9,0,1,1,0,10321260,2050010,2041041,9361421,-4001000,2170180,0,0,0,0,0,0,4150080,0,0,0,0,0,0,0,0,2050010,0,0,0,0,2041041,0,0,0,0,0,3180180,0,0,2041091,0,4140150,0,0
5,209,1101.23786318582,1,0,193418.934590453,193419.981655011,0,40,9,1,1,27,0,4161211,7342373,1150011,4272062,0,0,0,1131151,0,0,3030060,0,0,1071141,0,0,3200161,3071071,0,0,0,0,0,0,0,0,0,0,0,0,-1150011,0,1161031,0,0,0,0,0,0,3111031
5,210,775.875018269289,0,0,193422.275805221,193423.322891336,0,40,9,0,0,34,10,55911710,12472990,124046575,63724670,1200011,0,1190071,0,0,31811119,21710509,0,0,1031080,1041201,0,0,0,0,0,0,10400709,0,0,0,0,31311419,11911109,20310409,40211619,20302019,0,4001120,3050071,0,41500909,10001319,-1080091,4091160,0
5,211,573.757424979704,1,0,193425.228767611,193426.275860655,0,40,9,1,1,14,5,33902420,24020700,36103049,41892971,0,1071061,0,0,0,31811319,1020040,0,0,0,0,0,0,-3020091,0,0,0,21000609,0,20410309,0,0,0,3011120,2170001,0,10511619,0,4061111,4140071,0,0,0,0,3181080,30510709
5,212,725.459375913488,0,0,193428.052334613,193429.099406869,0,40,9,0,0,21,10,94911668,47342520,85103997,41472921,21710319,40910119,0,1181011,0,0,0,0,31110219,0,0,20400709,0,0,21600619,0,2190061,3151131,30600919,1111141,-1180200,0,20400819,0,0,11710809,20100109,0,0,3191201,31010519,0,0,0,4111171,3160030
5,213,757.099317270331,1,0,193430.946486132,193431.993548765,0,40,9,0,1,2,20,122585416,157637693,103157568,109254437,3190000,-1011090,41210419,0,21011409,20700209,20600809,11711309,3150171,0,41010719,20711219,0,11501609,20311209,21801419,20801209,21500309,11701919,0,41102009,2071011,3031121,3130180,11710709,30410619,0,0,40211309,12011009,31510919,0,0,1071061,4140030,20310109
5,214,1336.08483735588,0,0,193433.852399363,193434.899463151,0,40,9,0,0,30,5,50302438,7210112,48164567,13514321,0,0,0,0,10102019,0,0,0,40200419,0,4010081,3200031,0,0,0,0,0,0,0,4140110,21511319,10611319,0,0,0,11901819,0,3130060,0,-2051070,4031120,0,1151001,0,3151070,0
5,215,634.452294907533,1,0,193437.311267055,193438.358335077,0,40,9,1,1,15,5,45712071,10391393,67282190,76343548,0,0,3030011,0,0,0,41501009,1181051,0,0,3200201,0,0,0,-4180121,3011071,0,0,31900419,30211609,3160121,2010041,0,0,0,0,0,0,0,0,0,42001719,3030010,0,31311819,0
5,216,441.815135243814,0,0,193440.14658422,193441.193711141,0,40,9,0,0,9,20,128227387,97434246,223505865,187547667,30601719,30910619,0,0,41212019,20311719,1181160,0,-4010151,22011619,20611009,31110709,0,0,0,0,2190000,21510909,1100051,11800509,32000419,30810419,41711809,31601309,2170131,31610009,40701209,1070121,30600919,31101709,41311709,41211609,0,1140190,1011101,40100309
5,217,941.993757121963,0,0,193446.699601044,193447.746670605,0,40,10,1,0,29,10,135403865,16671523,126622977,25301229,31001219,11100019,0,0,0,41600509,40702009,11000109,0,2130161,4190021,0,0,3050030,0,4181191,0,3120120,0,4000021,30510119,40200909,0,10610919,0,0,41301009,0,-2090070,0,0,20111019,0,0,0,3100140
5,218,982.390405522892,0,0,193449.781996548,193450.829053021,0,40,10,1,0,19,0,4161031,4140150,9154343,6201282,0,0,0,0,4161031,0,0,0,0,0,0,0,0,0,0,4140150,0,0,-2061091,3011150,0,0,0,3011061,0,1071041,0,0,0,0,0,0,4080081,0,2121201,0
5,219,772.947005170863,0,0,193452.864379349,193453.911441596,0,40,10,0,0,5,0,6291431,3111282,8180131,4061111,1041180,0,0,2110151,-3140100,0,0,0,0,0,0,0,0,1101151,2010131,0,0,0,4110080,0,0,0,4070051,0,0,0,0,4061111,0,0,0,0,0,0,0,0
5,220,1373.71592619456,1,0,193455.8055935,193456.852686544,0,40,10,1,1,32,10,70433709,71812328,138727107,47852709,0,3100131,31701309,0,30501109,0,2021100,0,3110060,0,0,0,31200719,40611609,0,0,0,0,30210209,0,41201519,0,1121021,2031030,41611409,2050000,20501919,11511119,2181010,0,0,-4050071,0,0,0,30110509
5,221,1679.89347170806,0,0,193459.358576832,193460.405651783,0,40,10,1,0,11,5,35842939,5062122,43361949,55113449,1050111,0,0,3190200,0,0,0,10801509,20801119,0,-1001081,0,0,0,0,0,0,4061041,0,0,0,0,40300809,0,3061140,0,0,0,0,4201121,0,0,31810809,10910409,4021060,4170050
5,222,881.64034759393,1,0,193463.146844839,193464.193914785,0,40,10,0,1,9,20,181079234,78386777,150184558,106106387,20600819,11300419,41900319,0,20011909,31911309,30701719,20511609,-4141131,21301219,1061200,20210319,20211319,11601519,0,0,0,4001201,31111219,30311109,1200041,11401309,1110061,41310109,31700519,0,2040191,41001319,10211619,0,40811619,0,0,1020101,2161020,10900709
5,223,586.03036540444,1,0,193466.182175016,193467.229226484,0,40,10,1,1,15,5,45712071,10391393,67282190,76343548,0,0,3030011,0,0,0,41501009,1181051,0,0,3200201,0,0,0,-4180121,3011071,0,0,31900419,30211609,3160121,2010041,0,0,0,0,0,0,0,0,0,42001719,3030010,0,31311819,0
5,224,960.617783479393,0,0,193468.911621758,193469.95868285,0,40,10,0,0,10,5,3102142,47250650,35801430,48152659,1101091,0,2001051,0,0,0,0,0,0,-3120070,0,0,42000409,0,2130171,0,0,0,0,10110209,4010131,0,0,0,0,1170071,20511019,3001021,0,31810119,0,0,11310519,0,0,2031000
5,225,1057.64449902927,1,0,193472.017536837,193473.06459639,0,40,10,0,1,25,10,74903128,44682139,70134888,93596168,0,0,0,0,0,41300119,3101000,0,30502009,0,31301309,0,0,0,0,0,2080011,11300819,20301909,0,21000919,0,0,4190160,-3130081,0,21511819,0,1170200,0,31410909,4190151,2121080,31101609,20501119,3101100
5,226,1126.1305938533,0,0,193475.299925335,193476.346990277,0,40,10,0,0,34,20,134137364,139804186,115995408,122085886,10910519,31600519,11801619,3201051,12011019,42010409,0,10900609,11701619,0,30601019,22011009,3190111,0,30900709,21300719,0,31800619,20500709,0,0,42000819,0,4101011,4011110,41311609,4070150,10510209,11001809,0,30510409,41900419,3071020,-2021051,1160150,21910819
5,227,1138.42085746001,1,0,193478.652903739,193479.699969836,0,40,10,1,1,17,20,126945538,160396937,155657303,182085166,40911209,30100709,20511609,0,30300819,0,4060011,1061181,0,0,42010019,41702019,31001509,4171150,3010130,31300909,-4051010,3150191,0,10411319,11310119,20610719,0,30101019,30311109,31712009,21201009,3180180,31100409,40911409,3080121,40800719,21711409,0,0,41300919
5,228,611.423930240562,1,0,193482.017642701,193483.064708028,0,40,10,0,1,16,0,1181190,9452431,6331111,1001161,0,0,0,0,0,0,0,1181190,0,0,0,0,1191170,3020141,0,-1170000,0,4071120,3191010,3140101,0,0,0,0,0,0,0,0,1001161,0,0,0,0,0,0,0
5,229,546.069492847892,1,0,193484.794142451,193485.841263598,0,40,10,1,1,14,5,33902420,24020700,36103049,41892971,0,1071061,0,0,0,31811319,1020040,0,0,0,0,0,0,-3020091,0,0,0,21000609,0,20410309,0,0,0,3011120,2170001,0,10511619,0,4061111,4140071,0,0,0,0,3181080,30510709
5,230,742.444623436313,0,0,193487.523581109,193488.57065452,0,40,10,0,0,36,10,20974010,74732568,68083108,138803058,0,4041090,4101030,0,0,2121171,0,10710719,0,0,21110519,0,0,0,0,1021031,21100409,31500609,2061020,4021160,0,0,31900209,0,30100719,0,0,0,0,4191151,40400019,40510309,11200909,0,41500609,-1000061
5,231,1500.15712378081,1,0,193490.40597746,193491.453035473,0,40,10,1,1,27,0,4161211,7342373,1150011,4272062,0,0,0,1131151,0,0,3030060,0,0,1071141,0,0,3200161,3071071,0,0,0,0,0,0,0,0,0,0,0,0,-1150011,0,1161031,0,0,0,0,0,0,3111031
5,232,1135.89281882741,0,0,193494.147197848,193495.194303596,0,40,10,0,0,1,10,68821840,74301008,67840560,95271817,-1160131,41400119,2031051,0,1010130,0,1110081,10410009,11700319,2090070,0,41310619,0,0,0,0,30900319,0,0,3200061,41510319,1120071,0,22010109,0,0,0,0,11510919,41210319,0,0,0,41500519,1050060,0
5,233,1083.02189546521,1,0,193497.511939504,193498.559001752,0,40,10,1,1,18,10,112813189,32871808,109466369,49195278,4090141,0,40500519,3020051,3080050,0,30810609,0,31311819,0,20311219,0,0,0,11500419,0,0,-1060170,30411409,0,3081061,31011819,0,0,0,41900909,3061171,12001419,0,0,3081030,0,0,0,2201010,31911819
5,234,1256.91376609029,0,0,193500.65314665,193501.700242774,0,40,10,1,0,31,20,129595344,125325230,141857457,163436624,12010119,0,31301309,21400609,0,31011309,21101619,11700209,1070170,0,4061021,1011051,41911409,0,4120050,4110171,40110309,30001219,3051141,21600619,0,41600319,3181031,41111119,0,20511909,10801319,32001309,11001919,0,-3100130,42000309,0,41810819,11611019,21911119
5,235,1000.33266597893,0,0,193504.029656948,193505.07672112,0,40,10,1,0,24,20,113604636,178595315,105714556,120475225,1150100,0,1131180,30201819,40010909,0,0,10010209,31100419,0,4171031,41300809,31000619,31101219,10110819,20710709,40200109,0,10811019,2060190,0,41600919,21610909,-1151130,3040180,21310109,4130100,41410619,21700709,11200609,11110719,11511209,0,3140051,0,20401309
5,236,1111.61949040252,1,0,193507.253224181,193508.300287968,0,40,10,0,1,2,5,75513968,8102251,47252261,64313078,41111409,-1180000,0,0,0,2021050,0,0,31201509,1001130,0,0,0,0,0,0,4080081,3021040,3201031,0,40011219,0,0,4040011,0,0,0,0,0,1201140,31901319,0,0,0,31210619,0
5,237,725.691507366719,1,0,193510.453269529,193511.500319843,0,40,10,0,1,21,20,138166086,146054876,174586676,157547486,41600809,20600719,21012019,2120131,10901019,0,40900309,1031080,0,1050200,10211319,11300009,40811719,0,1180011,0,40900309,40601309,0,21610609,-4121110,30701819,40810909,4131041,41810109,1201060,30200019,42001419,0,31311819,21111309,0,21000609,0,1011111,41111219
5,238,566.116334870458,0,0,193513.335642783,193514.38270888,0,40,10,0,0,8,5,38802449,45623368,25911830,2041180,2121021,11110819,0,0,0,1050130,0,-3010170,21510309,0,2011050,31811409,0,0,0,0,0,11800909,0,0,0,2000021,20810619,1021040,0,2080150,0,0,0,0,0,0,0,0,0,2041180
5,239,938.450576446485,0,0,193515.994491534,193517.041561096,0,40,10,0,0,30,0,2110050,6281192,3342301,7323261,2110050,0,0,0,0,0,0,0,0,0,0,3130111,0,0,3151081,0,0,0,0,0,1161190,0,0,0,0,2181111,0,0,0,-2181091,0,0,0,1131120,0,4011050
5,240,544.348717317916,1,0,193519.006291742,193520.053358609,0,40,10,1,1,20,0,0,9261332,9372412,6261391,0,0,0,0,0,0,0,0,0,1020180,0,0,4170021,0,0,4071131,0,0,0,-3061181,0,0,4110101,0,2201130,0,0,0,0,0,4090201,2171190,0,0,0,0
5,241,1209.25675399485,0,0,193525.747536768,193526.794609409,0,40,11,0,0,8,0,3151170,3130171,7242451,4372092,0,0,0,0,2121080,0,0,-1030090,0,0,0,0,3130171,0,0,0,0,0,0,0,2061151,0,0,0,2160130,0,3021170,0,0,0,0,0,0,0,2181011,2191081
5,242,595.692885515746,0,0,193529.182880649,193530.229944822,0,40,11,1,0,15,5,45712071,10391393,67282190,76343548,0,0,3030011,0,0,0,41501009,1181051,0,0,3200201,0,0,0,-4180121,3011071,0,0,31900419,30211609,3160121,2010041,0,0,0,0,0,0,0,0,0,42001719,3030010,0,31311819,0
5,243,724.646723305341,1,0,193531.924079864,193532.971146731,0,40,11,0,1,9,20,121924197,118673607,121737426,167846294,31011709,0,21600409,41910419,1050171,2160100,0,21010319,-3181070,0,20500209,0,40400119,3181130,20701109,2080121,0,31810919,30001909,21410109,0,21201719,0,20800409,4131141,4190120,20002019,20000509,0,30011019,30400709,31601019,20600319,21301019,2121181,11810519
5,244,980.514875729568,0,0,193534.82999733,193535.877063812,0,40,11,1,0,20,0,0,9261332,9372412,6261391,0,0,0,0,0,0,0,0,0,1020180,0,0,4170021,0,0,4071131,0,0,0,-3061181,0,0,4110101,0,2201130,0,0,0,0,0,4090201,2171190,0,0,0,0
5,245,955.614445876563,1,0,193537.888856706,193538.935920494,0,40,11,0,1,5,5,80091849,47183339,9100340,42471809,0,41811119,0,31010309,-3040150,1140091,3090180,0,0,21501509,0,21610709,0,0,4071121,0,0,0,3040150,0,0,3030150,3030040,0,0,0,0,0,2071190,0,0,0,0,40400619,0,0
5,246,963.879557704786,0,0,193540.947719547,193541.994783719,0,40,11,0,0,34,10,27541509,117194508,98144226,57855531,4180200,0,0,0,3150200,0,20211109,0,0,40500909,31811219,0,0,0,0,0,41701219,3181161,3130070,21000719,0,0,0,31301009,1101100,10310409,31300919,30701619,0,0,20800719,3151021,0,-1151061,2051111,0
5,247,913.231013983022,1,0,193544.112453196,193545.159518908,0,40,11,1,1,27,0,4161211,7342373,1150011,4272062,0,0,0,1131151,0,0,3030060,0,0,1071141,0,0,3200161,3071071,0,0,0,0,0,0,0,0,0,0,0,0,-1150011,0,1161031,0,0,0,0,0,0,3111031
5,248,1030.58174342732,1,0,193547.147782219,193548.194852935,0,40,11,0,1,30,5,19655482,62212028,15512180,45672290,0,0,0,2111151,0,3121070,3131091,1091061,10201109,0,0,0,0,0,41101619,21110409,0,0,0,0,0,10300919,0,2060150,0,3151111,0,0,0,-3100021,0,2161050,0,0,40411219,0
5,249,1005.26478583924,0,0,193550.230173488,193551.277237661,0,40,11,1,0,24,20,113604636,178595315,105714556,120475225,1150100,0,1131180,30201819,40010909,0,0,10010209,31100419,0,4171031,41300809,31000619,31101219,10110819,20710709,40200109,0,10811019,2060190,0,41600919,21610909,-1151130,3040180,21310109,4130100,41410619,21700709,11200609,11110719,11511209,0,3140051,0,20401309
5,250,1197.38340307958,1,0,193553.394911372,193554.441982859,0,40,11,1,1,31,20,129595344,125325230,141857457,163436624,12010119,0,31301309,21400609,0,31011309,21101619,11700209,1070170,0,4061021,1011051,41911409,0,4120050,4110171,40110309,30001219,3051141,21600619,0,41600319,3181031,41111119,0,20511909,10801319,32001309,11001919,0,-3100130,42000309,0,41810819,11611019,21911119
5,251,1964.88276595483,0,0,193556.818475834,193557.86555348,0,40,11,0,0,1,20,110095956,152654575,157425576,146068986,-3140150,31711509,21511819,0,0,0,11400509,1121160,41210809,21000609,21212019,0,4050090,0,21910309,41301219,2070120,41110209,2190201,0,40711109,40600009,20701519,0,41311619,11911119,0,4031051,21412009,31000119,4040081,30900209,1061180,10700919,21611409,21312009
5,252,888.342902879231,1,0,193560.900877497,193561.947946289,0,40,11,0,1,36,0,2080110,6041351,4222171,8461140,0,0,0,0,0,0,2080110,0,0,0,0,0,2000150,0,0,0,0,4041201,0,3131071,0,0,0,1091100,0,0,0,0,0,0,0,2140040,0,4171080,0,-2150020
5,253,1060.63834039378,1,0,193563.853852976,193564.900915223,0,40,11,1,1,18,10,112813189,32871808,109466369,49195278,4090141,0,40500519,3020051,3080050,0,30810609,0,31311819,0,20311219,0,0,0,11500419,0,0,-1060170,30411409,0,3081061,31011819,0,0,0,41900909,3061171,12001419,0,0,3081030,0,0,0,2201010,31911819
5,254,677.744234708371,1,0,193567.124481687,193568.171545474,0,40,11,1,1,11,5,35842939,5062122,43361949,55113449,1050111,0,0,3190200,0,0,0,10801509,20801119,0,-1001081,0,0,0,0,0,0,4061041,0,0,0,0,40300809,0,3061140,0,0,0,0,4201121,0,0,31810809,10910409,4021060,4170050
5,255,453.035207436187,1,0,193569.889218185,193570.936272733,0,40,11,0,1,16,0,8371191,6162081,2121030,6360031,0,0,3050001,0,4190110,0,0,1131080,0,0,0,0,0,2121060,0,-4041021,0,0,0,0,0,0,0,0,2121030,0,0,0,0,0,2180000,0,4180031,0,0,0
5,256,886.520497704623,0,0,193572.51277179,193573.559841737,0,40,11,1,0,29,10,135403865,16671523,126622977,25301229,31001219,11100019,0,0,0,41600509,40702009,11000109,0,2130161,4190021,0,0,3050030,0,4181191,0,3120120,0,4000021,30510119,40200909,0,10610919,0,0,41301009,0,-2090070,0,0,20111019,0,0,0,3100140
5,257,1538.19896595087,0,0,193575.654052463,193576.701049652,0,40,11,0,0,2,5,8481521,54403438,76851948,15282589,0,-1180180,0,0,0,1180130,2110100,0,4011111,0,31702019,21600219,0,1101200,0,0,0,0,4040020,31611919,0,41200009,0,0,0,0,0,11001319,3161200,1120070,0,0,0,0,0,0
5,258,1198.09519589762,0,0,193579.395206252,193580.44226927,0,40,11,1,0,32,10,70433709,71812328,138727107,47852709,0,3100131,31701309,0,30501109,0,2021100,0,3110060,0,0,0,31200719,40611609,0,0,0,0,30210209,0,41201519,0,1121021,2031030,41611409,2050000,20501919,11511119,2181010,0,0,-4050071,0,0,0,30110509
5,259,822.593495511683,0,0,193582.783477878,193583.83053743,0,40,11,0,0,25,10,123544846,57262979,29613162,83613388,30911109,0,0,30711919,0,41311209,0,20610609,0,0,21800219,1181171,10010209,4061071,20210309,0,0,0,0,1040171,0,4050121,2191120,1120151,-1111180,20100419,0,0,0,2201160,0,41111709,0,0,40300519,0
5,260,1364.50496528414,0,0,193585.677630937,193586.72468895,0,40,11,1,0,19,0,4161031,4140150,9154343,6201282,0,0,0,0,4161031,0,0,0,0,0,0,0,0,0,0,4140150,0,0,-2061091,3011150,0,0,0,3011061,0,1071041,0,0,0,0,0,0,4080081,0,2121201,0
5,261,734.438205341576,1,0,193589.124725752,193590.171793004,0,40,11,1,1,14,5,33902420,24020700,36103049,41892971,0,1071061,0,0,0,31811319,1020040,0,0,0,0,0,0,-3020091,0,0,0,21000609,0,20410309,0,0,0,3011120,2170001,0,10511619,0,4061111,4140071,0,0,0,0,3181080,30510709
5,262,1613.55930869468,0,0,193591.983576736,193593.030645912,0,40,11,0,0,21,10,49674661,87626106,87804010,85053248,4051201,40311309,0,0,0,0,1161090,0,4151061,31810909,1160160,0,10201409,20710509,0,20611919,3131200,0,0,0,-3091181,41610319,0,1101201,0,0,42001309,41011909,0,0,31801019,0,0,0,10200219,2040101
5,263,895.19405309693,1,0,193595.665971624,193596.713030792,0,40,11,1,1,17,20,126945538,160396937,155657303,182085166,40911209,30100709,20511609,0,30300819,0,4060011,1061181,0,0,42010019,41702019,31001509,4171150,3010130,31300909,-4051010,3150191,0,10411319,11310119,20610719,0,30101019,30311109,31712009,21201009,3180180,31100409,40911409,3080121,40800719,21711409,0,0,41300919
5,264,554.296493530273,1,0,193598.736598102,193599.783660349,0,40,11,0,1,10,20,117553408,154034525,66587316,158116934,21400109,1201131,0,40200519,3141021,0,0,11210619,40400009,-1200100,10700309,41500709,41510319,3011130,40710819,11301109,0,4100030,2131060,11112019,11001919,10001809,0,0,1040100,31300409,0,20300609,21900419,20701209,30901609,11610719,1091051,31100209,0,20511109
5,265,1177.54443993908,1,0,193604.642542515,193605.689607072,0,40,12,0,1,36,5,75893499,49314192,56163319,8231221,40102009,0,4090081,0,0,0,31701409,0,0,4041001,0,40100809,0,0,4171191,0,1001191,0,0,0,0,10801619,0,2160180,0,3100201,40101319,0,4201170,0,0,0,0,0,0,-4030051
5,266,975.190480647143,1,0,193608.042579702,193609.089651574,0,40,12,1,1,32,10,70433709,71812328,138727107,47852709,0,3100131,31701309,0,30501109,0,2021100,0,3110060,0,0,0,31200719,40611609,0,0,0,0,30210209,0,41201519,0,1121021,2031030,41611409,2050000,20501919,11511119,2181010,0,0,-4050071,0,0,0,30110509
5,267,1068.12275139964,0,0,193611.242605803,193612.289682294,0,40,12,1,0,14,5,33902420,24020700,36103049,41892971,0,1071061,0,0,0,31811319,1020040,0,0,0,0,0,0,-3020091,0,0,0,21000609,0,20410309,0,0,0,3011120,2170001,0,10511619,0,4061111,4140071,0,0,0,0,3181080,30510709
5,268,1626.49861650425,1,0,193614.513244907,193615.560304845,0,40,12,1,1,18,10,112813189,32871808,109466369,49195278,4090141,0,40500519,3020051,3080050,0,30810609,0,31311819,0,20311219,0,0,0,11500419,0,0,-1060170,30411409,0,3081061,31011819,0,0,0,41900909,3061171,12001419,0,0,3081030,0,0,0,2201010,31911819
5,269,1218.59629187384,0,0,193618.219165915,193619.266225852,0,40,12,1,0,29,10,135403865,16671523,126622977,25301229,31001219,11100019,0,0,0,41600509,40702009,11000109,0,2130161,4190021,0,0,3050030,0,4181191,0,3120120,0,4000021,30510119,40200909,0,10610919,0,0,41301009,0,-2090070,0,0,20111019,0,0,0,3100140
5,270,1091.75473489449,0,0,193621.583929899,193622.630977903,0,40,12,1,0,11,5,35842939,5062122,43361949,55113449,1050111,0,0,3190200,0,0,0,10801509,20801119,0,-1001081,0,0,0,0,0,0,4061041,0,0,0,0,40300809,0,3061140,0,0,0,0,4201121,0,0,31810809,10910409,4021060,4170050
5,271,940.456223062938,0,0,193624.925125418,193625.972183046,0,40,12,0,0,30,0,6121190,3300210,6332241,3000070,0,0,0,0,0,0,0,3090130,3031060,0,0,0,0,0,0,0,1150030,2150180,0,0,0,0,0,1130130,3081040,2121071,0,0,0,-3000070,0,0,0,0,0,0
5,272,1660.6177064823,1,0,193627.983994803,193629.031043962,0,40,12,0,1,5,0,4211131,3001061,5220161,9420412,0,0,0,0,-2040000,2171131,0,0,0,3001061,0,0,0,0,0,0,0,0,2150060,0,3070101,0,0,0,0,0,0,0,0,2080161,0,0,0,0,3180200,4160051
5,273,1289.80714039062,0,0,193631.842845402,193632.889952305,0,40,12,0,0,9,20,125565168,176773455,219536803,152967127,0,41001709,41411319,3110041,31900919,4120150,0,0,-4021030,41300319,41201409,0,30500219,0,3160180,40200609,0,20410719,0,30312009,12000319,41811719,20810809,31401609,1180200,41610119,40410019,2011001,3110131,40901419,3010110,0,10001609,41611419,11510819,40810619
5,274,829.448495351244,1,0,193635.384067792,193636.431124265,0,40,12,0,1,21,5,18252910,40310719,76905260,32291579,10101709,0,0,4151060,0,0,4000141,0,0,0,0,0,0,0,0,40310719,0,0,2090090,41401009,-1130131,4201161,0,0,21901619,3140090,3041160,0,0,0,0,0,0,0,30200519,2091060
5,275,619.225549075054,0,0,193638.32526539,193639.372337262,0,40,12,0,0,10,5,56222708,73040778,39682980,5181282,4011070,0,0,0,0,0,11810719,40400919,0,-1130040,41910319,0,0,0,0,0,0,30000419,3071080,0,0,30310719,0,3190130,3111051,0,0,2141161,0,0,0,2000081,0,0,1040040,0
5,276,912.90995653253,0,0,193641.160597184,193642.207660586,0,40,12,1,0,20,0,0,9261332,9372412,6261391,0,0,0,0,0,0,0,0,0,1020180,0,0,4170021,0,0,4071131,0,0,0,-3061181,0,0,4110101,0,2201130,0,0,0,0,0,4090201,2171190,0,0,0,0
5,277,1498.66463016951,0,0,193644.254737847,193645.301815493,0,40,12,0,0,2,20,133046888,64454030,195244584,167107444,0,-4031031,20501909,1170160,40801809,3130151,0,31711719,31700109,20800109,22000709,0,2051150,2030051,4090001,11411919,2070091,0,0,20410119,0,20300709,40601709,41610419,0,40610819,31710809,0,11110309,10000909,20000819,31102009,3160051,31410319,40211919,20111109
5,278,908.420156833017,1,0,193647.995969784,193649.043029722,0,40,12,0,1,8,10,94417891,127975476,62112018,40313320,4031151,3100051,3140071,20112009,41511609,20401909,0,-2121091,0,0,0,0,11212009,41811219,4141120,30310609,40500519,0,0,40700009,0,0,0,0,21412009,0,0,0,0,0,3020201,4011040,2081070,0,0,31201009
5,279,1703.42806007829,1,0,193651.090121611,193652.137181934,0,40,12,1,1,24,20,113604636,178595315,105714556,120475225,1150100,0,1131180,30201819,40010909,0,0,10010209,31100419,0,4171031,41300809,31000619,31101219,10110819,20710709,40200109,0,10811019,2060190,0,41600919,21610909,-1151130,3040180,21310109,4130100,41410619,21700709,11200609,11110719,11511209,0,3140051,0,20401309
5,280,646.46538667148,1,0,193655.007801944,193656.054880745,0,40,12,1,1,17,20,126945538,160396937,155657303,182085166,40911209,30100709,20511609,0,30300819,0,4060011,1061181,0,0,42010019,41702019,31001509,4171150,3010130,31300909,-4051010,3150191,0,10411319,11310119,20610719,0,30101019,30311109,31712009,21201009,3180180,31100409,40911409,3080121,40800719,21711409,0,0,41300919
5,281,793.545111315325,0,0,193657.760783274,193658.807846677,0,40,12,1,0,19,0,4161031,4140150,9154343,6201282,0,0,0,0,4161031,0,0,0,0,0,0,0,0,0,0,4140150,0,0,-2061091,3011150,0,0,0,3011061,0,1071041,0,0,0,0,0,0,4080081,0,2121201,0
5,282,987.481129268417,0,0,193660.749047354,193661.796116916,0,40,12,0,0,25,0,10241461,2151061,5190192,5130240,4000111,0,4101200,0,0,0,0,0,2140150,0,0,0,0,0,0,2151061,0,0,0,0,0,0,1030081,0,-4160111,0,0,0,2030140,0,0,0,3100100,0,0,0
5,283,1301.84833428939,1,0,193663.984383614,193665.031448171,0,40,12,0,1,34,10,88995908,88571609,80177029,46615207,11201009,0,4161201,31411309,0,0,0,1121170,41101219,41410319,0,0,0,0,4041161,41010009,0,2110120,0,31511919,0,0,1171070,3031191,0,4161040,40301809,11101509,10211009,0,0,0,0,-4201080,0,21101609
5,284,547.429174941499,0,0,193667.455005703,193668.50207257,0,40,12,1,0,15,5,45712071,10391393,67282190,76343548,0,0,3030011,0,0,0,41501009,1181051,0,0,3200201,0,0,0,-4180121,3011071,0,0,31900419,30211609,3160121,2010041,0,0,0,0,0,0,0,0,0,42001719,3030010,0,31311819,0
5,285,564.698908623541,1,0,193670.219742586,193671.266804449,0,40,12,0,1,16,10,113723956,19182791,140324966,47622781,31501019,31311819,0,0,10710909,0,0,0,40200209,3081121,0,0,2000151,0,11011419,-3090100,0,0,0,2021170,0,0,31810809,30501509,40410609,4180050,31400819,0,3071201,0,0,0,40311319,2110170,2130091,0
5,286,1179.88769733347,1,0,193673.031540177,193674.078603964,0,40,12,1,1,31,20,129595344,125325230,141857457,163436624,12010119,0,31301309,21400609,0,31011309,21101619,11700209,1070170,0,4061021,1011051,41911409,0,4120050,4110171,40110309,30001219,3051141,21600619,0,41600319,3181031,41111119,0,20511909,10801319,32001309,11001919,0,-3100130,42000309,0,41810819,11611019,21911119
5,287,1718.33143875119,0,0,193676.372754559,193677.419821811,0,40,12,0,0,1,20,167155924,206996024,110927756,111434007,-3020170,10701109,40200409,0,40110409,11411309,0,40511909,21200609,0,41500609,30012019,1130031,21010509,40711219,10210719,41510809,20910109,2071180,1080180,40001409,21710119,20211919,2021000,2020130,0,21811819,0,0,31201909,41211509,4070090,31900309,0,3050190,0
5,288,751.128957723267,1,0,193680.313973715,193681.361043277,0,40,12,1,1,27,0,4161211,7342373,1150011,4272062,0,0,0,1131151,0,0,3030060,0,0,1071141,0,0,3200161,3071071,0,0,0,0,0,0,0,0,0,0,0,0,-1150011,0,1161031,0,0,0,0,0,0,3111031
5,289,1155.41649895022,0,0,193686.737573978,193687.784640075,0,40,13,1,0,31,20,129595344,125325230,141857457,163436624,12010119,0,31301309,21400609,0,31011309,21101619,11700209,1070170,0,4061021,1011051,41911409,0,4120050,4110171,40110309,30001219,3051141,21600619,0,41600319,3181031,41111119,0,20511909,10801319,32001309,11001919,0,-3100130,42000309,0,41810819,11611019,21911119
5,290,564.557627949398,1,0,193689.996434432,193691.043502839,0,40,13,0,1,21,20,155447924,112976658,192729243,107924188,30400319,41211809,30211619,1111130,20501509,0,11501519,0,20510019,2121121,41302009,4131040,2110151,0,41000419,11100609,0,11211309,4001110,40310609,-1071060,20610209,30911709,12001309,31211409,41010819,11601009,4131061,3160180,0,0,20111619,0,40410919,0,40110409
5,291,1304.99154052814,1,0,193692.819999894,193693.867065221,0,40,13,0,1,10,0,4080100,10392232,4240211,5262191,4080100,0,0,0,0,0,0,0,0,-4081011,0,0,0,0,0,4170160,2141061,0,1160140,0,0,0,0,0,3080071,0,0,4101041,0,0,0,1161150,0,0,0,0
5,292,1107.94696284574,0,0,193696.220028612,193697.267092399,0,40,13,1,0,14,5,33902420,24020700,36103049,41892971,0,1071061,0,0,0,31811319,1020040,0,0,0,0,0,0,-3020091,0,0,0,21000609,0,20410309,0,0,0,3011120,2170001,0,10511619,0,4061111,4140071,0,0,0,0,3181080,30510709
5,293,830.492509499891,0,0,193699.502425579,193700.549487827,0,40,13,0,0,25,20,123867946,136884656,132084815,103936897,32001819,41911209,2191040,21210919,0,4140141,10801109,0,11611709,40001419,0,0,30900119,11600819,20111709,0,3170171,31100419,1030200,42010209,10610619,0,0,11001709,-4111050,41910319,21410709,1041140,31900019,4171111,0,11001219,10811419,20601119,20210709,4200161
5,294,1459.85017131898,0,0,193702.467170085,193703.51424927,0,40,13,0,0,34,0,1021001,4080131,7381331,5061182,0,1021001,0,0,0,0,0,0,0,0,0,1000031,3080100,0,0,0,0,0,0,0,3011020,0,0,2190130,0,2180181,0,0,0,0,0,1010181,0,-4051001,0,0
5,295,1304.31477917591,1,0,193706.102493101,193707.149559583,0,40,13,1,1,18,10,112813189,32871808,109466369,49195278,4090141,0,40500519,3020051,3080050,0,30810609,0,31311819,0,20311219,0,0,0,11500419,0,0,-1060170,30411409,0,3081061,31011819,0,0,0,41900909,3061171,12001419,0,0,3081030,0,0,0,2201010,31911819
5,296,881.428619060898,1,0,193709.502537603,193710.54960062,0,40,13,1,1,20,0,0,9261332,9372412,6261391,0,0,0,0,0,0,0,0,0,1020180,0,0,4170021,0,0,4071131,0,0,0,-3061181,0,0,4110101,0,2201130,0,0,0,0,0,4090201,2171190,0,0,0,0
5,297,1036.08668516972,0,0,193712.44374752,193713.490812077,0,40,13,1,0,27,0,4161211,7342373,1150011,4272062,0,0,0,1131151,0,0,3030060,0,0,1071141,0,0,3200161,3071071,0,0,0,0,0,0,0,0,0,0,0,0,-1150011,0,1161031,0,0,0,0,0,0,3111031
5,298,817.896201857366,0,0,193715.679123045,193716.726140252,0,40,13,1,0,17,20,126945538,160396937,155657303,182085166,40911209,30100709,20511609,0,30300819,0,4060011,1061181,0,0,42010019,41702019,31001509,4171150,3010130,31300909,-4051010,3150191,0,10411319,11310119,20610719,0,30101019,30311109,31712009,21201009,3180180,31100409,40911409,3080121,40800719,21711409,0,0,41300919
5,299,932.33624153072,1,0,193718.702631841,193719.749702173,0,40,13,0,1,36,5,5272240,85441478,5323252,89816568,0,3121110,0,0,0,0,2151130,0,0,0,0,0,40500409,0,0,0,41800009,3141060,0,0,2121020,0,0,0,0,1051031,2151201,0,2111171,0,40701309,0,21801309,0,21111709,-4091070
5,300,1063.06012981804,1,0,193721.702675342,193722.749736434,0,40,13,0,1,5,5,5132422,46341889,54954678,47974068,0,1000200,0,0,-3071141,0,0,0,1061081,0,4041030,41200819,1100040,0,0,0,0,0,4041050,10811909,0,0,0,0,0,40101719,0,20612019,0,0,22010819,0,1171090,4180140,0,0
5,301,1055.71353482082,1,0,193724.890945889,193725.938008907,0,40,13,0,1,1,10,80597157,117884597,58715410,5191171,-1051151,20911609,21201009,2120190,3191170,10710509,21411519,0,0,0,41210919,21011019,40601819,0,3060031,0,0,12000809,3081121,4021071,0,0,0,31611509,0,20001709,0,0,0,0,0,0,4001151,0,0,1190020
5,302,1472.16276268591,1,0,193728.067450105,193729.114511198,0,40,13,1,1,32,10,70433709,71812328,138727107,47852709,0,3100131,31701309,0,30501109,0,2021100,0,3110060,0,0,0,31200719,40611609,0,0,0,0,30210209,0,41201519,0,1121021,2031030,41611409,2050000,20501919,11511119,2181010,0,0,-4050071,0,0,0,30110509
5,303,1010.39015606511,0,0,193731.785144759,193732.832200462,0,40,13,1,0,19,0,4161031,4140150,9154343,6201282,0,0,0,0,4161031,0,0,0,0,0,0,0,0,0,0,4140150,0,0,-2061091,3011150,0,0,0,3011061,0,1071041,0,0,0,0,0,0,4080081,0,2121201,0
5,304,573.867523809895,0,0,193734.961636656,193736.008710067,0,40,13,1,0,15,5,45712071,10391393,67282190,76343548,0,0,3030011,0,0,0,41501009,1181051,0,0,3200201,0,0,0,-4180121,3011071,0,0,31900419,30211609,3160121,2010041,0,0,0,0,0,0,0,0,0,42001719,3030010,0,31311819,0
5,305,664.144718815805,1,0,193737.773440406,193738.820503038,0,40,13,0,1,8,10,170975876,44961159,17103650,107841598,40312019,0,3150061,0,42000809,40711319,10400319,-3191040,31210309,0,0,0,0,0,3151040,0,41810119,0,0,10701319,0,0,4161130,1171001,0,1070200,0,0,2180101,0,41900309,1040160,0,0,21110319,41610709
5,306,668.943642143859,0,0,193740.66758769,193741.714653787,0,40,13,0,0,16,5,28023801,35222919,69962050,24332969,0,1111001,20711619,3130070,3071111,0,0,0,0,0,0,0,1011130,0,0,-4100180,0,30111609,21611019,0,4140031,0,40010909,0,0,4200091,0,0,0,0,21301809,0,0,3031160,0,0
5,307,542.921282089083,0,0,193743.408802689,193744.455859932,0,40,13,0,0,9,0,6271260,0,7341090,9383302,0,0,0,0,0,0,0,3170180,-3101080,0,0,0,0,0,0,0,0,0,1150000,0,0,0,3151030,0,0,0,3040060,0,0,3111201,0,0,0,2101030,4171071,0
5,308,1110.14662974048,1,0,193746.138244811,193747.185305518,0,40,13,1,1,24,20,113604636,178595315,105714556,120475225,1150100,0,1131180,30201819,40010909,0,0,10010209,31100419,0,4171031,41300809,31000619,31101219,10110819,20710709,40200109,0,10811019,2060190,0,41600919,21610909,-1151130,3040180,21310109,4130100,41410619,21700709,11200609,11110719,11511209,0,3140051,0,20401309
5,309,1393.6746121617,1,0,193749.502979538,193750.550047175,0,40,13,1,1,29,10,135403865,16671523,126622977,25301229,31001219,11100019,0,0,0,41600509,40702009,11000109,0,2130161,4190021,0,0,3050030,0,4181191,0,3120120,0,4000021,30510119,40200909,0,10610919,0,0,41301009,0,-2090070,0,0,20111019,0,0,0,3100140
5,310,701.884366630111,1,0,193753.079495149,193754.126610906,0,40,13,0,1,2,10,84391829,76522489,65343900,88603238,0,-1180051,30310319,2090121,0,0,40301219,10510119,0,0,4101200,30110119,0,0,0,41300119,0,1011051,0,3120191,0,0,21101019,40111609,0,0,1011081,20600419,1030041,0,31100009,31811619,0,0,0,4061150
5,311,1277.21506732632,0,0,193755.938351522,193756.98540838,0,40,13,0,0,30,20,105115836,161037356,160947974,46893348,10701219,20102009,0,31511119,0,1100170,0,41701319,0,30511609,31611209,20200509,2061091,10810019,40510109,2010120,21201609,2121081,10401109,20601919,21611109,31810109,41001619,4011081,0,11210719,20300309,1060201,0,-1010050,1191040,11010419,20611219,0,12010419,0
5,312,1372.96217263793,0,0,193759.291330311,193760.338388324,0,40,13,1,0,11,5,35842939,5062122,43361949,55113449,1050111,0,0,3190200,0,0,0,10801509,20801119,0,-1001081,0,0,0,0,0,0,4061041,0,0,0,0,40300809,0,3061140,0,0,0,0,4201121,0,0,31810809,10910409,4021060,4170050
5,313,715.790311427554,0,0,193768.33848187,193769.385554511,0,40,14,1,0,20,0,0,9261332,9372412,6261391,0,0,0,0,0,0,0,0,0,1020180,0,0,4170021,0,0,4071131,0,0,0,-3061181,0,0,4110101,0,2201130,0,0,0,0,0,4090201,2171190,0,0,0,0
5,314,832.358415267663,1,0,193771.162047717,193772.209111889,0,40,14,1,1,19,0,4161031,4140150,9154343,6201282,0,0,0,0,4161031,0,0,0,0,0,0,0,0,0,0,4140150,0,0,-2061091,3011150,0,0,0,3011061,0,1071041,0,0,0,0,0,0,4080081,0,2121201,0
5,315,675.018326117424,1,0,193774.056202701,193775.103264948,0,40,14,1,1,11,5,35842939,5062122,43361949,55113449,1050111,0,0,3190200,0,0,0,10801509,20801119,0,-1001081,0,0,0,0,0,0,4061041,0,0,0,0,40300809,0,3061140,0,0,0,0,4201121,0,0,31810809,10910409,4021060,4170050
5,316,1421.47264318191,1,0,193776.926823481,193777.973883034,0,40,14,0,1,2,10,35802979,63883828,42654522,104535555,20401719,-4161150,10210109,0,0,0,0,1030001,0,0,0,0,0,30701919,0,2170200,0,31011709,2051011,0,2080150,1171021,0,30201109,0,3030030,4121201,30101509,11610309,40411409,11401209,0,0,11011119,0,0
5,317,1803.93482267391,1,0,193780.562152657,193781.60921529,0,40,14,1,1,18,10,112813189,32871808,109466369,49195278,4090141,0,40500519,3020051,3080050,0,30810609,0,31311819,0,20311219,0,0,0,11500419,0,0,-1060170,30411409,0,3081061,31011819,0,0,0,41900909,3061171,12001419,0,0,3081030,0,0,0,2201010,31911819
5,318,1034.89985055057,1,0,193784.562197698,193785.60925802,0,40,14,0,1,30,20,145634966,170806785,191790244,102113487,21200219,0,30110709,31600109,41511809,20210919,1001201,0,0,31311319,41211709,0,41501409,0,40710419,1000190,11910609,3161130,42011509,20511419,20110519,2041150,31601619,31900209,30801919,1010081,11801819,0,20800709,-1000180,31800619,41310919,4070020,0,0,3131040
5,319,663.237750792177,0,0,193787.785763776,193788.832827563,0,40,14,0,0,9,5,77312189,25325119,15901610,9213442,3070141,0,0,0,40011919,0,31200009,0,-3030120,11912019,0,11401919,2011181,0,0,0,0,0,0,0,11901519,0,0,0,4000091,0,0,2021161,0,1010171,3151110,0,0,0,3031000,0
5,320,1062.81952920835,0,0,193790.515207053,193791.562270455,0,40,14,1,0,29,10,135403865,16671523,126622977,25301229,31001219,11100019,0,0,0,41600509,40702009,11000109,0,2130161,4190021,0,0,3050030,0,4181191,0,3120120,0,4000021,30510119,40200909,0,10610919,0,0,41301009,0,-2090070,0,0,20111019,0,0,0,3100140
5,321,1691.27445758204,0,0,193793.785826525,193794.832890697,0,40,14,0,0,8,10,57071979,191836955,47171311,49082631,0,10700919,2150131,41200909,0,0,0,-3020020,0,41310109,31110419,41711219,0,0,4081071,11111909,42011409,20500819,0,0,0,40010009,0,3060101,0,0,4101201,0,2030141,41711209,0,0,1181161,0,4160120,0
5,322,959.918694366934,0,0,193797.668224801,193798.715308606,0,40,14,0,0,5,5,6202040,44913017,10382272,63022018,0,0,0,0,-3091030,0,0,3111010,0,0,10601909,10000809,4100190,0,0,0,0,20210109,0,4090050,0,0,1060031,0,0,1091141,4141050,31600209,0,0,0,1121100,0,30300709,0,0
5,323,958.595968491863,0,0,193800.868286702,193801.915327777,0,40,14,0,0,36,10,104862986,14552800,78332550,77320627,0,10911209,30600109,0,41300509,0,21011109,0,1040050,0,0,1031031,0,11200609,1170110,1151050,0,0,1070190,0,0,30300919,0,41800309,4041121,0,1120011,0,0,21000519,31300019,0,0,21900019,0,-3120070
5,324,1065.93694307958,1,0,193803.880122327,193804.927131835,0,40,14,1,1,17,20,126945538,160396937,155657303,182085166,40911209,30100709,20511609,0,30300819,0,4060011,1061181,0,0,42010019,41702019,31001509,4171150,3010130,31300909,-4051010,3150191,0,10411319,11310119,20610719,0,30101019,30311109,31712009,21201009,3180180,31100409,40911409,3080121,40800719,21711409,0,0,41300919
5,325,526.471515273442,0,0,193807.103627196,193808.150691369,0,40,14,1,0,14,5,33902420,24020700,36103049,41892971,0,1071061,0,0,0,31811319,1020040,0,0,0,0,0,0,-3020091,0,0,0,21000609,0,20410309,0,0,0,3011120,2170001,0,10511619,0,4061111,4140071,0,0,0,0,3181080,30510709
5,326,622.147787711583,1,0,193809.844828721,193810.891892508,0,40,14,0,1,10,5,70194381,36083440,4232321,25062329,1171111,21111519,0,0,0,41601509,2120151,4190091,0,-2091141,0,31901209,0,0,0,0,0,2091090,0,0,0,1191200,3041121,0,0,0,0,0,0,0,11910909,0,2040101,11111319,0,0
5,327,604.440353432437,0,0,193812.562509516,193813.609576383,0,40,14,1,0,27,0,4161211,7342373,1150011,4272062,0,0,0,1131151,0,0,3030060,0,0,1071141,0,0,3200161,3071071,0,0,0,0,0,0,0,0,0,0,0,0,-1150011,0,1161031,0,0,0,0,0,0,3111031
5,328,897.846819105325,0,0,193815.291953178,193816.339013116,0,40,14,1,0,31,20,129595344,125325230,141857457,163436624,12010119,0,31301309,21400609,0,31011309,21101619,11700209,1070170,0,4061021,1011051,41911409,0,4120050,4110171,40110309,30001219,3051141,21600619,0,41600319,3181031,41111119,0,20511909,10801319,32001309,11001919,0,-3100130,42000309,0,41810819,11611019,21911119
5,329,869.111793086631,1,0,193818.350813324,193819.397870567,0,40,14,0,1,34,20,189185415,131473175,79903579,130035155,41810819,20000509,0,31911819,32011109,30310119,0,3030121,30110919,10900319,2190071,0,40410519,20700619,4161190,30700019,10410419,12000019,0,30900019,3120080,11310919,0,30301309,3161061,1110191,0,30210719,11000809,30701519,4060170,20001319,30000419,-4060200,0,0
5,330,843.578872416401,1,0,193821.327312613,193822.37437255,0,40,14,0,1,21,0,1091070,4000161,8362473,8142141,0,1091070,0,0,0,0,0,0,0,4000161,0,0,0,0,0,0,0,0,2021161,3100190,-2140091,0,0,0,1101031,0,0,0,4131110,0,0,0,0,4011031,0,0
5,331,1651.84714089264,1,0,193824.30381883,193825.350920728,0,40,14,1,1,24,20,113604636,178595315,105714556,120475225,1150100,0,1131180,30201819,40010909,0,0,10010209,31100419,0,4171031,41300809,31000619,31101219,10110819,20710709,40200109,0,10811019,2060190,0,41600919,21610909,-1151130,3040180,21310109,4130100,41410619,21700709,11200609,11110719,11511209,0,3140051,0,20401309
5,332,1255.03477166058,0,0,193828.11562181,193829.162690217,0,40,14,0,0,25,0,2110070,8041180,3150011,10522513,2110070,0,0,0,0,0,0,0,0,0,0,0,4010160,0,0,4031020,0,0,0,0,0,0,0,0,-3150011,0,0,0,4190180,4010011,0,0,0,1191131,0,1131191
5,333,652.500419673743,0,0,193831.480364622,193832.527432643,0,40,14,1,0,32,10,70433709,71812328,138727107,47852709,0,3100131,31701309,0,30501109,0,2021100,0,3110060,0,0,0,31200719,40611609,0,0,0,0,30210209,0,41201519,0,1121021,2031030,41611409,2050000,20501919,11511119,2181010,0,0,-4050071,0,0,0,30110509
5,334,521.672976872651,1,0,193834.245103429,193835.292171836,0,40,14,1,1,15,5,45712071,10391393,67282190,76343548,0,0,3030011,0,0,0,41501009,1181051,0,0,3200201,0,0,0,-4180121,3011071,0,0,31900419,30211609,3160121,2010041,0,0,0,0,0,0,0,0,0,42001719,3030010,0,31311819,0
5,335,1493.59969879151,0,0,193836.903959495,193837.951018662,0,40,14,0,0,1,20,40475119,107023545,151298814,142350375,-1001080,10410119,0,1050170,2091150,1020131,3091050,0,21811419,10300109,10510619,40400419,21010509,0,4000170,0,0,20801719,21800419,10301619,4041101,21011619,11211909,30610309,10311419,42010419,0,4011171,0,21811019,21801719,21610719,21302019,40412009,11401719,0
5,336,616.876132320613,1,0,193840.515763322,193841.562874074,0,40,14,0,1,16,0,4140050,8261271,3050200,11022252,4140050,0,0,0,0,0,0,0,0,0,0,0,0,4061150,0,-1000061,3200060,0,0,0,0,0,3050200,0,0,0,0,0,3011170,0,0,0,0,4010011,4001071,0
5,337,884.008242457639,1,0,193864.457195361,193865.504267617,0,40,15,1,1,27,0,4161211,7342373,1150011,4272062,0,0,0,1131151,0,0,3030060,0,0,1071141,0,0,3200161,3071071,0,0,0,0,0,0,0,0,0,0,0,0,-1150011,0,1161031,0,0,0,0,0,0,3111031
5,338,1258.42396795633,0,0,193867.469004808,193868.516068211,0,40,15,0,0,30,0,2130071,6172412,1140081,10512261,0,0,2130071,0,0,0,0,0,0,0,1031100,0,4051141,1090171,0,0,0,0,0,0,0,0,0,0,0,1140081,0,0,2171090,-4190121,0,4151050,0,0,0,0
