sub_id,Trial,RT,Resp,Error,Fix_onset,Disp_onset,q1,q2,block,repeat,tid,tloc,d_setsize,quad1,quad2,quad3,quad4,loc1,loc2,loc3,loc4,loc5,loc6,loc7,loc8,loc9,loc10,loc11,loc12,loc13,loc14,loc15,loc16,loc17,loc18,loc19,loc20,loc21,loc22,loc23,loc24,loc25,loc26,loc27,loc28,loc29,loc30,loc31,loc32,loc33,loc34,loc35,loc36
6,1,1657.77054266073,0,0,192973.856370998,192974.903405144,1,70,1,1,0,3,20,159757277,163561116,105845996,96476636,32000619,41001609,-3030201,30111519,1190001,0,11611509,0,40811819,41301819,20711619,2140191,12011519,11302009,0,30611819,4081021,41401119,40510219,0,1191040,30811019,10411709,1110100,0,21811909,0,1201151,0,0,21201009,1051030,10610509,31610909,20700309,10101719
6,2,1436.69708675588,0,0,192977.69157306,192978.738622219,1,70,1,1,0,25,20,86856074,114296087,130253188,132049157,10710409,0,10410409,0,11810619,11501509,0,10711819,31711309,20810909,20911109,0,0,4050101,11200819,4021121,41401319,11900709,40300609,3010111,0,42010419,30100719,0,-3020011,11811319,0,10310809,31401619,1041180,40501519,20300619,3120010,21111219,3171011,1091171
6,3,1122.57009733003,1,0,192981.385581066,192982.432612517,1,70,1,0,1,6,5,23161929,66966826,1091000,15521423,0,0,0,0,0,-3051120,0,20110809,0,0,2021070,0,0,10411209,11911919,12011419,0,30611209,0,0,1091000,0,0,0,0,0,0,4140111,3190111,0,4051060,2040111,0,0,2100030,0
6,4,2188.5959066567,1,0,192984.726669566,192985.773696782,1,70,1,1,1,33,5,54893110,3121080,54993150,34561840,3110011,1181071,0,0,0,40001319,0,10600709,0,0,0,0,0,0,0,3121080,0,0,0,0,40111209,0,10610619,2071121,2200201,0,0,0,0,0,30100619,1081070,-1190050,0,0,2190101
6,5,1275.42154167895,1,0,192989.114779893,192990.161817118,1,70,1,0,1,30,10,66892808,105983716,35962339,76034289,0,4080090,0,0,0,0,0,20901309,41911409,20502019,31700809,11010119,0,0,0,0,2170150,40600619,0,2050100,2101120,0,0,0,0,31811119,0,1060100,3061041,-4151161,21700019,0,4051040,0,20410509,21600419
6,6,2192.1490963432,1,0,192992.608804914,192993.655825971,1,70,1,0,1,14,0,4201181,3191250,7131141,3280310,0,0,0,0,2180091,0,2021090,0,0,0,0,0,0,-2090090,0,0,1101160,0,0,4130051,0,0,0,0,3001090,0,0,2080160,0,1200150,0,0,0,0,0,0
6,7,934.646784648066,0,0,192996.973386042,192998.020415183,1,70,1,0,0,29,0,2080081,12471613,3081091,6142181,2080081,0,0,0,0,0,0,0,0,4050141,2140201,3190131,0,3091140,0,0,0,0,0,0,0,0,0,3081091,0,0,0,0,-3041120,0,0,0,0,3101061,0,0
6,8,1174.77272846736,0,0,193000.079230288,193001.126217468,1,70,1,0,0,27,10,71065849,72551729,46196140,104552437,0,4141000,0,0,3121180,0,31501319,31201209,1101141,0,41101519,1050201,0,0,0,0,30400009,0,0,0,1001120,30801909,0,0,11311019,2011031,-1071061,0,20901209,0,0,11500019,30710219,40300909,1140081,0
6,9,1068.27635827358,0,0,193003.349681917,193004.396705283,1,70,1,1,0,34,0,8290292,4160161,8231151,8360131,0,0,4190161,0,4100131,0,0,0,0,0,0,0,0,0,4160161,0,0,0,0,3111041,0,0,1070070,4050040,0,0,0,0,0,0,0,0,4160031,-4200100,0,0
6,10,2829.60672175977,1,0,193006.620177431,193007.667265085,1,70,1,1,1,24,5,43783789,5180081,35994190,80754289,0,30400719,0,0,0,2181051,0,0,11202019,0,0,3160041,0,0,2020040,0,0,0,0,30701919,0,0,1071130,-3180031,0,0,1041110,0,0,0,30702019,41801119,0,4130150,0,4121001
6,11,873.42182348948,0,0,193011.702388924,193012.749418834,1,70,1,1,0,13,5,64352089,66473110,40865131,2021131,0,30010519,0,0,0,2190100,0,31101409,1050061,0,0,41010909,-4141031,20310119,1011051,0,0,0,31601919,4041181,0,4111021,0,0,0,1111010,0,2021131,0,0,0,0,0,0,0,0
6,12,3230.01770611154,1,0,193014.831718868,193015.878744159,1,70,1,0,1,8,20,179698503,146966345,88705676,93062858,10601409,0,20811719,11810919,40610009,30411519,41410019,-4041200,20001709,11511919,0,0,31611609,0,31501019,30710419,40601209,1030170,31412019,0,0,1060100,31011119,11910409,2100120,11211909,0,20310909,20800119,10910519,4100100,2130181,30700919,0,2100021,2010090
6,13,596.88242233824,0,0,193020.313920968,193021.361004773,1,70,1,0,0,22,0,6282080,4302152,3201081,7180061,0,0,0,0,4171010,2111070,0,0,0,0,0,0,0,3171151,1131001,0,0,0,0,0,2180040,-1021041,0,0,0,0,0,0,0,0,4170050,0,3010011,0,0,0
6,14,3253.61157843145,0,0,193023.043261461,193024.090280977,1,70,1,0,0,1,20,214586515,117252896,102038017,112926116,-3010150,21600319,41111409,3030090,40910109,1101181,40910319,41611319,21301619,0,3030120,0,30310319,0,40310619,0,31901219,11700619,4181011,31501019,21201519,11311309,0,0,20110509,2131041,11601609,0,21810419,0,21011419,4051051,3140190,10701109,20410519,31801409
6,15,1477.99415877671,1,0,193028.360755704,193029.407773296,1,70,1,0,1,4,10,36264240,53303078,76296826,92897379,31112009,0,3021110,-2131121,0,0,0,0,0,31112019,0,0,0,0,0,0,1190040,21001019,11012009,0,0,10011409,40801509,0,0,4171180,10300719,40700109,20201719,4111080,0,1061121,2161141,3051200,21611009,0
6,16,1718.91543196398,0,0,193031.960658847,193033.007677209,1,70,1,1,0,35,10,106405056,22762630,51835499,91484149,0,0,41911319,21210609,0,0,2171100,20701219,20410809,0,0,0,20611519,2151111,0,0,0,0,0,3021120,0,20201219,0,3040111,0,21402019,4171030,21012009,40200909,3140191,0,21000909,3010130,0,-3120001,0
6,17,1113.52697943221,1,0,193035.784081489,193036.831099466,1,70,1,1,1,5,20,138013678,158476897,169357976,189415225,30700019,2200101,0,2010131,-1080180,41511419,0,20000509,40511319,30800319,1130021,0,21810209,40111719,0,2011101,21112019,41501509,2131100,31412009,0,30300309,31201819,31601019,40511709,0,2200011,11510119,40200419,1191011,0,31501719,0,22010319,41701419,41300219
6,18,1529.50616995804,1,0,193039.078108127,193040.125128029,1,70,1,0,1,31,20,180016365,126704486,113636918,114979916,40401509,21700309,42000309,31212009,30401709,3090011,11210509,0,0,0,2070031,0,0,30011009,32010019,20400609,30411909,11800909,11710509,0,41501309,4001190,20910909,4101191,1110091,0,30301719,3161061,3161060,10401919,-4121010,0,30311409,21901019,30711419,11211019
6,19,929.573384142714,1,0,193042.830941247,193043.877966153,1,70,1,0,1,7,5,42201070,19151670,45662880,64540869,0,3120081,0,31800819,3160050,0,-4120120,0,0,0,0,0,11010409,0,0,0,4141061,4000200,0,0,0,2011000,0,0,0,40500819,3151061,0,0,0,20500609,3040151,0,0,41000109,0
6,20,1794.75697586895,1,0,193045.830859635,193046.877896475,1,70,1,1,1,26,10,47784070,63392987,96374148,86023238,3111071,0,0,1121171,0,10411509,2030110,0,31110209,20511509,0,11511009,0,0,0,30200409,1170060,0,0,41802009,2031151,0,0,40310409,11200509,-1030070,0,3070080,40000519,1051030,0,0,0,0,0,41901609
6,21,1454.00878114742,0,0,193049.689569724,193050.736599249,1,70,1,1,0,20,0,5232031,9492071,3060050,5191311,0,0,0,3181031,0,0,0,0,2051000,3161030,0,0,0,3190010,3141031,0,0,0,0,-3060050,0,0,0,0,0,0,0,0,0,0,0,4030170,0,1161141,0,0
6,22,1078.82313372102,0,0,193053.230698568,193054.277679588,1,70,1,0,0,15,5,43824608,50643551,48181972,3171070,10010819,2000171,0,21101609,0,0,10712009,0,0,0,0,0,41311209,4121161,-1051170,0,0,4160011,2000051,0,1050141,41110709,0,4021071,0,0,0,0,0,0,0,0,0,0,0,3171070
6,23,1254.24291440868,0,0,193056.454091413,193057.501120169,1,70,1,1,0,18,10,91496639,98534288,15051930,62722037,0,20601719,41200909,3170191,1091040,3011100,2020071,0,20401609,41202009,4090051,0,0,20900819,0,0,30300409,-2041000,0,0,11900819,0,0,0,2001011,0,1150100,11111419,0,30300009,0,0,21310609,0,0,0
6,24,737.932888412615,0,0,193059.924628041,193060.971618301,1,70,1,1,0,28,0,5301173,11190280,0,3152201,3080121,0,0,1101011,1120041,0,0,0,0,0,0,0,3120070,4030160,0,0,0,4040050,0,0,0,0,0,0,0,0,0,-1061021,0,0,0,0,2091180,0,0,0
6,25,599.891662190203,1,0,193075.712371731,193076.759402797,1,70,2,0,1,30,10,29711242,75733517,106716616,81400699,3170111,0,1111091,0,0,0,0,4130021,21300019,2021080,41910609,0,10900419,20901409,0,0,0,0,10610419,0,2101160,20302009,0,0,0,31901409,41801619,0,30800409,-3120040,0,4030031,2050110,41400109,0,0
6,26,844.188658025814,0,0,193078.524068462,193079.571097988,1,70,2,1,0,13,5,64352089,66473110,40865131,2021131,0,30010519,0,0,0,2190100,0,31101409,1050061,0,0,41010909,-4141031,20310119,1011051,0,0,0,31601919,4041181,0,4111021,0,0,0,1111010,0,2021131,0,0,0,0,0,0,0,0
6,27,1211.18118130835,0,0,193081.476928068,193082.523957978,1,70,2,0,0,8,5,47624641,79762268,25301380,34541919,0,3011071,0,1041050,0,0,40300209,-1151200,2121111,0,4191020,4160120,0,0,30310709,0,0,41100419,0,0,0,0,0,0,21300219,4001161,0,0,0,30501919,0,0,4040000,0,0,0
6,28,2000.32497421489,1,0,193084.923893536,193085.970913053,1,70,2,0,1,1,10,112584897,54584149,10601809,80315849,-4060111,30610609,0,0,31400909,11010519,0,31301619,4201130,4110171,11210619,0,21510419,4141091,11611709,0,0,2000140,0,0,0,0,0,0,10601809,0,0,0,2061200,2071001,31601209,3071120,0,0,0,41511319
6,29,973.910492903087,0,0,193089.159068112,193090.206091863,1,70,2,1,0,33,5,54893110,3121080,54993150,34561840,3110011,1181071,0,0,0,40001319,0,10600709,0,0,0,0,0,0,0,3121080,0,0,0,0,40111209,0,10610619,2071121,2200201,0,0,0,0,0,30100619,1081070,-1190050,0,0,2190101
6,30,1196.81058861897,0,0,193092.347215087,193093.394236528,1,70,2,0,0,6,0,7342301,5220261,1081051,2271200,0,1141120,0,0,4051041,-2150140,0,0,0,0,0,0,0,3020180,0,2200081,0,0,0,0,0,0,1081051,0,0,0,0,1190150,1081050,0,0,0,0,0,0,0
6,31,554.337306821253,0,0,193095.711831246,193096.758853073,1,70,2,0,0,22,5,41284232,23713119,16042911,40711109,1150191,2020011,30911919,3141100,4061011,0,0,0,0,0,1101090,0,0,11300319,0,0,1100191,10211519,2001101,0,0,-3030001,0,0,0,0,11011809,0,0,40711109,0,0,0,0,0,0
6,32,1663.22197482805,0,0,193098.405868894,193099.45289611,1,70,2,1,0,35,10,106405056,22762630,51835499,91484149,0,0,41911319,21210609,0,0,2171100,20701219,20410809,0,0,0,20611519,2151111,0,0,0,0,0,3021120,0,20201219,0,3040111,0,21402019,4171030,21012009,40200909,3140191,0,21000909,3010130,0,-3120001,0
6,33,1387.30967510492,0,0,193102.311646234,193103.35866883,1,70,2,0,0,7,0,7632391,5142240,4021150,2121161,0,0,2150000,2150081,0,0,-2141180,0,1191130,0,0,1101120,0,0,0,4041120,0,0,0,0,0,0,4021150,0,0,0,0,0,0,0,0,2121161,0,0,0,0
6,34,2338.8596434088,1,0,193105.782184786,193106.829159648,1,70,2,1,1,34,0,8290292,4160161,8231151,8360131,0,0,4190161,0,4100131,0,0,0,0,0,0,0,0,0,4160161,0,0,0,0,3111041,0,0,1070070,4050040,0,0,0,0,0,0,0,0,4160031,-4200100,0,0
6,35,755.389328143792,0,0,193110.358537559,193111.40550626,1,70,2,1,0,24,5,43783789,5180081,35994190,80754289,0,30400719,0,0,0,2181051,0,0,11202019,0,0,3160041,0,0,2020040,0,0,0,0,30701919,0,0,1071130,-3180031,0,0,1041110,0,0,0,30702019,41801119,0,4130150,0,4121001
6,36,621.13881247933,0,0,193113.346634181,193114.393657547,1,70,2,1,0,26,10,47784070,63392987,96374148,86023238,3111071,0,0,1121171,0,10411509,2030110,0,31110209,20511509,0,11511009,0,0,0,30200409,1170060,0,0,41802009,2031151,0,0,40310409,11200509,-1030070,0,3070080,40000519,1051030,0,0,0,0,0,41901609
6,37,1675.6354260142,1,0,193116.17008377,193117.217109831,1,70,2,1,1,25,20,86856074,114296087,130253188,132049157,10710409,0,10410409,0,11810619,11501509,0,10711819,31711309,20810909,20911109,0,0,4050101,11200819,4021121,41401319,11900709,40300609,3010111,0,42010419,30100719,0,-3020011,11811319,0,10310809,31401619,1041180,40501519,20300619,3120010,21111219,3171011,1091171
6,38,476.680671999929,0,0,193120.01704177,193121.064060901,1,70,2,1,0,28,0,5301173,11190280,0,3152201,3080121,0,0,1101011,1120041,0,0,0,0,0,0,0,3120070,4030160,0,0,0,4040050,0,0,0,0,0,0,0,0,0,-1061021,0,0,0,0,2091180,0,0,0
6,39,2284.33993225917,0,0,193122.746368789,193123.793395235,1,70,2,1,0,5,20,138013678,158476897,169357976,189415225,30700019,2200101,0,2010131,-1080180,41511419,0,20000509,40511319,30800319,1130021,0,21810209,40111719,0,2011101,21112019,41501509,2131100,31412009,0,30300309,31201819,31601019,40511709,0,2200011,11510119,40200419,1191011,0,31501719,0,22010319,41701419,41300219
6,40,808.123205410084,1,0,193127.1344795,193128.181505946,1,70,2,0,1,4,5,12541463,25741988,48214799,35131630,2150141,4101150,0,-4140111,0,0,0,0,2150061,0,0,0,0,11410819,4121050,0,10210119,0,0,0,2011110,4091061,0,21211619,20901009,0,0,0,31011509,0,0,0,0,0,0,4120121
6,41,2306.72733695246,1,0,193130.157940176,193131.204950454,1,70,2,0,1,15,10,124783597,39942438,59585789,28792481,41710619,0,10010119,0,40611119,0,30401709,0,2050031,10200219,0,0,0,0,-4061090,10710919,3160201,11810009,0,0,0,1161110,0,3001170,4021171,10001719,41400619,0,0,21701309,4051011,3040161,0,0,0,0
6,42,2377.72337725619,1,0,193134.546040494,193135.593068865,1,70,2,1,1,18,10,91496639,98534288,15051930,62722037,0,20601719,41200909,3170191,1091040,3011100,2020071,0,20401609,41202009,4090051,0,0,20900819,0,0,30300409,-2041000,0,0,11900819,0,0,0,2001011,0,1150100,11111419,0,30300009,0,0,21310609,0,0,0
6,43,911.705806094687,1,0,193139.004738802,193140.051832616,1,70,2,0,1,31,20,100986808,121904967,156636074,150098867,3030110,2090201,1181130,40801719,11001919,20510519,2171091,20200119,0,31611819,3010011,3040081,0,30311219,0,20410719,11711009,21810109,0,0,11600219,21211319,21510609,40202009,42001209,20110709,0,40701509,40112019,11210819,-4131001,2131081,0,10601019,0,41211419
6,44,826.581698522205,0,0,193141.992944368,193143.039936938,1,70,2,0,0,27,20,200446885,139718534,87225930,119787215,10710809,40900309,30100309,11600209,20101709,41500619,3090031,2041071,40401819,0,2180040,31401919,11511409,21101619,40711419,21310709,11501419,0,41801609,0,1121141,0,1001170,41110919,0,0,-2191091,11610819,0,3021140,0,20700909,31001619,2040110,30010709,21401909
6,45,1121.49259162834,1,0,193144.981042915,193146.028070901,1,70,2,1,1,3,20,159757277,163561116,105845996,96476636,32000619,41001609,-3030201,30111519,1190001,0,11611509,0,40811819,41301819,20711619,2140191,12011519,11302009,0,30611819,4081021,41401119,40510219,0,1191040,30811019,10411709,1110100,0,21811909,0,1201151,0,0,21201009,1051030,10610509,31610909,20700309,10101719
6,46,857.246533822035,1,0,193148.216253293,193149.263276274,1,70,2,0,1,29,0,8442343,4121190,7251531,3071040,0,0,3141111,0,0,0,3100131,2201101,0,0,0,0,0,0,0,0,4121190,0,0,0,3000140,0,0,1110201,0,3141190,0,0,-3071040,0,0,0,0,0,0,0
6,47,1395.60211918433,1,0,193151.227935703,193152.274958684,1,70,2,1,1,20,0,5232031,9492071,3060050,5191311,0,0,0,3181031,0,0,0,0,2051000,3161030,0,0,0,3190010,3141031,0,0,0,0,-3060050,0,0,0,0,0,0,0,0,0,0,0,4030170,0,1161141,0,0
6,48,1501.38631157461,1,0,193154.769006033,193155.816036329,1,70,2,0,1,14,20,123877538,103795097,174604274,149976754,2090101,30300609,31210719,0,1151050,31601919,21201809,2150150,4171181,0,3020131,4091030,10600219,-4150170,30511319,0,20010709,31411519,10100209,0,30200819,31201709,20600419,0,40500609,0,42000509,10500619,4050180,30502009,41711809,11201809,21610109,0,30400219,0
6,49,2116.38107997715,0,0,193163.756991401,193164.804017077,1,70,3,0,0,6,20,173515464,140768985,187223876,82058716,21101209,0,4070150,21401009,31010209,-3010050,30310209,41010809,21601819,21901209,0,41411809,3141110,40711619,20201809,10201319,0,3200110,30100819,40400709,4010021,30901709,0,0,0,40100009,41710609,2080070,0,10712009,3060000,4191100,31211709,10402009,0,20401819
6,50,1218.18208132754,0,0,193168.098054109,193169.145072471,1,70,3,0,0,14,5,15951141,73561268,25361839,36752401,0,0,0,0,10800009,0,4101101,0,1050031,0,0,0,0,-2150150,31400409,0,40010709,0,21310609,0,3040160,0,0,1011070,0,0,0,0,0,2140181,2081191,31511019,0,0,0,1020010
6,51,1164.0300079016,0,1,193171.439139145,193172.486162896,1,70,3,1,1,25,20,86856074,114296087,130253188,132049157,10710409,0,10410409,0,11810619,11501509,0,10711819,31711309,20810909,20911109,0,0,4050101,11200819,4021121,41401319,11900709,40300609,3010111,0,42010419,30100719,0,-3020011,11811319,0,10310809,31401619,1041180,40501519,20300619,3120010,21111219,3171011,1091171
6,52,854.132969543571,0,0,193174.780223025,193175.827236768,1,70,3,1,0,24,5,43783789,5180081,35994190,80754289,0,30400719,0,0,0,2181051,0,0,11202019,0,0,3160041,0,0,2020040,0,0,0,0,30701919,0,0,1071130,-3180031,0,0,1041110,0,0,0,30702019,41801119,0,4130150,0,4121001
6,53,917.690409201896,0,0,193177.709639278,193178.756571794,1,70,3,1,0,18,10,91496639,98534288,15051930,62722037,0,20601719,41200909,3170191,1091040,3011100,2020071,0,20401609,41202009,4090051,0,0,20900819,0,0,30300409,-2041000,0,0,11900819,0,0,0,2001011,0,1150100,11111419,0,30300009,0,0,21310609,0,0,0
6,54,1193.52725660428,0,0,193180.850633925,193181.897662296,1,70,3,0,0,27,5,16763220,44912620,16732401,71762989,0,0,11502009,0,2150061,3111150,0,0,0,0,40711419,0,0,4201201,0,0,0,0,0,0,1201181,0,0,0,0,11510209,-4021011,2201111,0,0,0,2150050,4111200,0,41700619,21600009
6,55,1510.55415690644,1,0,193184.097609094,193185.144628226,1,70,3,0,1,7,10,84623960,87964468,76863668,46653079,0,0,0,2131001,0,0,-1170031,41011209,40311719,0,21610319,0,1081100,0,0,21510719,41611319,2151011,0,0,20900809,0,21401019,3150121,0,31411719,0,1031080,0,21211509,0,0,1200191,3200190,20010109,0
6,56,1165.97329083015,1,0,193187.768092521,193188.815115502,1,70,3,1,1,5,20,138013678,158476897,169357976,189415225,30700019,2200101,0,2010131,-1080180,41511419,0,20000509,40511319,30800319,1130021,0,21810209,40111719,0,2011101,21112019,41501509,2131100,31412009,0,30300309,31201819,31601019,40511709,0,2200011,11510119,40200419,1191011,0,31501719,0,22010319,41701419,41300219
6,57,1139.98226658441,1,0,193191.015060761,193192.062082202,1,70,3,0,1,8,10,38654660,80755148,41472248,44622609,0,0,11911619,0,0,3080091,0,-2161141,21501809,40611609,0,0,21700109,10201119,3131081,1111050,4000180,0,11700819,11210219,4010101,0,0,0,4150200,10400909,0,30711409,0,0,11800109,2111091,0,0,0,0
6,58,872.706950991414,0,0,193194.344429509,193195.391401676,1,70,3,1,0,28,0,5301173,11190280,0,3152201,3080121,0,0,1101011,1120041,0,0,0,0,0,0,0,3120070,4030160,0,0,0,4040050,0,0,0,0,0,0,0,0,0,-1061021,0,0,0,0,2091180,0,0,0
6,59,939.608931425028,0,0,193197.3914113,193198.438386546,1,70,3,1,0,26,10,47784070,63392987,96374148,86023238,3111071,0,0,1121171,0,10411509,2030110,0,31110209,20511509,0,11511009,0,0,0,30200409,1170060,0,0,41802009,2031151,0,0,40310409,11200509,-1030070,0,3070080,40000519,1051030,0,0,0,0,0,41901609
6,60,729.357113072183,0,0,193200.567735739,193201.614759875,1,70,3,0,0,29,0,4090191,4213312,3321120,3361230,0,0,0,0,0,0,4090191,0,0,0,1091030,0,0,2071121,0,0,0,1051161,0,2150110,0,1171010,0,0,0,0,0,1170190,-2191040,0,0,0,0,0,0,0
6,61,1985.28878402431,0,0,193203.461768305,193204.508797831,1,70,3,0,0,1,0,8334264,5282210,5081131,0,-4091011,0,0,0,1121181,2121001,0,1001071,0,0,0,0,3141030,0,0,2141180,0,0,4021010,0,0,1060121,0,0,0,0,0,0,0,0,0,0,0,0,0,0
6,62,1589.27482381114,0,0,193207.614602041,193208.661620788,1,70,3,0,0,30,20,238527503,150724827,80623179,143345146,40601119,0,21911809,0,41611509,41100419,20500309,30800319,42002019,30110609,3161201,0,22010209,2180200,40401009,1050061,11210619,40600919,31711709,3110140,0,0,1010091,0,40611109,4180130,0,11100619,11811109,-3051061,21200809,11000109,40010209,42010209,0,3161021
6,63,1457.88418315351,1,0,193211.285128583,193212.332125387,1,70,3,0,1,4,20,174043996,119575796,99574387,231247484,22000909,0,1090121,-4180000,3150010,40000919,31910709,30601209,41110119,30801409,21101219,0,41201309,0,10011519,10300109,2150031,4010200,41901309,3040180,31510309,2021170,0,0,21101419,0,0,41111319,40401219,40811009,10810719,21901219,42000709,0,3100071,31111219
6,64,1326.352646749,0,0,193214.861455948,193215.908474694,1,70,3,1,0,35,10,106405056,22762630,51835499,91484149,0,0,41911319,21210609,0,0,2171100,20701219,20410809,0,0,0,20611519,2151111,0,0,0,0,0,3021120,0,20201219,0,3040111,0,21402019,4171030,21012009,40200909,3140191,0,21000909,3010130,0,-3120001,0
6,65,897.803710890003,1,0,193218.3319433,193219.378964357,1,70,3,1,1,34,0,8290292,4160161,8231151,8360131,0,0,4190161,0,4100131,0,0,0,0,0,0,0,0,0,4160161,0,0,0,0,3111041,0,0,1070070,4050040,0,0,0,0,0,0,0,0,4160031,-4200100,0,0
6,66,1699.34940614621,1,0,193221.308335185,193222.355360091,1,70,3,1,1,20,0,5232031,9492071,3060050,5191311,0,0,0,3181031,0,0,0,0,2051000,3161030,0,0,0,3190010,3141031,0,0,0,0,-3060050,0,0,0,0,0,0,0,0,0,0,0,4030170,0,1161141,0,0
6,67,1084.07130651176,1,0,193225.237640954,193226.28466432,1,70,3,1,1,13,5,64352089,66473110,40865131,2021131,0,30010519,0,0,0,2190100,0,31101409,1050061,0,0,41010909,-4141031,20310119,1011051,0,0,0,31601919,4041181,0,4111021,0,0,0,1111010,0,2021131,0,0,0,0,0,0,0,0
6,68,459.569157275837,0,0,193228.46107345,193229.508104516,1,70,3,0,0,22,0,11382101,0,8261331,8241433,0,0,4110080,4131011,0,0,3141010,0,0,0,0,0,0,0,0,0,0,0,0,0,0,-4110171,4151160,0,0,0,0,0,0,0,0,0,0,1021141,3070201,4150091
6,69,517.492308281362,1,0,193231.002183431,193232.049211417,1,70,3,0,1,15,5,15540640,55131859,24641239,19080710,0,0,2130171,0,11210119,0,1080170,0,1120180,3190010,40700409,0,10211409,0,-1030031,0,0,0,0,3040120,0,0,21601119,0,0,0,0,0,11810609,0,0,3130011,0,0,4140090,0
6,70,1423.60186969745,1,0,193233.660934787,193234.708022442,1,70,3,1,1,33,5,54893110,3121080,54993150,34561840,3110011,1181071,0,0,0,40001319,0,10600709,0,0,0,0,0,0,0,3121080,0,0,0,0,40111209,0,10610619,2071121,2200201,0,0,0,0,0,30100619,1081070,-1190050,0,0,2190101
6,71,1697.75528280297,1,0,193237.155002924,193238.201973936,1,70,3,1,1,3,20,159757277,163561116,105845996,96476636,32000619,41001609,-3030201,30111519,1190001,0,11611509,0,40811819,41301819,20711619,2140191,12011519,11302009,0,30611819,4081021,41401119,40510219,0,1191040,30811019,10411709,1110100,0,21811909,0,1201151,0,0,21201009,1051030,10610509,31610909,20700309,10101719
6,72,1101.29292006604,0,0,193241.025438538,193242.072454205,1,70,3,0,0,31,10,42843599,92213237,128737376,46502990,3021090,0,0,0,4061010,1201050,30400419,0,4160030,40200819,30501709,0,21510709,0,0,0,0,0,20711909,0,0,30110819,11010109,3080021,20201419,41511919,2111180,0,0,0,-4191161,0,41201719,1110110,0,0
6,73,622.963912406703,1,0,193247.613477185,193248.660504401,1,70,4,0,1,22,10,48642589,82835218,43624108,23811649,0,0,2120041,11400719,20600219,2021100,10300319,2200191,0,30201209,0,4061051,0,20500509,0,2121100,4141130,21810219,0,0,0,-1101161,21610019,10801009,10111919,0,0,0,20811519,0,0,0,0,3000130,0,0
6,74,946.550162509084,1,0,193250.331055965,193251.378081257,1,70,4,0,1,31,0,3160130,2171130,7292312,8341261,0,0,0,0,0,0,3160130,0,0,0,0,0,0,0,0,2171130,0,0,0,0,2030091,0,1201091,0,4061130,0,0,0,3140021,0,-4021170,0,0,1180070,0,0
6,75,821.007078833645,1,0,193253.354505477,193254.40151999,1,70,4,1,1,35,10,106405056,22762630,51835499,91484149,0,0,41911319,21210609,0,0,2171100,20701219,20410809,0,0,0,20611519,2151111,0,0,0,0,0,3021120,0,20201219,0,3040111,0,21402019,4171030,21012009,40200909,3140191,0,21000909,3010130,0,-3120001,0
6,76,2033.04126646253,0,0,193256.26030707,193257.307328127,1,70,4,0,0,1,20,151597938,102053918,181475583,180078017,-1160121,31810309,0,40011109,31702009,3051051,31201809,2160111,10501419,0,30810619,0,21400309,4091041,4040130,0,0,41711819,0,30912009,40010719,21500109,41300209,21610009,11210219,10811119,4121190,41011819,2121121,2020021,12011809,0,0,40701609,41011319,41200319
6,77,606.505676434608,1,0,193260.4248902,193261.47192011,1,70,4,0,1,15,20,99313129,172006773,126844094,146096299,41401519,0,31610709,0,3190061,20100809,3010031,0,0,4010130,11111409,30410119,21100219,11611319,-1151140,30400719,30411609,31800109,20301119,0,0,30610219,21811709,11300419,11710009,0,31110619,40500019,4150161,2031061,0,31400409,2101200,3001021,21301709,41610719
6,78,1383.53243816528,0,0,193263.177756042,193264.224779023,1,70,4,1,0,24,5,43783789,5180081,35994190,80754289,0,30400719,0,0,0,2181051,0,0,11202019,0,0,3160041,0,0,2020040,0,0,0,0,30701919,0,0,1071130,-3180031,0,0,1041110,0,0,0,30702019,41801119,0,4130150,0,4121001
6,79,793.103953503305,0,0,193266.801189924,193267.848210981,1,70,4,0,0,27,10,43093121,105254767,97557016,28242968,3090071,31812019,4071001,0,0,4120030,0,0,0,0,0,40011309,30101409,0,3130140,0,32011909,0,1170160,0,11012019,0,41810319,30501609,0,11901709,-1161200,0,0,11500719,0,0,2070190,11601009,0,3071050
6,80,1500.5698094028,0,0,193269.812867715,193270.859897241,1,70,4,0,0,6,0,6150272,10261412,5182181,4000201,0,0,0,0,0,-3030081,0,3120191,0,0,0,0,0,4011091,4140150,2110171,0,0,0,0,1111021,0,0,0,0,0,4071160,4000201,0,0,0,0,0,0,0,0
6,81,1927.51345803845,1,0,193273.459818478,193274.506849543,1,70,4,0,1,7,10,68421939,56994710,76674079,35434037,0,0,0,0,0,4181040,-2140071,41200609,20900219,4051091,1030081,40511819,0,0,0,0,0,11401719,2120071,0,0,20600819,0,30501609,2040071,0,21411509,0,10301419,11400019,1110120,0,0,10611319,2011160,0
6,82,1713.78120765439,0,0,193277.518539653,193278.56555686,1,70,4,0,0,14,5,54311749,10432663,36142610,45812698,0,31011409,20200319,0,0,0,0,3100021,0,3140191,0,0,0,-2091150,3000181,2201141,0,0,0,0,0,0,0,2040040,0,2201151,31901419,0,0,0,4191060,0,0,0,31410219,10211419
6,83,1323.82614797098,1,0,193281.365494573,193282.41251332,1,70,4,0,1,8,5,41114880,77722498,4151080,56702200,30901609,0,4051081,4011050,0,0,0,-2151140,0,0,0,0,32000209,4121070,0,0,0,41601219,0,0,1010050,0,0,0,3141030,0,0,0,40110319,0,0,4050141,1031021,0,0,11510719
6,84,661.672122019809,1,0,193284.812453497,193285.859477248,1,70,4,1,1,26,10,47784070,63392987,96374148,86023238,3111071,0,0,1121171,0,10411509,2030110,0,31110209,20511509,0,11511009,0,0,0,30200409,1170060,0,0,41802009,2031151,0,0,40310409,11200509,-1030070,0,3070080,40000519,1051030,0,0,0,0,0,41901609
6,85,1529.75831940421,0,0,193287.565316259,193288.612378507,1,70,4,1,0,20,0,5232031,9492071,3060050,5191311,0,0,0,3181031,0,0,0,0,2051000,3161030,0,0,0,3190010,3141031,0,0,0,0,-3060050,0,0,0,0,0,0,0,0,0,0,0,4030170,0,1161141,0,0
6,86,1947.03482836485,0,0,193291.224038358,193292.271054795,1,70,4,0,0,4,20,132705046,145377215,138343448,89356066,40310509,20110919,0,-2010030,31011319,4070200,20701709,11300319,3190041,11400409,0,4170101,20411909,31100909,21001019,41211409,11900319,4181140,4100031,0,40411409,0,10100009,2030081,0,40300909,41401009,0,11710309,12000519,40911719,0,3030181,11201519,0,10501819
6,87,1643.43344161171,1,0,193295.282749909,193296.329772891,1,70,4,1,1,25,20,86856074,114296087,130253188,132049157,10710409,0,10410409,0,11810619,11501509,0,10711819,31711309,20810909,20911109,0,0,4050101,11200819,4021121,41401319,11900709,40300609,3010111,0,42010419,30100719,0,-3020011,11811319,0,10310809,31401619,1041180,40501519,20300619,3120010,21111219,3171011,1091171
6,88,1030.88048059726,0,0,193299.000295968,193300.04731587,1,70,4,1,0,34,0,8290292,4160161,8231151,8360131,0,0,4190161,0,4100131,0,0,0,0,0,0,0,0,0,4160161,0,0,0,0,3111041,0,0,1070070,4050040,0,0,0,0,0,0,0,0,4160031,-4200100,0,0
6,89,1536.17484870483,0,0,193302.223730389,193303.270750676,1,70,4,1,0,33,5,54893110,3121080,54993150,34561840,3110011,1181071,0,0,0,40001319,0,10600709,0,0,0,0,0,0,0,3121080,0,0,0,0,40111209,0,10610619,2071121,2200201,0,0,0,0,0,30100619,1081070,-1190050,0,0,2190101
6,90,1211.13652581698,1,0,193305.917742245,193306.964765226,1,70,4,0,1,29,0,6352361,5152250,3001001,4101040,0,2131080,2100181,0,1011100,0,0,1110000,0,0,4051150,0,0,1101100,0,0,0,0,0,0,0,0,0,0,0,0,3001001,0,-4101040,0,0,0,0,0,0,0
6,91,882.651647465536,1,0,193309.341180824,193310.388204575,1,70,4,0,1,30,5,20841710,101621857,4171200,46522090,0,0,2070101,4130060,0,11501519,0,3140030,0,0,0,0,0,20110119,0,40310319,0,41201419,0,0,3160200,0,0,0,1011000,0,0,3101050,1120021,-2001000,0,0,0,40300019,0,0
6,92,1411.38898322242,0,0,193312.364621097,193313.411644078,1,70,4,1,0,5,20,138013678,158476897,169357976,189415225,30700019,2200101,0,2010131,-1080180,41511419,0,20000509,40511319,30800319,1130021,0,21810209,40111719,0,2011101,21112019,41501509,2131100,31412009,0,30300309,31201819,31601019,40511709,0,2200011,11510119,40200419,1191011,0,31501719,0,22010319,41701419,41300219
6,93,794.604916300159,1,0,193315.882179936,193316.929192908,1,70,4,1,1,18,10,91496639,98534288,15051930,62722037,0,20601719,41200909,3170191,1091040,3011100,2020071,0,20401609,41202009,4090051,0,0,20900819,0,0,30300409,-2041000,0,0,11900819,0,0,0,2001011,0,1150100,11111419,0,30300009,0,0,21310609,0,0,0
6,94,840.243193117203,0,0,193318.752671369,193319.799700895,1,70,4,1,0,13,5,64352089,66473110,40865131,2021131,0,30010519,0,0,0,2190100,0,31101409,1050061,0,0,41010909,-4141031,20310119,1011051,0,0,0,31601919,4041181,0,4111021,0,0,0,1111010,0,2021131,0,0,0,0,0,0,0,0
6,95,641.090954159154,0,0,193321.693813918,193322.740794554,1,70,4,1,0,28,0,5301173,11190280,0,3152201,3080121,0,0,1101011,1120041,0,0,0,0,0,0,0,3120070,4030160,0,0,0,4040050,0,0,0,0,0,0,0,0,0,-1061021,0,0,0,0,2091180,0,0,0
6,96,1477.64923376963,0,0,193324.423110525,193325.470134661,1,70,4,1,0,3,20,159757277,163561116,105845996,96476636,32000619,41001609,-3030201,30111519,1190001,0,11611509,0,40811819,41301819,20711619,2140191,12011519,11302009,0,30611819,4081021,41401119,40510219,0,1191040,30811019,10411709,1110100,0,21811909,0,1201151,0,0,21201009,1051030,10610509,31610909,20700309,10101719
6,97,937.622917845147,0,0,193339.552090155,193340.599120836,1,70,5,1,0,35,10,106405056,22762630,51835499,91484149,0,0,41911319,21210609,0,0,2171100,20701219,20410809,0,0,0,20611519,2151111,0,0,0,0,0,3021120,0,20201219,0,3040111,0,21402019,4171030,21012009,40200909,3140191,0,21000909,3010130,0,-3120001,0
6,98,1298.9503556164,0,0,193342.62259922,193343.669623356,1,70,5,1,0,3,20,159757277,163561116,105845996,96476636,32000619,41001609,-3030201,30111519,1190001,0,11611509,0,40811819,41301819,20711619,2140191,12011519,11302009,0,30611819,4081021,41401119,40510219,0,1191040,30811019,10411709,1110100,0,21811909,0,1201151,0,0,21201009,1051030,10610509,31610909,20700309,10101719
6,99,817.955108330352,1,0,193346.163680714,193347.210701001,1,70,5,1,1,26,10,47784070,63392987,96374148,86023238,3111071,0,0,1121171,0,10411509,2030110,0,31110209,20511509,0,11511009,0,0,0,30200409,1170060,0,0,41802009,2031151,0,0,40310409,11200509,-1030070,0,3070080,40000519,1051030,0,0,0,0,0,41901609
6,100,913.067412999226,1,0,193349.069479612,193350.116502593,1,70,5,0,1,30,0,6292182,0,6343342,8371131,0,2181161,0,0,0,4111021,0,0,0,0,0,0,0,0,0,0,0,0,0,0,0,1091171,4181131,0,0,1071040,0,0,0,-1100001,0,4191060,0,3080070,0,0
6,101,1364.07843598863,0,0,193352.116456013,193353.163478224,1,70,5,1,0,20,0,5232031,9492071,3060050,5191311,0,0,0,3181031,0,0,0,0,2051000,3161030,0,0,0,3190010,3141031,0,0,0,0,-3060050,0,0,0,0,0,0,0,0,0,0,0,4030170,0,1161141,0,0
6,102,2016.22771151597,0,0,193355.728121639,193356.775141156,1,70,5,1,0,5,20,138013678,158476897,169357976,189415225,30700019,2200101,0,2010131,-1080180,41511419,0,20000509,40511319,30800319,1130021,0,21810209,40111719,0,2011101,21112019,41501509,2131100,31412009,0,30300309,31201819,31601019,40511709,0,2200011,11510119,40200419,1191011,0,31501719,0,22010319,41701419,41300219
6,103,1517.16201179079,1,0,193359.96329429,193361.010323046,1,70,5,0,1,4,20,82176479,261038432,121205915,132827436,0,0,21611119,-3120050,31101619,0,2031111,4111061,20201519,3071010,40411019,11501309,40500619,20211219,41310409,40411319,32010019,31611509,4171050,0,21111709,11210509,31311209,41800419,0,11601019,0,0,31401219,31801809,0,2030100,3151170,2131200,30500519,31811419
6,104,1373.45493011526,1,0,193363.680836114,193364.727866025,1,70,5,0,1,6,0,10402370,0,1130081,7442221,0,0,2110040,0,0,-2181160,0,4091060,2020110,0,0,0,0,0,0,0,0,0,0,0,0,0,0,0,0,1130081,0,1201120,2111021,0,0,0,0,0,4130080,0
6,105,1703.11855894397,0,0,193367.257213139,193368.304231501,1,70,5,0,0,1,20,104908595,78525129,155677065,173048008,-4161131,10401709,11911309,31401609,20802009,11400219,0,3030190,11800419,4000071,10301819,21800409,40411719,2011111,0,0,0,0,40501609,10500819,0,30410509,40311219,10700009,0,3141181,20111719,1141151,41700619,31511609,22012009,0,3170121,1200071,31110509,41201919
6,106,520.189729752019,1,0,193371.010049724,193372.057072705,1,70,5,0,1,22,5,55974419,22281410,54442280,9242201,3071130,20710709,0,0,0,2191061,0,30001519,0,0,0,21211209,0,0,0,0,1070201,0,0,0,2090191,-1041051,0,21210219,30100819,0,0,0,4100020,0,1131091,0,0,0,4011090,0
6,107,1281.51932332548,0,0,193373.774678433,193374.821696795,1,70,5,1,0,13,5,64352089,66473110,40865131,2021131,0,30010519,0,0,0,2190100,0,31101409,1050061,0,0,41010909,-4141031,20310119,1011051,0,0,0,31601919,4041181,0,4111021,0,0,0,1111010,0,2021131,0,0,0,0,0,0,0,0
6,108,874.765722197481,1,0,193377.233406383,193378.28042436,1,70,5,1,1,33,5,54893110,3121080,54993150,34561840,3110011,1181071,0,0,0,40001319,0,10600709,0,0,0,0,0,0,0,3121080,0,0,0,0,40111209,0,10610619,2071121,2200201,0,0,0,0,0,30100619,1081070,-1190050,0,0,2190101
6,109,1086.29522597766,1,0,193380.256852815,193381.303921607,1,70,5,1,1,24,5,43783789,5180081,35994190,80754289,0,30400719,0,0,0,2181051,0,0,11202019,0,0,3160041,0,0,2020040,0,0,0,0,30701919,0,0,1071130,-3180031,0,0,1041110,0,0,0,30702019,41801119,0,4130150,0,4121001
6,110,1083.95427837968,1,0,193383.58616459,193384.633184492,1,70,5,0,1,14,5,7360342,11121409,53822859,48391829,0,1150061,2170161,0,0,0,4040120,0,0,0,0,10110319,0,-1011090,0,0,0,0,2100031,0,0,0,1120010,0,0,40101509,10501309,10600309,0,0,0,4131131,3050070,30610319,0,0
6,111,515.331907372456,0,0,193386.903717732,193387.950746488,1,70,5,0,0,15,0,4030271,6222131,1071080,6282313,2010120,0,0,0,0,2020151,0,0,0,0,0,0,4171070,0,-2051061,0,0,0,0,0,0,0,0,1071080,0,0,0,2030141,0,0,0,0,0,2091011,0,2161161
6,112,462.904844025616,1,0,193389.480122474,193390.527140066,1,70,5,1,1,28,0,5301173,11190280,0,3152201,3080121,0,0,1101011,1120041,0,0,0,0,0,0,0,3120070,4030160,0,0,0,4040050,0,0,0,0,0,0,0,0,0,-1061021,0,0,0,0,2091180,0,0,0
6,113,1057.20180136268,0,0,193392.032987623,193393.080008679,1,70,5,0,0,8,10,39224099,40401979,45844109,95238465,0,11012019,0,0,0,21110809,3051200,-4050071,0,0,2011040,31000819,0,0,0,3200050,0,4190070,1020081,10300919,0,0,0,2090200,0,30401909,2031000,20612009,32000619,0,10212019,21011909,11401909,0,0,0
6,114,765.188894380117,1,0,193395.232902854,193396.279922371,1,70,5,1,1,18,10,91496639,98534288,15051930,62722037,0,20601719,41200909,3170191,1091040,3011100,2020071,0,20401609,41202009,4090051,0,0,20900819,0,0,30300409,-2041000,0,0,11900819,0,0,0,2001011,0,1150100,11111419,0,30300009,0,0,21310609,0,0,0
6,115,1143.70406913804,0,0,193398.162228256,193399.209284729,1,70,5,0,0,31,10,67363319,28302279,90105747,70163819,3180060,2071041,0,31511509,30600709,0,0,0,0,10700109,0,11210709,0,0,0,2140120,2091200,2160141,0,4200181,12000819,10801919,0,31401519,0,31701309,0,41010819,21111719,0,-4031141,4010140,0,0,0,0
6,116,941.494855185738,1,0,193401.397439403,193402.444455456,1,70,5,0,1,27,5,39126010,19391430,43212920,38071250,4091061,0,0,0,2151190,10110909,0,2071141,20701709,0,4020061,0,0,0,4061150,0,11310219,0,0,0,41211719,0,0,0,0,0,-2001201,0,0,0,0,4170130,3200101,0,30701019,0
6,117,1304.42219070392,0,0,193404.538528751,193405.585545958,1,70,5,0,0,7,10,46273699,77693578,39504731,128926256,0,0,0,0,10401809,31801819,-4070071,0,0,40501009,4110060,0,0,0,32001319,0,0,1081190,0,0,2081090,2100111,1171170,3151051,31001309,0,0,40511909,0,0,11910009,0,30600619,22011419,2191091,21701209
6,118,1334.42720293533,1,0,193407.938422732,193408.985454183,1,70,5,0,1,29,20,189671112,76354837,117864407,131357399,21210209,30001519,11711219,0,11901419,31911609,41611219,30611909,10712009,10801109,41211509,0,1041160,0,0,11400509,1000031,10900519,0,21411909,40510319,21600409,0,30200519,1110181,3031070,0,3091111,-1031031,41400009,10510619,30800909,0,2101100,40411509,2011111
6,119,934.997099131579,0,0,193411.514800912,193412.561820814,1,70,5,1,0,34,0,8290292,4160161,8231151,8360131,0,0,4190161,0,4100131,0,0,0,0,0,0,0,0,0,4160161,0,0,0,0,3111041,0,0,1070070,4050040,0,0,0,0,0,0,0,0,4160031,-4200100,0,0
6,120,1359.6409909951,0,0,193414.63235798,193415.679386736,1,70,5,1,0,25,20,86856074,114296087,130253188,132049157,10710409,0,10410409,0,11810619,11501509,0,10711819,31711309,20810909,20911109,0,0,4050101,11200819,4021121,41401319,11900709,40300609,3010111,0,42010419,30100719,0,-3020011,11811319,0,10310809,31401619,1041180,40501519,20300619,3120010,21111219,3171011,1091171
6,121,1493.42377908761,1,0,193422.326262432,193423.373285028,1,70,6,1,1,33,5,54893110,3121080,54993150,34561840,3110011,1181071,0,0,0,40001319,0,10600709,0,0,0,0,0,0,0,3121080,0,0,0,0,40111209,0,10610619,2071121,2200201,0,0,0,0,0,30100619,1081070,-1190050,0,0,2190101
6,122,627.179234928917,0,0,193425.902638686,193426.949654738,1,70,6,0,0,15,20,145622984,164615377,129455947,124536147,0,30910019,10310709,31100509,31301109,20800219,21200419,0,0,4060060,0,2190150,0,41000819,-4140101,40810519,40911819,31501909,0,10711509,40210409,1101041,32001419,20611509,0,4110051,20710009,11000409,0,11910719,2010011,4091041,31411519,2091110,20710619,41310719
6,123,681.536877527833,0,0,193428.620198603,193429.667229669,1,70,6,0,0,27,10,69940388,111804156,63811248,38353050,0,3030120,0,31600009,31310219,0,0,0,4000040,30601109,30000709,0,0,0,40701519,0,0,10500819,20201019,0,0,0,0,40400019,1110130,0,-2100080,0,2111081,0,2180090,1180200,1180151,21200019,10501509,0
6,124,1439.00646755355,1,0,193431.443653582,193432.490683493,1,70,6,1,1,5,20,138013678,158476897,169357976,189415225,30700019,2200101,0,2010131,-1080180,41511419,0,20000509,40511319,30800319,1130021,0,21810209,40111719,0,2011101,21112019,41501509,2131100,31412009,0,30300309,31201819,31601019,40511709,0,2200011,11510119,40200419,1191011,0,31501719,0,22010319,41701419,41300219
6,125,1465.87366293534,0,0,193434.984731996,193436.031756517,1,70,6,0,0,4,10,97631688,77086406,36262410,18813161,0,0,40200719,-3180121,0,41510009,0,1030020,11710819,21211819,20600309,4151050,0,20111519,0,11011709,0,0,0,2190130,1171201,0,0,0,10100309,1190161,21610609,0,4011151,0,4190001,0,10612009,0,0,0
6,126,658.234035683563,1,0,193438.690509798,193439.737532395,1,70,6,1,1,18,10,91496639,98534288,15051930,62722037,0,20601719,41200909,3170191,1091040,3011100,2020071,0,20401609,41202009,4090051,0,0,20900819,0,0,30300409,-2041000,0,0,11900819,0,0,0,2001011,0,1150100,11111419,0,30300009,0,0,21310609,0,0,0
6,127,1502.16354778968,1,0,193441.537494745,193442.584509258,1,70,6,1,1,25,20,86856074,114296087,130253188,132049157,10710409,0,10410409,0,11810619,11501509,0,10711819,31711309,20810909,20911109,0,0,4050101,11200819,4021121,41401319,11900709,40300609,3010111,0,42010419,30100719,0,-3020011,11811319,0,10310809,31401619,1041180,40501519,20300619,3120010,21111219,3171011,1091171
6,128,868.709901318653,1,0,193445.113866381,193446.160893982,1,70,6,1,1,34,0,8290292,4160161,8231151,8360131,0,0,4190161,0,4100131,0,0,0,0,0,0,0,0,0,4160161,0,0,0,0,3111041,0,0,1070070,4050040,0,0,0,0,0,0,0,0,4160031,-4200100,0,0
6,129,1517.17933503096,1,0,193448.137309348,193449.184331945,1,70,6,1,1,20,0,5232031,9492071,3060050,5191311,0,0,0,3181031,0,0,0,0,2051000,3161030,0,0,0,3190010,3141031,0,0,0,0,-3060050,0,0,0,0,0,0,0,0,0,0,0,4030170,0,1161141,0,0
6,130,959.468297514832,1,0,193451.748968815,193452.795995646,1,70,6,0,1,30,0,2200120,7091241,8381581,1171121,0,2200120,0,0,0,0,0,0,0,0,0,0,0,0,0,0,3000041,4091200,0,2190120,0,4071180,1090190,0,0,1030091,0,0,0,-1171121,0,0,0,0,0,0
6,131,1100.15420554555,0,0,193454.925354078,193455.972373594,1,70,6,0,0,14,10,66583308,56133130,62173379,60913357,2060121,40401509,11900409,0,0,0,11110219,0,1111050,1030141,0,0,1161060,-2120011,21511309,0,30310609,0,0,0,3011091,0,3080130,4071140,10510709,41500309,0,10101219,0,20800519,0,0,0,30011619,0,0
6,132,733.883484062972,0,0,193458.113499898,193459.16051518,1,70,6,0,0,22,0,7091323,1061011,5213192,2131120,0,0,0,0,0,3011001,1040131,0,3040191,1061011,0,0,0,0,0,0,0,0,0,0,0,-2041001,2111080,0,0,0,1061111,0,0,0,0,0,0,0,0,2131120
6,133,973.660268296953,0,0,193460.948738531,193461.99578769,1,70,6,0,0,29,0,2271260,6071120,7141332,5250332,1080130,0,0,0,0,1191130,0,0,0,0,0,0,0,0,2071000,0,0,4000120,0,0,3110201,0,0,4031131,0,0,0,0,-4160191,0,1090141,0,0,0,0,0
6,134,1335.61326764175,1,0,193463.995751889,193465.042713276,1,70,6,1,1,26,10,47784070,63392987,96374148,86023238,3111071,0,0,1121171,0,10411509,2030110,0,31110209,20511509,0,11511009,0,0,0,30200409,1170060,0,0,41802009,2031151,0,0,40310409,11200509,-1030070,0,3070080,40000519,1051030,0,0,0,0,0,41901609
6,135,1840.61275562271,0,0,193467.442673086,193468.48967759,1,70,6,0,0,1,5,34451379,29012309,53333079,10482260,-4040051,0,0,0,0,20110009,0,0,10301319,3021200,0,4090200,21900909,0,0,0,0,0,0,0,0,0,40600709,0,0,1131051,11601319,0,3161010,0,0,1150020,0,0,4140070,2031160
6,136,692.857809481211,1,0,193471.50135846,193472.548383366,1,70,6,1,1,24,5,43783789,5180081,35994190,80754289,0,30400719,0,0,0,2181051,0,0,11202019,0,0,3160041,0,0,2020040,0,0,0,0,30701919,0,0,1071130,-3180031,0,0,1041110,0,0,0,30702019,41801119,0,4130150,0,4121001
6,137,2080.03345096949,1,0,193474.454219605,193475.501242972,1,70,6,0,1,31,20,154877406,148646594,49241690,147518683,10311609,2200200,3090170,40010709,41101819,30500119,2010051,4051110,21601619,0,20510009,0,41411409,0,11701719,21111119,42011819,11900519,30301309,0,4150061,0,4080201,0,10710119,0,0,40900609,31801609,11100709,-4100120,3000080,11902009,11100709,21810919,11801919
6,138,836.539868672844,1,0,193478.771746955,193479.818768012,1,70,6,1,1,13,5,64352089,66473110,40865131,2021131,0,30010519,0,0,0,2190100,0,31101409,1050061,0,0,41010909,-4141031,20310119,1011051,0,0,0,31601919,4041181,0,4111021,0,0,0,1111010,0,2021131,0,0,0,0,0,0,0,0
6,139,1454.95078063686,0,0,193481.842247166,193482.889270147,1,70,6,0,0,8,20,172134475,133888277,109846827,143917013,0,42011109,3090190,20400309,41301809,0,41000009,-3031030,21300019,4110080,31711619,0,2071130,21302019,0,41510819,2071091,31111519,40701819,0,0,0,20401519,3120111,4010160,11401909,30211309,21401219,32001709,11611109,12010519,11800809,0,31610309,20301309,3180030
6,140,1448.88418083428,1,0,193485.536267105,193486.583284312,1,70,6,0,1,6,5,66542149,6150202,91743769,7220162,0,0,0,0,31401909,-4040031,0,31100209,0,0,3030191,0,0,0,0,3120011,0,0,0,2150181,22010519,31810809,1180041,0,0,4081110,30511109,0,0,3090071,0,0,0,0,4130091,0
6,141,1277.83024241216,0,0,193489.183223257,193490.230243929,1,70,6,0,0,7,5,26080810,87611889,38594320,22942610,1050111,20900619,0,0,0,0,-4130080,0,0,0,0,3180081,1020190,0,0,42000209,41411409,0,3140000,0,0,2151160,2201151,0,0,0,31102009,0,0,0,0,0,20811409,0,0,2131201
6,142,991.143270337489,1,0,193492.641945818,193493.688970339,1,70,6,1,1,3,20,159757277,163561116,105845996,96476636,32000619,41001609,-3030201,30111519,1190001,0,11611509,0,40811819,41301819,20711619,2140191,12011519,11302009,0,30611819,4081021,41401119,40510219,0,1191040,30811019,10411709,1110100,0,21811909,0,1201151,0,0,21201009,1051030,10610509,31610909,20700309,10101719
6,143,1131.07157521881,0,0,193495.888919447,193496.935943199,1,70,6,1,0,35,10,106405056,22762630,51835499,91484149,0,0,41911319,21210609,0,0,2171100,20701219,20410809,0,0,0,20611519,2151111,0,0,0,0,0,3021120,0,20201219,0,3040111,0,21402019,4171030,21012009,40200909,3140191,0,21000909,3010130,0,-3120001,0
6,144,533.649119810434,0,0,193499.253527523,193500.300550889,1,70,6,1,0,28,0,5301173,11190280,0,3152201,3080121,0,0,1101011,1120041,0,0,0,0,0,0,0,3120070,4030160,0,0,0,4040050,0,0,0,0,0,0,0,0,0,-1061021,0,0,0,0,2091180,0,0,0
6,145,1857.86054652999,1,0,193505.37099836,193506.418027501,1,70,7,0,1,1,20,91078259,188084696,128235856,150468795,-4201111,0,0,10001309,31201909,41511709,0,1021060,3141161,40911019,1140141,41010109,11110919,2190171,0,41111519,10100209,40510609,21111619,31211219,0,0,11910119,31411509,1091171,31500219,0,0,31711609,21511119,1160101,3061200,21411519,30701819,10810309,30101119
6,146,869.962564262096,1,0,193509.370892111,193510.417919712,1,70,7,0,1,30,10,67283179,108445567,58953550,66832329,3010070,0,0,31211009,1150091,0,31912009,0,0,0,4181111,0,11010809,0,41011219,1131010,10901309,40210109,20001209,31700909,0,0,2070080,1181151,0,0,4000201,0,0,-4110011,30710309,0,0,0,0,32012009
6,147,2004.59727097768,0,0,193512.488452259,193513.53547447,1,70,7,1,0,26,10,47784070,63392987,96374148,86023238,3111071,0,0,1121171,0,10411509,2030110,0,31110209,20511509,0,11511009,0,0,0,30200409,1170060,0,0,41802009,2031151,0,0,40310409,11200509,-1030070,0,3070080,40000519,1051030,0,0,0,0,0,41901609
6,148,1192.33580242144,0,0,193516.629515429,193517.67654072,1,70,7,1,0,20,0,5232031,9492071,3060050,5191311,0,0,0,3181031,0,0,0,0,2051000,3161030,0,0,0,3190010,3141031,0,0,0,0,-3060050,0,0,0,0,0,0,0,0,0,0,0,4030170,0,1161141,0,0
6,149,932.927549001761,1,0,193519.958832208,193521.005853264,1,70,7,1,1,13,5,64352089,66473110,40865131,2021131,0,30010519,0,0,0,2190100,0,31101409,1050061,0,0,41010909,-4141031,20310119,1011051,0,0,0,31601919,4041181,0,4111021,0,0,0,1111010,0,2021131,0,0,0,0,0,0,0,0
6,150,832.57631061133,1,0,193523.088160997,193524.135177819,1,70,7,1,1,25,20,86856074,114296087,130253188,132049157,10710409,0,10410409,0,11810619,11501509,0,10711819,31711309,20810909,20911109,0,0,4050101,11200819,4021121,41401319,11900709,40300609,3010111,0,42010419,30100719,0,-3020011,11811319,0,10310809,31401619,1041180,40501519,20300619,3120010,21111219,3171011,1091171
6,151,1086.46075919387,0,0,193526.076307279,193527.123334111,1,70,7,0,0,6,20,219849553,65346110,180779163,98431426,20400909,41210219,31210609,42001819,30811919,-1111150,31201319,21901609,0,0,3131000,1130110,4131181,31010709,2200001,0,2131100,21612009,11710919,31211319,30610319,40311109,20811519,0,4001050,30910909,11212019,0,10710119,20511019,0,0,4190160,41910109,21110019,0
6,152,1691.98895257432,0,0,193529.252689848,193530.299717833,1,70,7,1,0,18,10,91496639,98534288,15051930,62722037,0,20601719,41200909,3170191,1091040,3011100,2020071,0,20401609,41202009,4090051,0,0,20900819,0,0,30300409,-2041000,0,0,11900819,0,0,0,2001011,0,1150100,11111419,0,30300009,0,0,21310609,0,0,0
6,153,985.13171999366,1,0,193533.158463723,193534.205485934,1,70,7,0,1,4,10,79714210,44911680,69103448,107193756,0,0,30700619,-1201031,4001121,40811309,3000130,0,0,0,0,40900509,0,4011171,0,0,0,0,3061030,0,2031091,41310209,0,11500509,11200609,0,0,0,42000619,30600819,10110419,20410819,0,0,1060060,3011020
6,154,1372.55258162622,1,0,193536.370139127,193537.417162878,1,70,7,1,1,5,20,138013678,158476897,169357976,189415225,30700019,2200101,0,2010131,-1080180,41511419,0,20000509,40511319,30800319,1130021,0,21810209,40111719,0,2011101,21112019,41501509,2131100,31412009,0,30300309,31201819,31601019,40511709,0,2200011,11510119,40200419,1191011,0,31501719,0,22010319,41701419,41300219
6,155,480.121068103472,0,0,193539.793574241,193540.840600303,1,70,7,0,0,22,10,105742948,92172409,75022277,34262940,0,0,1000160,0,40100509,0,30601619,31900509,2140151,0,0,3060160,3131120,0,41910309,42010619,2060201,0,0,0,0,-3100040,11911209,0,30000709,0,30010319,0,1011161,0,0,3041051,20000309,10210419,0,0
6,156,1572.59023081861,0,0,193542.322978715,193543.369982063,1,70,7,0,0,8,5,15861540,33564028,36442598,6110300,1050040,0,0,0,0,0,0,-3100091,11711409,0,0,0,2150010,20012009,11402009,0,0,0,2130040,0,4100130,0,0,0,20001009,0,10211419,0,3030040,0,1050150,0,0,2030110,0,0
6,157,786.783279472729,0,0,193545.969882127,193547.016906648,1,70,7,0,0,14,0,3182201,5121131,1080110,3321321,1001090,0,0,0,0,0,2181111,0,0,0,3091061,0,0,-2030070,0,0,0,0,0,0,0,0,0,0,1080110,0,0,0,0,1180111,1001170,0,1140040,0,0,0
6,158,819.099982269108,0,0,193548.934494206,193549.981519112,1,70,7,1,0,24,5,43783789,5180081,35994190,80754289,0,30400719,0,0,0,2181051,0,0,11202019,0,0,3160041,0,0,2020040,0,0,0,0,30701919,0,0,1071130,-3180031,0,0,1041110,0,0,0,30702019,41801119,0,4130150,0,4121001
6,159,973.13556651352,1,0,193551.840289254,193552.887324554,1,70,7,1,1,34,0,8290292,4160161,8231151,8360131,0,0,4190161,0,4100131,0,0,0,0,0,0,0,0,0,4160161,0,0,0,0,3111041,0,0,1070070,4050040,0,0,0,0,0,0,0,0,4160031,-4200100,0,0
6,160,819.503806298599,1,0,193555.004909725,193556.051937326,1,70,7,0,1,27,5,42011218,25052769,7613202,60773579,10801009,0,0,0,0,0,0,31210209,0,4051160,0,0,0,0,0,21001609,0,0,2171010,0,0,0,3181120,0,1170031,0,-1091041,0,41900609,0,4110010,0,2070190,1191161,11501609,0
6,161,1153.10366093763,1,0,193557.922479189,193558.969500631,1,70,7,0,1,31,5,72735298,15332559,20610009,11281480,3161110,31210909,4150171,0,11710719,0,2001070,0,20501319,0,11201409,0,0,0,0,4131150,0,0,0,0,0,0,0,0,20610009,0,0,4140040,0,0,-1100120,3021120,0,3020200,0,0
6,162,1384.44672041805,0,0,193561.14591669,193562.192946216,1,70,7,0,0,7,0,5222142,4160171,4212202,7333470,0,2141101,0,0,0,0,-3081041,0,0,4160171,0,0,0,0,0,0,0,0,0,0,0,0,0,3061091,0,0,1151111,2181150,0,0,0,0,0,4141140,0,1011180
6,163,524.914355599321,1,0,193564.616414822,193565.66342818,1,70,7,1,1,28,0,5301173,11190280,0,3152201,3080121,0,0,1101011,1120041,0,0,0,0,0,0,0,3120070,4030160,0,0,0,4040050,0,0,0,0,0,0,0,0,0,-1061021,0,0,0,0,2091180,0,0,0
6,164,626.684560091235,0,0,193567.204628241,193568.251599638,1,70,7,0,0,29,20,90254958,110546937,148136603,101522618,2200171,21400609,10311219,31501119,2061050,1070081,21710709,0,0,21911309,41001719,1200031,10401719,3120131,11500919,21411109,0,0,10812019,31801119,31400919,11410109,11201719,30310509,0,0,21200209,0,-3201021,11000919,0,40900019,11610119,2170051,30600309,2040180
6,165,592.000347445719,0,0,193570.063314077,193571.110336289,1,70,7,0,0,15,0,7251481,6201172,3271042,2151011,0,0,0,0,0,2100170,4031170,0,1120141,4170041,0,0,0,0,-2031131,0,0,0,0,1160011,0,0,2111031,0,0,0,0,0,0,0,0,0,0,2151011,0,0
6,166,1031.57225542236,1,0,193572.839708733,193573.886733639,1,70,7,1,1,3,20,159757277,163561116,105845996,96476636,32000619,41001609,-3030201,30111519,1190001,0,11611509,0,40811819,41301819,20711619,2140191,12011519,11302009,0,30611819,4081021,41401119,40510219,0,1191040,30811019,10411709,1110100,0,21811909,0,1201151,0,0,21201009,1051030,10610509,31610909,20700309,10101719
6,167,1470.90394780389,0,0,193575.957267726,193577.004294942,1,70,7,1,0,35,10,106405056,22762630,51835499,91484149,0,0,41911319,21210609,0,0,2171100,20701219,20410809,0,0,0,20611519,2151111,0,0,0,0,0,3021120,0,20201219,0,3040111,0,21402019,4171030,21012009,40200909,3140191,0,21000909,3010130,0,-3120001,0
6,168,1901.6721835942,1,0,193579.58069468,193580.627721511,1,70,7,1,1,33,5,54893110,3121080,54993150,34561840,3110011,1181071,0,0,0,40001319,0,10600709,0,0,0,0,0,0,0,3121080,0,0,0,0,40111209,0,10610619,2071121,2200201,0,0,0,0,0,30100619,1081070,-1190050,0,0,2190101
6,169,516.083736118162,1,0,193587.004013921,193588.051044601,1,70,8,0,1,29,0,9422341,4091121,3061171,8211181,0,0,4091200,0,0,1131121,4200020,0,0,0,0,0,4091121,0,0,0,0,0,0,0,0,3061171,0,0,0,0,0,4060110,-3041001,0,1110070,0,0,0,0,0
6,170,780.603501189034,1,0,193589.721589236,193590.768610678,1,70,8,1,1,24,5,43783789,5180081,35994190,80754289,0,30400719,0,0,0,2181051,0,0,11202019,0,0,3160041,0,0,2020040,0,0,0,0,30701919,0,0,1071130,-3180031,0,0,1041110,0,0,0,30702019,41801119,0,4130150,0,4121001
6,171,1149.95622012066,0,0,193592.733268182,193593.780291548,1,70,8,0,0,7,5,15732121,55403988,78352340,3031092,0,0,0,3030021,0,11600919,-1101181,0,0,0,0,0,40311909,0,0,0,10901019,4191060,0,41100119,30000919,1190111,2050101,4011090,0,0,0,0,2001041,0,0,0,0,0,0,1030051
6,172,744.389453640906,1,0,193596.109644129,193597.15666865,1,70,8,1,1,34,0,8290292,4160161,8231151,8360131,0,0,4190161,0,4100131,0,0,0,0,0,0,0,0,0,4160161,0,0,0,0,3111041,0,0,1070070,4050040,0,0,0,0,0,0,0,0,4160031,-4200100,0,0
6,173,1401.98438693187,1,0,193599.03898262,193600.086000212,1,70,8,1,1,33,5,54893110,3121080,54993150,34561840,3110011,1181071,0,0,0,40001319,0,10600709,0,0,0,0,0,0,0,3121080,0,0,0,0,40111209,0,10610619,2071121,2200201,0,0,0,0,0,30100619,1081070,-1190050,0,0,2190101
6,174,1155.87961440906,0,0,193602.627106343,193603.674132404,1,70,8,0,0,14,10,115425788,60282339,59213409,86431458,0,0,4101141,30112019,40611519,0,0,40601109,0,2200141,0,0,3010050,-3060050,1001070,10200319,0,40810709,0,0,0,31210309,4050140,0,3041041,20911919,0,0,3121001,0,0,20600319,0,21100119,0,41610019
6,175,793.529720336664,0,0,193605.909368959,193606.956398099,1,70,8,1,0,13,5,64352089,66473110,40865131,2021131,0,30010519,0,0,0,2190100,0,31101409,1050061,0,0,41010909,-4141031,20310119,1011051,0,0,0,31601919,4041181,0,4111021,0,0,0,1111010,0,2021131,0,0,0,0,0,0,0,0
6,176,974.52912517474,1,0,193608.95634074,193610.003372191,1,70,8,0,1,15,5,5280281,45414849,4100081,79895629,4180140,0,0,0,0,0,0,1100141,0,0,0,0,1031140,0,-4060081,0,10011619,30312009,0,0,0,0,0,0,4100081,0,0,2171000,1061101,10810609,0,0,40911809,20811009,4130101,0
6,177,439.580444333842,0,0,193612.097436632,193613.144459998,1,70,8,1,0,28,0,5301173,11190280,0,3152201,3080121,0,0,1101011,1120041,0,0,0,0,0,0,0,3120070,4030160,0,0,0,4040050,0,0,0,0,0,0,0,0,0,-1061021,0,0,0,0,2091180,0,0,0
6,178,1460.37449559662,1,0,193614.638543918,193615.68556382,1,70,8,1,1,25,20,86856074,114296087,130253188,132049157,10710409,0,10410409,0,11810619,11501509,0,10711819,31711309,20810909,20911109,0,0,4050101,11200819,4021121,41401319,11900709,40300609,3010111,0,42010419,30100719,0,-3020011,11811319,0,10310809,31401619,1041180,40501519,20300619,3120010,21111219,3171011,1091171
6,179,1495.12530650827,0,1,193618.179616558,193619.226645699,1,70,8,0,1,1,20,132152819,89018096,180566386,177948274,-3060191,30610109,0,2180181,1150041,41010809,3020060,40810819,10310609,0,40711519,4091020,1101110,21102019,0,0,11411909,10600519,20901109,2070091,31002019,2160021,40110819,40900209,0,11512009,31910109,21611119,40601719,0,41810809,41711309,0,10311609,0,21901709
6,180,2075.09170714184,0,0,193621.814800989,193622.861836674,1,70,8,1,0,5,20,138013678,158476897,169357976,189415225,30700019,2200101,0,2010131,-1080180,41511419,0,20000509,40511319,30800319,1130021,0,21810209,40111719,0,2011101,21112019,41501509,2131100,31412009,0,30300309,31201819,31601019,40511709,0,2200011,11510119,40200419,1191011,0,31501719,0,22010319,41701419,41300219
6,181,889.724535198184,0,0,193626.05002792,193627.097018564,1,70,8,1,0,35,10,106405056,22762630,51835499,91484149,0,0,41911319,21210609,0,0,2171100,20701219,20410809,0,0,0,20611519,2151111,0,0,0,0,0,3021120,0,20201219,0,3040111,0,21402019,4171030,21012009,40200909,3140191,0,21000909,3010130,0,-3120001,0
6,182,741.45605112426,0,0,193629.07343778,193630.120451523,1,70,8,0,0,27,20,55705530,98155187,137195595,219935922,11100109,20501319,3021130,1131071,3140151,0,2020010,4091031,10700709,0,1011140,0,2030081,11400119,21701119,20310819,41701909,0,30401119,0,31911409,40500819,0,0,10110819,20111409,-4160020,42001209,21500819,0,30901119,40701519,11710419,10710809,30610009,31800019
6,183,590.331541665364,0,0,193631.920414259,193632.967431851,1,70,8,0,0,22,0,4041131,11352343,7051241,1091191,0,0,4041131,0,0,0,0,0,0,0,0,0,2130040,3020141,3111091,0,0,3091071,0,0,0,-4011050,3040191,0,0,0,0,0,0,0,0,0,0,0,0,1091191
6,184,1201.42319085426,0,0,193634.57916369,193635.626189751,1,70,8,1,0,3,20,159757277,163561116,105845996,96476636,32000619,41001609,-3030201,30111519,1190001,0,11611509,0,40811819,41301819,20711619,2140191,12011519,11302009,0,30611819,4081021,41401119,40510219,0,1191040,30811019,10411709,1110100,0,21811909,0,1201151,0,0,21201009,1051030,10610509,31610909,20700309,10101719
6,185,1199.73090247368,0,0,193637.88494819,193638.931978486,1,70,8,1,0,18,10,91496639,98534288,15051930,62722037,0,20601719,41200909,3170191,1091040,3011100,2020071,0,20401609,41202009,4090051,0,0,20900819,0,0,30300409,-2041000,0,0,11900819,0,0,0,2001011,0,1150100,11111419,0,30300009,0,0,21310609,0,0,0
6,186,982.936672575306,0,0,193641.296620823,193642.343646884,1,70,8,1,0,26,10,47784070,63392987,96374148,86023238,3111071,0,0,1121171,0,10411509,2030110,0,31110209,20511509,0,11511009,0,0,0,30200409,1170060,0,0,41802009,2031151,0,0,40310409,11200509,-1030070,0,3070080,40000519,1051030,0,0,0,0,0,41901609
6,187,1683.53790458059,1,0,193644.473005315,193645.520024447,1,70,8,0,1,4,20,202447075,157338925,97914418,121035606,41201319,41000509,0,-3050120,21700619,40301409,31211419,21800609,2181071,41911319,0,11800309,40501009,10911809,40111319,0,2101141,10002019,12010519,41101209,0,20700209,0,20811309,0,1150031,2141141,2060040,31500819,0,2111100,2150010,20702009,31901609,0,30610019
6,188,1545.35732249497,1,0,193648.308187744,193649.355213806,1,70,8,0,1,8,10,58744387,53573698,24383398,59984690,0,0,4180080,0,0,11111319,31910209,-1041070,10501709,0,30511409,10900909,2050161,0,0,0,0,10111219,0,10911309,0,2071080,11401009,0,0,0,0,10611019,2140131,0,4140200,0,1171181,1020150,40902009,0
6,189,770.566414052155,0,0,193652.013971321,193653.060992378,1,70,8,0,0,30,5,62812068,37393729,31682099,23570740,0,1100030,0,20901319,40810719,0,0,0,0,2091030,1190040,4011040,0,0,0,0,30101619,0,0,0,4060080,0,0,0,4201170,20410809,3010040,0,0,-3070121,0,0,0,0,0,20500619
6,190,1680.53905872512,1,0,193654.860947799,193655.90797232,1,70,8,1,1,20,0,5232031,9492071,3060050,5191311,0,0,0,3181031,0,0,0,0,2051000,3161030,0,0,0,3190010,3141031,0,0,0,0,-3060050,0,0,0,0,0,0,0,0,0,0,0,4030170,0,1161141,0,0
6,191,722.429740562802,1,0,193658.649076065,193659.696098661,1,70,8,0,1,31,0,5100221,8342361,4200161,2080001,0,0,0,0,3070040,0,0,0,2030181,0,0,0,0,2031161,3120120,0,0,3191080,0,0,0,0,0,0,1010080,0,3190081,0,0,0,-2080001,0,0,0,0,0
6,192,1344.86195471254,0,0,193661.56664168,193662.61367698,1,70,8,0,0,6,10,54482549,54131719,87587667,85427329,0,11900519,41411909,0,0,-1170121,0,0,0,0,2010001,30710609,0,0,0,21411109,0,0,0,4151101,0,0,10411919,20701909,20411319,31911419,0,0,4191040,1100031,2071190,0,31701719,4001140,1151200,41211009
6,193,1062.27058233344,0,0,193678.177936973,193679.224967269,1,70,9,1,0,5,20,138013678,158476897,169357976,189415225,30700019,2200101,0,2010131,-1080180,41511419,0,20000509,40511319,30800319,1130021,0,21810209,40111719,0,2011101,21112019,41501509,2131100,31412009,0,30300309,31201819,31601019,40511709,0,2200011,11510119,40200419,1191011,0,31501719,0,22010319,41701419,41300219
6,194,438.655383128207,0,0,193681.389625081,193682.436643828,1,70,9,0,0,22,10,130144207,40920428,32862570,39323031,42000409,11600119,1061021,0,40611409,31810119,0,0,3061130,0,0,20410419,0,20510009,0,0,0,0,0,0,0,-1111160,1151191,0,0,30600219,0,1000111,2160061,2110111,11510409,10101319,0,11410909,1030111,0
6,195,1071.05885609053,0,0,193684.00130957,193685.048331781,1,70,9,1,0,33,5,54893110,3121080,54993150,34561840,3110011,1181071,0,0,0,40001319,0,10600709,0,0,0,0,0,0,0,3121080,0,0,0,0,40111209,0,10610619,2071121,2200201,0,0,0,0,0,30100619,1081070,-1190050,0,0,2190101
6,196,978.892657672986,1,0,193687.201220567,193688.248240084,1,70,9,1,1,20,0,5232031,9492071,3060050,5191311,0,0,0,3181031,0,0,0,0,2051000,3161030,0,0,0,3190010,3141031,0,0,0,0,-3060050,0,0,0,0,0,0,0,0,0,0,0,4030170,0,1161141,0,0
6,197,849.563097988721,1,0,193690.283487109,193691.330509706,1,70,9,1,1,35,10,106405056,22762630,51835499,91484149,0,0,41911319,21210609,0,0,2171100,20701219,20410809,0,0,0,20611519,2151111,0,0,0,0,0,3021120,0,20201219,0,3040111,0,21402019,4171030,21012009,40200909,3140191,0,21000909,3010130,0,-3120001,0
6,198,782.97178100911,1,0,193693.248110352,193694.295131794,1,70,9,1,1,34,0,8290292,4160161,8231151,8360131,0,0,4190161,0,4100131,0,0,0,0,0,0,0,0,0,4160161,0,0,0,0,3111041,0,0,1070070,4050040,0,0,0,0,0,0,0,0,4160031,-4200100,0,0
6,199,1369.40437086741,1,0,193696.259790837,193697.306816514,1,70,9,0,1,4,10,90623201,59454480,108113207,32304447,0,0,1100201,-3141121,0,41410209,41900619,0,3071051,0,2171151,0,41811409,11311819,1100080,3060021,0,0,0,0,0,41000519,40201109,4010060,0,2100000,20801519,0,0,0,10700919,0,0,0,11601609,10001919
6,200,1526.51194360806,0,0,193699.718516093,193700.765539074,1,70,9,0,0,1,5,9422371,66853181,22981099,54711088,-4111200,0,0,4191071,0,0,1120100,0,0,2181091,1201001,21800709,40610309,0,1060071,0,0,0,2080180,0,20900919,0,0,0,0,0,0,0,0,0,40600319,0,4000060,0,10110709,0
6,201,959.243865276221,1,0,193703.447827714,193704.49484954,1,70,9,1,1,3,20,159757277,163561116,105845996,96476636,32000619,41001609,-3030201,30111519,1190001,0,11611509,0,40811819,41301819,20711619,2140191,12011519,11302009,0,30611819,4081021,41401119,40510219,0,1191040,30811019,10411709,1110100,0,21811909,0,1201151,0,0,21201009,1051030,10610509,31610909,20700309,10101719
6,202,1456.89637330361,1,0,193706.635974304,193707.682994205,1,70,9,1,1,26,10,47784070,63392987,96374148,86023238,3111071,0,0,1121171,0,10411509,2030110,0,31110209,20511509,0,11511009,0,0,0,30200409,1170060,0,0,41802009,2031151,0,0,40310409,11200509,-1030070,0,3070080,40000519,1051030,0,0,0,0,0,41901609
6,203,1397.38987784949,0,0,193710.153513895,193711.20054727,1,70,9,0,0,8,5,46511719,50422931,42815237,5161201,0,0,0,0,41301419,0,1100130,-4110170,0,0,0,3190021,0,41010709,1040010,1081040,4101151,0,0,0,11312009,0,11301709,0,0,0,20201519,2021160,0,0,0,3140041,0,0,0,0
6,204,1072.7615384385,0,0,193713.671067345,193714.718150765,1,70,9,0,0,27,5,5362370,72973049,6162381,75785128,0,0,0,0,0,4161170,0,1201200,0,0,30911909,0,0,0,0,1160031,40901109,0,2111150,1011141,0,0,0,0,0,0,-3040090,10710709,41010309,1021101,0,0,0,21901809,0,1141200
6,205,487.901129119564,1,0,193716.870975262,193717.918003633,1,70,9,0,1,15,20,213598136,145854405,124717457,142718206,41211519,3141171,3100181,40600719,41211409,20912019,32010309,31410809,0,0,20400119,40200219,41611809,11501609,-1130040,0,0,31010609,1120040,21910909,41310719,10712009,41601519,2011091,0,3000040,3051130,0,0,0,32001419,42001809,4091031,21700209,12011819,30911919
6,206,1662.88590390468,0,0,193719.470908048,193720.517928335,1,70,9,0,0,6,10,97236786,11513531,54732049,97544277,0,10300609,21402009,10301109,0,-3021021,20811519,0,31400519,3101100,0,3190141,0,2141170,0,0,3081120,0,3131011,0,0,40100619,0,0,11500419,0,0,0,20711619,0,3010150,30810119,0,42011219,0,1001170
6,207,1175.02487791353,0,0,193723.223746558,193724.270768769,1,70,9,1,0,24,5,43783789,5180081,35994190,80754289,0,30400719,0,0,0,2181051,0,0,11202019,0,0,3160041,0,0,2020040,0,0,0,0,30701919,0,0,1071130,-3180031,0,0,1041110,0,0,0,30702019,41801119,0,4130150,0,4121001
6,208,1070.37593534915,1,0,193726.63541457,193727.682438322,1,70,9,1,1,13,5,64352089,66473110,40865131,2021131,0,30010519,0,0,0,2190100,0,31101409,1050061,0,0,41010909,-4141031,20310119,1011051,0,0,0,31601919,4041181,0,4111021,0,0,0,1111010,0,2021131,0,0,0,0,0,0,0,0
6,209,2772.48967901687,1,0,193729.882424386,193730.929400787,1,70,9,0,1,14,0,0,8271200,12343474,5131250,0,0,0,0,0,0,0,0,0,0,4120200,0,0,-4151000,0,0,0,0,3091131,0,0,0,0,2091151,3140081,4021111,0,4080100,0,0,0,0,0,1051150,0,0
6,210,1205.19965788117,0,0,193734.764598615,193735.811623136,1,70,9,0,0,30,20,171001244,143586547,95404785,139466596,10212009,41011919,41411619,11811609,11611519,1040141,11901909,0,42000519,41811909,30911219,2110020,4120170,41811919,0,20711119,0,2110191,0,10910419,21601809,10801909,1070130,20110009,0,0,30910509,0,0,-2021180,11201919,41400519,40110219,1101170,3020170,40611419
6,211,633.124187064823,1,0,193738.164497216,193739.211527127,1,70,9,1,1,28,0,5301173,11190280,0,3152201,3080121,0,0,1101011,1120041,0,0,0,0,0,0,0,3120070,4030160,0,0,0,4040050,0,0,0,0,0,0,0,0,0,-1061021,0,0,0,0,2091180,0,0,0
6,212,808.961265429389,1,0,193740.99972738,193742.046737658,1,70,9,1,1,18,10,91496639,98534288,15051930,62722037,0,20601719,41200909,3170191,1091040,3011100,2020071,0,20401609,41202009,4090051,0,0,20900819,0,0,30300409,-2041000,0,0,11900819,0,0,0,2001011,0,1150100,11111419,0,30300009,0,0,21310609,0,0,0
6,213,2059.54621359706,1,0,193743.881999004,193744.929018136,1,70,9,0,1,31,0,11210270,3011100,2070111,6282540,0,0,3060000,0,0,0,4120160,4030110,0,0,0,0,0,0,3011100,0,0,0,0,0,0,0,2070111,0,0,0,0,1000150,4161200,0,-1121190,0,0,0,0,0
6,214,2141.96635535336,0,0,193748.140692385,193749.187714212,1,70,9,0,0,7,20,128807154,199897326,138375855,62273980,0,21610819,11100209,20600619,30610619,10811909,-4061070,0,30011909,3090121,31811509,30101109,20601209,0,40811609,41010809,30410919,2060041,30201519,3200180,31201819,0,30701909,10610009,0,2060100,30400319,1021051,0,0,4100121,3141151,21700319,12010419,0,20300919
6,215,686.207223887322,1,0,193752.505277748,193753.552302654,1,70,9,0,1,29,0,7020140,0,11242591,3220101,0,3010090,4010050,0,0,0,0,0,0,0,0,0,0,0,0,0,0,0,0,0,0,2020190,0,2161070,0,4030151,3031180,0,-2100080,0,0,0,0,0,1120021,0
6,216,1649.84034688678,0,0,193755.434608154,193756.481626516,1,70,9,1,0,25,20,86856074,114296087,130253188,132049157,10710409,0,10410409,0,11810619,11501509,0,10711819,31711309,20810909,20911109,0,0,4050101,11200819,4021121,41401319,11900709,40300609,3010111,0,42010419,30100719,0,-3020011,11811319,0,10310809,31401619,1041180,40501519,20300619,3120010,21111219,3171011,1091171
6,217,1301.98192319949,0,0,193762.281469529,193763.32849251,1,70,10,0,0,6,20,60324550,191016335,207657713,160768927,0,2121021,0,21300219,0,-2200170,0,31702019,3001121,2000121,31010709,0,41311209,10311619,41300209,31800809,3180140,30101519,40811919,41212019,21401209,0,40400209,20810719,31711019,0,11310619,40200419,0,4061051,2020111,20701409,21001919,30411409,1071090,41301519
6,218,665.806217759382,1,0,193765.763793661,193766.810770833,1,70,10,0,1,27,0,1191170,5241132,10411281,2271252,0,0,0,1191170,0,0,0,0,0,0,0,0,0,1140101,0,0,4101031,0,0,0,0,0,0,4180051,0,2050080,-4181150,0,0,1110141,0,1161111,0,0,0,0
6,219,895.129002135945,1,0,193768.587184351,193769.634201943,1,70,10,1,1,34,0,8290292,4160161,8231151,8360131,0,0,4190161,0,4100131,0,0,0,0,0,0,0,0,0,4160161,0,0,0,0,3111041,0,0,1070070,4050040,0,0,0,0,0,0,0,0,4160031,-4200100,0,0
6,220,670.128944417229,0,0,193771.575329864,193772.622350535,1,70,10,0,0,29,0,0,5241211,4502282,8171320,0,0,0,0,0,0,0,0,0,0,0,0,3171141,0,0,2070070,0,0,0,1120060,0,0,1191121,2191101,0,0,0,0,-4110000,0,1000160,0,0,0,0,3061160
6,221,968.158791190945,1,0,193774.481133766,193775.528160982,1,70,10,1,1,5,20,138013678,158476897,169357976,189415225,30700019,2200101,0,2010131,-1080180,41511419,0,20000509,40511319,30800319,1130021,0,21810209,40111719,0,2011101,21112019,41501509,2131100,31412009,0,30300309,31201819,31601019,40511709,0,2200011,11510119,40200419,1191011,0,31501719,0,22010319,41701419,41300219
6,222,1147.19027563115,0,0,193777.622224653,193778.669248019,1,70,10,0,0,8,20,142677916,122009946,57805101,188338193,40411619,31310009,21610419,11200609,3011130,2181051,20300609,-2151151,10501319,31711819,20011219,20011309,20611419,4171170,21401809,4091201,0,0,0,1010131,0,2040181,0,1051161,41701819,0,12001809,21411019,11310609,41400309,0,30901709,30802009,41111319,11401219,0
6,223,974.47715542512,1,0,193780.84565869,193781.892686675,1,70,10,1,1,20,0,5232031,9492071,3060050,5191311,0,0,0,3181031,0,0,0,0,2051000,3161030,0,0,0,3190010,3141031,0,0,0,0,-3060050,0,0,0,0,0,0,0,0,0,0,0,4030170,0,1161141,0,0
6,224,543.38478250429,0,0,193783.974987094,193785.022008536,1,70,10,1,0,28,0,5301173,11190280,0,3152201,3080121,0,0,1101011,1120041,0,0,0,0,0,0,0,3120070,4030160,0,0,0,4040050,0,0,0,0,0,0,0,0,0,-1061021,0,0,0,0,2091180,0,0,0
6,225,836.413601471577,1,0,193786.586676973,193787.633704959,1,70,10,1,1,26,10,47784070,63392987,96374148,86023238,3111071,0,0,1121171,0,10411509,2030110,0,31110209,20511509,0,11511009,0,0,0,30200409,1170060,0,0,41802009,2031151,0,0,40310409,11200509,-1030070,0,3070080,40000519,1051030,0,0,0,0,0,41901609
6,226,1827.84437050577,0,0,193789.598359768,193790.645410467,1,70,10,0,0,1,10,65484439,68223480,87952118,78166949,-2181101,40301919,0,0,0,0,2200110,20801309,0,0,0,0,0,2040031,0,31911819,31100519,3171111,0,31610609,0,0,0,4130181,11310719,40900609,0,0,30201509,3111151,30211209,0,2070010,0,11502009,1071061
6,227,1253.42256258591,0,0,193793.574720855,193794.621739987,1,70,10,1,0,13,5,64352089,66473110,40865131,2021131,0,30010519,0,0,0,2190100,0,31101409,1050061,0,0,41010909,-4141031,20310119,1011051,0,0,0,31601919,4041181,0,4111021,0,0,0,1111010,0,2021131,0,0,0,0,0,0,0,0
6,228,949.375006050104,1,0,193796.962856974,193798.009878031,1,70,10,0,1,14,5,41902009,39786121,74002029,7272351,0,0,0,0,0,0,0,41902009,0,1141090,3200131,20701909,10611709,-3001111,0,0,0,1130171,0,0,31001819,0,2200201,0,0,0,40800009,0,0,2021011,0,1191150,0,4060190,0,0
6,229,878.598008566769,1,0,193800.080415968,193801.127442414,1,70,10,1,1,24,5,43783789,5180081,35994190,80754289,0,30400719,0,0,0,2181051,0,0,11202019,0,0,3160041,0,0,2020040,0,0,0,0,30701919,0,0,1071130,-3180031,0,0,1041110,0,0,0,30702019,41801119,0,4130150,0,4121001
6,230,1235.34672067035,0,0,193803.056802078,193804.103826214,1,70,10,1,0,25,20,86856074,114296087,130253188,132049157,10710409,0,10410409,0,11810619,11501509,0,10711819,31711309,20810909,20911109,0,0,4050101,11200819,4021121,41401319,11900709,40300609,3010111,0,42010419,30100719,0,-3020011,11811319,0,10310809,31401619,1041180,40501519,20300619,3120010,21111219,3171011,1091171
6,231,509.157518536085,1,0,193806.550828638,193807.597846615,1,70,10,0,1,22,5,79812840,3160071,49936909,30601809,31911209,3070191,0,0,0,41711309,2060091,1060040,0,0,0,2070000,0,0,0,1090071,0,0,0,0,0,-2151161,1151130,0,11211609,4111090,31311919,0,0,0,0,0,30601809,0,0,0
6,232,1370.94536959194,0,0,193809.138991628,193810.18600537,1,70,10,0,0,4,0,6361191,4040100,4291071,8132301,0,0,0,-2171041,4190150,0,0,0,0,0,0,0,0,4040100,0,0,0,0,2140061,0,2151010,0,0,0,0,0,0,0,3010100,0,0,1001050,0,4121151,0,0
6,233,1466.63126608473,0,0,193812.621250317,193813.668308715,1,70,10,1,0,35,10,106405056,22762630,51835499,91484149,0,0,41911319,21210609,0,0,2171100,20701219,20410809,0,0,0,20611519,2151111,0,0,0,0,0,3021120,0,20201219,0,3040111,0,21402019,4171030,21012009,40200909,3140191,0,21000909,3010130,0,-3120001,0
6,234,1105.81351662404,1,0,193816.327022729,193817.374039167,1,70,10,0,1,7,10,56232750,39211541,76024066,65572538,40200909,3130111,1141191,0,10610419,0,-1150120,0,0,0,30000209,0,0,4111120,1100151,4000061,0,0,11712019,0,2100110,0,0,20910509,20701219,0,20600209,10810619,3150191,0,0,0,0,31000509,0,20611219
6,235,1176.08275060775,0,0,193819.526933726,193820.573950933,1,70,10,1,0,18,10,91496639,98534288,15051930,62722037,0,20601719,41200909,3170191,1091040,3011100,2020071,0,20401609,41202009,4090051,0,0,20900819,0,0,30300409,-2041000,0,0,11900819,0,0,0,2001011,0,1150100,11111419,0,30300009,0,0,21310609,0,0,0
6,236,1153.96058405167,1,0,193822.773908896,193823.820920713,1,70,10,0,1,31,10,102233278,48480509,103813546,58241860,20300819,0,3080101,0,31710819,41900319,3150140,2091080,0,0,0,0,0,0,4010080,4060010,0,40410419,0,0,10501109,31501119,40901309,0,0,20910009,0,0,2161140,0,-2050091,30010309,0,0,20900119,3120201
6,237,1962.62651722645,1,0,193826.009172398,193827.056134555,1,70,10,0,1,15,20,161548745,110034839,158705656,150995575,10201909,21110709,31512009,21110819,31510209,3180060,40801909,2121121,0,31802019,30911609,0,3081001,0,-4140191,0,40100019,0,0,41601309,41201409,2070040,30710319,0,30811019,2101051,10210509,11800719,42010809,20311109,10410919,3051181,40800109,0,21500719,1110010
6,238,1041.59740876639,0,0,193830.056047554,193831.103123275,1,70,10,0,0,30,5,15071310,66682720,40663108,7181001,11000119,0,0,1050130,0,0,0,0,3021061,0,21011009,0,0,3070101,2100191,40501419,0,0,0,4021160,0,12010509,0,21501309,3130130,0,0,3080000,0,-4101001,0,0,0,0,0,0
6,239,1254.74066895549,0,0,193833.208970216,193834.25592429,1,70,10,1,0,3,20,159757277,163561116,105845996,96476636,32000619,41001609,-3030201,30111519,1190001,0,11611509,0,40811819,41301819,20711619,2140191,12011519,11302009,0,30611819,4081021,41401119,40510219,0,1191040,30811019,10411709,1110100,0,21811909,0,1201151,0,0,21201009,1051030,10610509,31610909,20700309,10101719
6,240,1507.11722541018,1,0,193836.573512078,193837.620537369,1,70,10,1,1,33,5,54893110,3121080,54993150,34561840,3110011,1181071,0,0,0,40001319,0,10600709,0,0,0,0,0,0,0,3121080,0,0,0,0,40111209,0,10610619,2071121,2200201,0,0,0,0,0,30100619,1081070,-1190050,0,0,2190101
6,241,935.272346192505,0,0,193843.314499564,193844.36153063,1,70,11,1,0,35,10,106405056,22762630,51835499,91484149,0,0,41911319,21210609,0,0,2171100,20701219,20410809,0,0,0,20611519,2151111,0,0,0,0,0,3021120,0,20201219,0,3040111,0,21402019,4171030,21012009,40200909,3140191,0,21000909,3010130,0,-3120001,0
6,242,437.95128952479,0,0,193846.455592376,193847.502613433,1,70,11,0,0,22,10,31825588,120484677,100406278,24061600,11011719,3151000,3151090,0,0,0,10311719,4200060,0,11611909,0,4050131,0,0,21610219,0,41910509,41301909,20112009,0,3191100,-3080011,40110309,0,0,31801719,2111130,0,0,0,0,0,2051181,0,22010419,0
6,243,1015.60792440432,1,0,193849.137880245,193850.184897837,1,70,11,1,1,33,5,54893110,3121080,54993150,34561840,3110011,1181071,0,0,0,40001319,0,10600709,0,0,0,0,0,0,0,3121080,0,0,0,0,40111209,0,10610619,2071121,2200201,0,0,0,0,0,30100619,1081070,-1190050,0,0,2190101
6,244,1227.38264829968,1,0,193852.220134854,193853.267159375,1,70,11,0,1,8,0,5350200,6071271,8333251,2121051,0,0,0,0,0,0,0,-2200080,3150120,0,0,0,0,3061150,0,0,0,3010121,0,0,1031000,0,3201181,4101070,0,0,0,0,2121051,0,0,0,0,0,0,0
6,245,1641.95249677869,1,0,193855.549448938,193856.596476924,1,70,11,0,1,27,20,76035087,136627604,90517478,135957866,20500119,0,2191161,30202019,10110119,0,3020150,10011519,0,0,0,0,21201719,10711919,31212019,21500609,31801319,20200019,1111181,0,21900509,4051170,10111009,10001909,0,40300619,-3041081,31511809,2090161,31101709,3101081,10311309,21801609,11200009,20810019,4030160
6,246,1300.59259908739,1,0,193859.372877739,193860.419905725,1,70,11,0,1,15,5,62704221,46401159,22010219,45751829,0,12001109,4051181,0,0,0,41611719,1000111,4040101,0,0,40401109,0,0,-4000050,0,2000000,0,0,0,0,0,0,0,0,0,22010219,0,1001140,2200000,0,0,0,0,1140170,41410519
6,247,888.811407814501,0,0,193862.878702584,193863.925689764,1,70,11,0,0,30,0,3011071,0,7272281,12372353,0,0,3011071,0,0,0,0,0,0,0,0,0,0,0,0,0,0,0,0,2120010,0,0,0,2101191,0,3051080,0,0,0,-4180171,0,0,0,1081011,4040130,3071041
6,248,1336.65420208126,1,0,193866.01975151,193867.066771412,1,70,11,1,1,25,20,86856074,114296087,130253188,132049157,10710409,0,10410409,0,11810619,11501509,0,10711819,31711309,20810909,20911109,0,0,4050101,11200819,4021121,41401319,11900709,40300609,3010111,0,42010419,30100719,0,-3020011,11811319,0,10310809,31401619,1041180,40501519,20300619,3120010,21111219,3171011,1091171
6,249,889.631759637268,0,0,193869.41966166,193870.466686181,1,70,11,1,0,13,5,64352089,66473110,40865131,2021131,0,30010519,0,0,0,2190100,0,31101409,1050061,0,0,41010909,-4141031,20310119,1011051,0,0,0,31601919,4041181,0,4111021,0,0,0,1111010,0,2021131,0,0,0,0,0,0,0,0
6,250,441.150315105915,1,0,193872.490152631,193873.537182542,1,70,11,1,1,28,0,5301173,11190280,0,3152201,3080121,0,0,1101011,1120041,0,0,0,0,0,0,0,3120070,4030160,0,0,0,4040050,0,0,0,0,0,0,0,0,0,-1061021,0,0,0,0,2091180,0,0,0
6,251,1920.14068571734,0,0,193875.031262612,193876.078289443,1,70,11,0,0,6,10,39163169,84354899,128808705,21362712,0,0,11310709,0,0,-4051061,0,3200090,20601309,2131081,0,0,0,40312009,41911809,0,0,0,21601119,41711419,0,11711919,0,30411219,20302009,3071020,0,1081001,2101101,0,11010319,0,0,4120110,0,3050181
6,252,1412.15428561554,0,0,193879.184085955,193880.231113941,1,70,11,0,0,31,20,186178604,136385315,109373829,154096647,20601319,40810509,2140081,0,40011019,10602019,42001119,20011319,10001219,2030050,20310019,21212009,0,40410809,21012009,0,0,31410419,1130141,31810009,30401719,1010000,40900909,0,0,4121051,0,41311709,41811309,3201070,-4050101,1100001,11310619,0,40401219,10910619
6,253,1347.81499026576,0,0,193882.76050648,193883.807480956,1,70,11,0,0,29,10,2181030,52463072,197639983,71802210,0,2181030,0,0,0,0,0,0,0,0,4091131,3100111,0,0,2130010,3031001,40110819,0,0,30701919,11001619,11910109,41411909,40501709,0,41400809,20711909,0,-3170101,41301109,0,4050171,0,0,2170010,21110819
6,254,1491.57404166181,0,0,193886.24271089,193887.289737336,1,70,11,1,0,26,10,47784070,63392987,96374148,86023238,3111071,0,0,1121171,0,10411509,2030110,0,31110209,20511509,0,11511009,0,0,0,30200409,1170060,0,0,41802009,2031151,0,0,40310409,11200509,-1030070,0,3070080,40000519,1051030,0,0,0,0,0,41901609
6,255,1279.27076633205,1,0,193889.97202097,193891.019040872,1,70,11,0,1,7,5,48123818,18193821,22101510,16693911,0,11710719,0,0,31101919,0,-3200050,0,2111130,0,0,0,10911419,3070161,0,0,3051140,1161101,0,0,0,0,20901509,1200001,0,0,0,11411709,0,0,0,3161111,2121091,0,0,0
6,256,1731.16065518116,1,0,193893.418985284,193894.46600942,1,70,11,0,1,4,20,152045666,118136375,167836813,63313152,20310019,21701019,0,-4090101,31511219,0,41100509,2021090,31311709,0,30301719,0,20801109,11210809,11310709,20400809,22011219,2100001,32001519,21101819,0,10501009,21210819,41211119,21810119,0,20000409,40300109,0,0,2060100,2021081,3121111,11610609,1090131,3110011
6,257,3055.42020202847,1,0,193897.383574265,193898.430599941,1,70,11,1,1,24,5,43783789,5180081,35994190,80754289,0,30400719,0,0,0,2181051,0,0,11202019,0,0,3160041,0,0,2020040,0,0,0,0,30701919,0,0,1071130,-3180031,0,0,1041110,0,0,0,30702019,41801119,0,4130150,0,4121001
6,258,1760.7422103174,0,0,193902.642309606,193903.689292552,1,70,11,1,0,5,20,138013678,158476897,169357976,189415225,30700019,2200101,0,2010131,-1080180,41511419,0,20000509,40511319,30800319,1130021,0,21810209,40111719,0,2011101,21112019,41501509,2131100,31412009,0,30300309,31201819,31601019,40511709,0,2200011,11510119,40200419,1191011,0,31501719,0,22010319,41701419,41300219
6,259,778.698329377221,0,0,193906.489202163,193907.536260946,1,70,11,0,0,14,0,4052172,5371300,4191130,3090341,0,0,3041151,1011021,0,0,0,0,0,0,0,0,0,-1161040,2010180,0,2200080,0,0,0,0,0,0,0,0,0,4191130,0,0,2060191,1030150,0,0,0,0,0
6,260,930.898034828715,1,0,193909.39500491,193910.442025197,1,70,11,1,1,3,20,159757277,163561116,105845996,96476636,32000619,41001609,-3030201,30111519,1190001,0,11611509,0,40811819,41301819,20711619,2140191,12011519,11302009,0,30611819,4081021,41401119,40510219,0,1191040,30811019,10411709,1110100,0,21811909,0,1201151,0,0,21201009,1051030,10610509,31610909,20700309,10101719
6,261,1527.20602820045,0,0,193912.406693865,193913.453715307,1,70,11,1,0,20,0,5232031,9492071,3060050,5191311,0,0,0,3181031,0,0,0,0,2051000,3161030,0,0,0,3190010,3141031,0,0,0,0,-3060050,0,0,0,0,0,0,0,0,0,0,0,4030170,0,1161141,0,0
6,262,2065.25018016691,1,0,193916.147759883,193917.194780555,1,70,11,0,1,1,5,15153800,99025238,5221220,17121129,-1101131,0,10011509,0,0,1031140,3010020,0,0,0,0,21611409,0,31601309,0,41701519,0,4111001,0,0,0,0,0,1131190,0,0,4090030,0,0,0,2120130,0,11910909,0,0,3090090
6,263,823.55744522647,0,0,193920.312346478,193921.359386397,1,70,11,1,0,34,0,8290292,4160161,8231151,8360131,0,0,4190161,0,4100131,0,0,0,0,0,0,0,0,0,4160161,0,0,0,0,3111041,0,0,1070070,4050040,0,0,0,0,0,0,0,0,4160031,-4200100,0,0
6,264,1249.53792153974,1,0,193923.253441676,193924.300466198,1,70,11,1,1,18,10,91496639,98534288,15051930,62722037,0,20601719,41200909,3170191,1091040,3011100,2020071,0,20401609,41202009,4090051,0,0,20900819,0,0,30300409,-2041000,0,0,11900819,0,0,0,2001011,0,1150100,11111419,0,30300009,0,0,21310609,0,0,0
6,265,903.694383538095,1,0,193929.759154112,193930.806164775,1,70,12,1,1,26,10,47784070,63392987,96374148,86023238,3111071,0,0,1121171,0,10411509,2030110,0,31110209,20511509,0,11511009,0,0,0,30200409,1170060,0,0,41802009,2031151,0,0,40310409,11200509,-1030070,0,3070080,40000519,1051030,0,0,0,0,0,41901609
6,266,1023.50000903243,0,0,193932.853176592,193933.900203423,1,70,12,0,0,4,10,49161570,113515256,60064288,79005028,0,2020131,4030120,-1010110,41010019,0,0,1091190,0,0,40001509,11100109,40911619,0,0,21502019,0,0,21012019,0,0,4050190,3091070,0,0,31911009,0,0,11901919,1201020,0,0,4180161,0,40910909,20811019
6,267,1139.85445952858,1,0,193936.017791674,193937.064816195,1,70,12,1,1,24,5,43783789,5180081,35994190,80754289,0,30400719,0,0,0,2181051,0,0,11202019,0,0,3160041,0,0,2020040,0,0,0,0,30701919,0,0,1071130,-3180031,0,0,1041110,0,0,0,30702019,41801119,0,4130150,0,4121001
6,268,777.71436914918,1,0,193939.358874784,193940.405939726,1,70,12,1,1,34,0,8290292,4160161,8231151,8360131,0,0,4190161,0,4100131,0,0,0,0,0,0,0,0,0,4160161,0,0,0,0,3111041,0,0,1070070,4050040,0,0,0,0,0,0,0,0,4160031,-4200100,0,0
6,269,653.978292248212,1,0,193942.217617209,193943.264645965,1,70,12,0,1,29,5,4161110,5031191,86723857,91704879,0,0,4161110,0,0,0,0,0,0,0,0,0,0,4020001,0,1011190,0,0,30301819,0,0,10211809,0,3090100,40010009,0,3110120,0,-4111061,0,1090170,4091020,0,40511419,41901209,0
6,270,1471.8055264093,0,0,193944.958716719,193946.005737776,1,70,12,0,0,1,0,18294591,1140121,2081160,1100070,-4021200,3060040,4031181,0,3141120,0,0,4041050,0,0,0,0,1140121,0,0,0,0,0,0,0,0,0,0,2081160,0,0,0,0,1100070,0,0,0,0,0,0,0
6,271,790.186334372265,0,0,193948.57038119,193949.617409946,1,70,12,0,0,27,10,73584229,54621419,125994357,48302319,4020020,0,20710919,0,3081011,41611119,0,4161160,0,0,0,0,0,0,4010091,0,30500919,20110409,20310519,0,0,42011219,41912009,0,0,20600519,-1160091,0,1011201,20310619,0,0,21910419,1050030,4020050,0
6,272,1266.97434330708,0,0,193951.511472154,193952.558499755,1,70,12,1,0,3,20,159757277,163561116,105845996,96476636,32000619,41001609,-3030201,30111519,1190001,0,11611509,0,40811819,41301819,20711619,2140191,12011519,11302009,0,30611819,4081021,41401119,40510219,0,1191040,30811019,10411709,1110100,0,21811909,0,1201151,0,0,21201009,1051030,10610509,31610909,20700309,10101719
6,273,725.064413418295,0,0,193954.958432618,193956.005459834,1,70,12,1,0,18,10,91496639,98534288,15051930,62722037,0,20601719,41200909,3170191,1091040,3011100,2020071,0,20401609,41202009,4090051,0,0,20900819,0,0,30300409,-2041000,0,0,11900819,0,0,0,2001011,0,1150100,11111419,0,30300009,0,0,21310609,0,0,0
6,274,1572.43201186066,0,0,193957.81720353,193958.864203414,1,70,12,0,0,6,0,6230162,3161000,6230291,4432331,0,0,0,4170161,0,-2060001,0,0,0,0,0,0,0,0,0,3161000,0,0,0,0,0,0,3150150,0,0,3080141,0,2081081,0,1160080,0,0,1191170,0,0,0
6,275,712.893872638233,0,0,193961.593543522,193962.640569198,1,70,12,0,0,14,0,5332331,4241241,0,7142183,0,0,0,2071121,2061200,0,0,0,1200010,0,0,2120191,0,-2121050,0,0,0,0,0,0,0,0,0,0,0,0,0,2121061,0,0,4011011,1010111,0,0,0,0
6,276,1221.41074889805,1,0,193964.511111831,193965.558136352,1,70,12,1,1,20,0,5232031,9492071,3060050,5191311,0,0,0,3181031,0,0,0,0,2051000,3161030,0,0,0,3190010,3141031,0,0,0,0,-3060050,0,0,0,0,0,0,0,0,0,0,0,4030170,0,1161141,0,0
6,277,1641.72536981641,0,0,193967.981605343,193969.028644108,1,70,12,1,0,25,20,86856074,114296087,130253188,132049157,10710409,0,10410409,0,11810619,11501509,0,10711819,31711309,20810909,20911109,0,0,4050101,11200819,4021121,41401319,11900709,40300609,3010111,0,42010419,30100719,0,-3020011,11811319,0,10310809,31401619,1041180,40501519,20300619,3120010,21111219,3171011,1091171
6,278,1491.02085275808,0,0,193971.793261653,193972.840283865,1,70,12,1,0,33,5,54893110,3121080,54993150,34561840,3110011,1181071,0,0,0,40001319,0,10600709,0,0,0,0,0,0,0,3121080,0,0,0,0,40111209,0,10610619,2071121,2200201,0,0,0,0,0,30100619,1081070,-1190050,0,0,2190101
6,279,1626.37158684083,0,0,193975.357866957,193976.404893018,1,70,12,0,0,31,20,119548736,97533868,76824838,171938823,10401709,1061080,1120101,30400219,41211819,11211909,20100819,4041080,0,21301119,11611309,20010009,3131041,0,0,0,1080171,40400219,1130091,10211309,0,0,30510719,0,20311009,3061191,11600519,22001519,10111309,21510719,-3201040,41811709,30601409,31800809,10900309,0
6,280,743.728860659758,1,0,193979.169543669,193980.216553947,1,70,12,1,1,35,10,106405056,22762630,51835499,91484149,0,0,41911319,21210609,0,0,2171100,20701219,20410809,0,0,0,20611519,2151111,0,0,0,0,0,3021120,0,20201219,0,3040111,0,21402019,4171030,21012009,40200909,3140191,0,21000909,3010130,0,-3120001,0
6,281,1388.54193515726,0,0,193982.051796815,193983.098819796,1,70,12,0,0,7,20,103157038,119516726,96312167,190889884,0,1010170,31911419,2171050,20410609,2020001,-3021161,11410719,31201909,3111051,20002009,10500019,31511119,10510609,0,3060101,30311409,10510409,0,0,0,0,30510019,0,3100010,41400919,21301219,31601609,4041091,40601809,0,40900619,30611519,11911019,20012009,11210209
6,282,1024.5074518898,1,0,193985.698754122,193986.745779413,1,70,12,1,1,5,20,138013678,158476897,169357976,189415225,30700019,2200101,0,2010131,-1080180,41511419,0,20000509,40511319,30800319,1130021,0,21810209,40111719,0,2011101,21112019,41501509,2131100,31412009,0,30300309,31201819,31601019,40511709,0,2200011,11510119,40200419,1191011,0,31501719,0,22010319,41701419,41300219
6,283,455.648714851122,1,0,193988.804545629,193989.85157554,1,70,12,1,1,28,0,5301173,11190280,0,3152201,3080121,0,0,1101011,1120041,0,0,0,0,0,0,0,3120070,4030160,0,0,0,4040050,0,0,0,0,0,0,0,0,0,-1061021,0,0,0,0,2091180,0,0,0
6,284,1810.23741100216,1,0,193991.333891588,193992.380914954,1,70,12,0,1,8,5,7500391,74943918,40102059,2140141,0,0,4200051,0,0,0,2190150,-1110190,0,0,0,10210609,40601509,0,0,4130181,0,20001619,0,4000051,10000219,20000709,0,4060020,0,2041060,0,0,0,0,0,0,0,0,0,2140141
6,285,986.511420080205,1,0,193995.239660074,193996.28669037,1,70,12,0,1,30,5,1021000,28682800,76693269,18562249,0,0,0,0,0,0,0,0,1021000,0,4051021,0,0,0,21500619,0,0,3131160,40700609,0,11101309,20701209,1050091,0,0,3140051,0,0,0,-4010120,2140040,0,0,0,10211919,2200170
6,286,472.13081837981,1,0,193998.321929696,193999.368951522,1,70,12,0,1,22,20,172356567,110245086,62213940,277757511,31001909,4110000,20500809,40901309,30100919,40510409,3150021,0,2081191,11210919,3030010,21311609,30910609,2171130,0,41610809,0,0,0,2110070,0,-3121051,0,4070191,0,41511119,11401509,10800209,40301519,41411319,31700909,40411309,40511019,21110009,20501209,31010009
6,287,784.104721125914,1,0,194000.957152623,194002.004170985,1,70,12,1,1,13,5,64352089,66473110,40865131,2021131,0,30010519,0,0,0,2190100,0,31101409,1050061,0,0,41010909,-4141031,20310119,1011051,0,0,0,31601919,4041181,0,4111021,0,0,0,1111010,0,2021131,0,0,0,0,0,0,0,0
6,288,594.477956154151,0,0,194003.980594821,194005.027616647,1,70,12,0,0,15,10,33912290,134186378,115985416,46463929,0,0,0,0,30811109,0,0,3101181,0,21800209,0,32001419,3141081,30801309,-3111170,3031071,0,40300119,0,30601719,21101809,3080070,40001209,0,21200609,0,0,3161200,0,0,0,0,0,2170150,40001419,1131160
6,289,1953.89059811714,1,0,194010.192178604,194011.239227378,1,70,13,0,1,31,10,76013908,110577288,64452257,25832969,0,20211709,2150071,0,1150000,22001309,30500819,0,0,1151120,4011171,31511319,0,0,0,30200809,40601809,3101060,1150020,10800619,0,0,41100309,0,0,0,11401309,2201030,0,20601919,-3030020,0,0,0,0,0
6,290,1595.08234489476,0,0,194014.356777517,194015.403800883,1,70,13,0,0,6,20,126696168,145035294,122135648,100936095,0,0,31900509,0,1100091,-2090031,10002009,40401509,41202019,40610519,10901619,0,10810809,0,20800419,21101509,0,40810419,30000819,4150190,0,30401509,41201819,2000010,2130201,10211009,2040091,10100319,20100109,10801219,0,4071020,10711419,3151081,20700219,21300709
6,291,912.163909641095,1,0,194018.097846615,194019.144873831,1,70,13,0,1,14,10,76623012,15491610,125533275,53412238,0,3031180,20510219,40701209,3080011,4190111,2090201,0,3020081,0,0,2031030,0,-1080000,0,0,2180171,10200409,30611219,0,10710319,0,32001019,31200009,0,21010709,0,0,31911819,0,0,0,0,21500419,0,0
6,292,824.684225954115,1,0,194021.227181564,194022.274206471,1,70,13,1,1,26,10,47784070,63392987,96374148,86023238,3111071,0,0,1121171,0,10411509,2030110,0,31110209,20511509,0,11511009,0,0,0,30200409,1170060,0,0,41802009,2031151,0,0,40310409,11200509,-1030070,0,3070080,40000519,1051030,0,0,0,0,0,41901609
6,293,1217.27780802757,0,0,194024.203560745,194025.250580646,1,70,13,0,0,1,0,4172281,8241431,7201321,0,-1081050,0,0,0,1071161,0,0,2020070,0,0,3180160,0,0,4051170,0,0,1010101,0,0,0,4080150,0,0,0,0,3121171,0,0,0,0,0,0,0,0,0,0
6,294,881.703873601509,1,0,194027.626996244,194028.674066191,1,70,13,1,1,34,0,8290292,4160161,8231151,8360131,0,0,4190161,0,4100131,0,0,0,0,0,0,0,0,0,4160161,0,0,0,0,3111041,0,0,1070070,4050040,0,0,0,0,0,0,0,0,4160031,-4200100,0,0
6,295,737.96060559107,0,0,194030.579852385,194031.626867667,1,70,13,1,0,13,5,64352089,66473110,40865131,2021131,0,30010519,0,0,0,2190100,0,31101409,1050061,0,0,41010909,-4141031,20310119,1011051,0,0,0,31601919,4041181,0,4111021,0,0,0,1111010,0,2021131,0,0,0,0,0,0,0,0
6,296,880.500870582182,1,0,194033.55623657,194034.603261861,1,70,13,1,1,33,5,54893110,3121080,54993150,34561840,3110011,1181071,0,0,0,40001319,0,10600709,0,0,0,0,0,0,0,3121080,0,0,0,0,40111209,0,10610619,2071121,2200201,0,0,0,0,0,30100619,1081070,-1190050,0,0,2190101
6,297,661.321422579931,1,0,194036.638504652,194037.685526094,1,70,13,0,1,29,0,8273311,6232222,4172112,3110100,0,4031081,0,0,0,2121200,0,0,2121030,4081061,0,2151161,0,0,0,0,0,0,3171041,0,0,0,0,1001071,0,0,0,0,-3110100,0,0,0,0,0,0,0
6,298,457.516545429826,0,0,194039.450194069,194040.497215125,1,70,13,1,0,28,0,5301173,11190280,0,3152201,3080121,0,0,1101011,1120041,0,0,0,0,0,0,0,3120070,4030160,0,0,0,4040050,0,0,0,0,0,0,0,0,0,-1061021,0,0,0,0,2091180,0,0,0
6,299,830.947925744113,0,0,194041.967765612,194043.014782819,1,70,13,1,0,24,5,43783789,5180081,35994190,80754289,0,30400719,0,0,0,2181051,0,0,11202019,0,0,3160041,0,0,2020040,0,0,0,0,30701919,0,0,1071130,-3180031,0,0,1041110,0,0,0,30702019,41801119,0,4130150,0,4121001
6,300,1114.14792144205,0,0,194044.932393089,194045.9794153,1,70,13,1,0,3,20,159757277,163561116,105845996,96476636,32000619,41001609,-3030201,30111519,1190001,0,11611509,0,40811819,41301819,20711619,2140191,12011519,11302009,0,30611819,4081021,41401119,40510219,0,1191040,30811019,10411709,1110100,0,21811909,0,1201151,0,0,21201009,1051030,10610509,31610909,20700309,10101719
6,301,1661.25251457561,1,0,194048.132299081,194049.179321293,1,70,13,0,1,7,20,87365650,140635694,158093395,152237074,4170051,0,10311919,3001141,21410509,0,-4061131,40210719,4200180,4030020,31010619,1181000,20500909,0,10800409,30210609,11400619,31501509,0,31411909,30210309,2050030,41700719,0,0,12010309,40710119,0,32001919,30600809,41610409,0,20112009,4191010,11710209,12010709
6,302,1302.37342850887,1,0,194051.885135281,194052.932160572,1,70,13,1,1,25,20,86856074,114296087,130253188,132049157,10710409,0,10410409,0,11810619,11501509,0,10711819,31711309,20810909,20911109,0,0,4050101,11200819,4021121,41401319,11900709,40300609,3010111,0,42010419,30100719,0,-3020011,11811319,0,10310809,31401619,1041180,40501519,20300619,3120010,21111219,3171011,1091171
6,303,983.662708953489,0,0,194055.39091778,194056.437947306,1,70,13,0,0,4,20,119338537,136615613,129473928,84938247,10201209,41202019,31901809,-3070010,1100111,1151051,10702009,0,20010319,10400119,10710619,21100719,0,21100219,20901909,0,10900719,41501309,0,0,40911419,0,2011111,41710809,0,4140170,40700419,4081051,31211919,10411719,11500209,2191091,11300809,0,3141140,11100309
6,304,1488.29840883263,0,0,194058.567309202,194059.614328334,1,70,13,1,0,18,10,91496639,98534288,15051930,62722037,0,20601719,41200909,3170191,1091040,3011100,2020071,0,20401609,41202009,4090051,0,0,20900819,0,0,30300409,-2041000,0,0,11900819,0,0,0,2001011,0,1150100,11111419,0,30300009,0,0,21310609,0,0,0
6,305,496.084244281519,0,0,194062.202489398,194063.249518539,1,70,13,0,0,22,5,78365498,16431620,11463492,32021859,0,4041071,0,0,0,11900709,30911909,31511809,0,0,0,4160030,0,0,10210519,2061071,0,0,0,0,3151041,-3011171,0,1151090,0,0,4150190,0,0,0,1011050,0,0,0,0,31010809
6,306,946.811550995335,1,0,194064.943598533,194065.990678873,1,70,13,1,1,20,0,5232031,9492071,3060050,5191311,0,0,0,3181031,0,0,0,0,2051000,3161030,0,0,0,3190010,3141031,0,0,0,0,-3060050,0,0,0,0,0,0,0,0,0,0,0,4030170,0,1161141,0,0
6,307,901.047007006127,1,0,194068.049388499,194069.096409171,1,70,13,1,1,35,10,106405056,22762630,51835499,91484149,0,0,41911319,21210609,0,0,2171100,20701219,20410809,0,0,0,20611519,2151111,0,0,0,0,0,3021120,0,20201219,0,3040111,0,21402019,4171030,21012009,40200909,3140191,0,21000909,3010130,0,-3120001,0
6,308,552.184990112437,1,0,194071.155190015,194072.202216461,1,70,13,0,1,15,0,6373331,7120212,4091331,0,3191121,0,2041020,0,0,0,0,0,1141190,0,0,2080011,1010081,0,-4030120,0,0,0,0,0,0,2061200,0,0,2030131,0,0,0,0,0,0,0,0,0,0,0
6,309,883.699511206942,0,0,194073.778641221,194074.825671901,1,70,13,0,0,27,5,29012869,6161202,25511829,47744938,10400209,11410409,0,0,0,4061130,0,3141121,0,0,0,2120121,0,0,0,0,4041081,0,0,0,0,0,4041160,0,20310509,0,-1160160,0,11101019,31511819,0,3061060,2071040,0,0,0
6,310,959.737105411477,0,0,194076.766793277,194077.813622903,1,70,13,0,0,8,10,55532990,18501880,105477175,78063750,0,41200509,0,0,2201011,10101419,0,-2030051,0,0,0,11300809,0,0,0,3041030,0,4160041,11902009,20510719,0,0,1161000,0,10701719,20200719,41001009,0,0,3070041,1101080,2090011,31501109,0,0,40301509
6,311,1152.83957769861,1,0,194079.931412208,194080.978430955,1,70,13,1,1,5,20,138013678,158476897,169357976,189415225,30700019,2200101,0,2010131,-1080180,41511419,0,20000509,40511319,30800319,1130021,0,21810209,40111719,0,2011101,21112019,41501509,2131100,31412009,0,30300309,31201819,31601019,40511709,0,2200011,11510119,40200419,1191011,0,31501719,0,22010319,41701419,41300219
6,312,695.994086418068,1,0,194083.284256646,194084.331276163,1,70,13,0,1,30,5,77942028,22131119,5330252,50531481,31710509,10100019,1131151,0,0,31810309,0,0,3190040,21010109,0,0,0,0,0,1121010,0,0,4170121,0,0,0,0,1160131,0,0,0,0,0,-4200110,0,2200021,3131131,0,0,41000219
6,313,1525.70891505457,1,0,194089.119385951,194090.166406238,1,70,14,0,1,4,20,172877013,58092968,171978893,111106118,31510409,31000519,0,-4040010,30501119,11001219,21010709,21801119,22011909,0,0,21401519,0,0,3131020,0,31500309,2060120,10510819,11911409,21111909,20811509,20900109,42000109,40601919,4131110,0,0,1171071,10301819,3130191,20000009,2160140,41511919,2120050,30710919
6,314,813.592730730306,1,0,194092.848687177,194093.895714778,1,70,14,1,1,34,0,8290292,4160161,8231151,8360131,0,0,4190161,0,4100131,0,0,0,0,0,0,0,0,0,4160161,0,0,0,0,3111041,0,0,1070070,4050040,0,0,0,0,0,0,0,0,4160031,-4200100,0,0
6,315,819.214700604789,1,0,194095.883914185,194096.930926388,1,70,14,0,1,7,10,29632700,97313217,15732479,76796915,0,0,4020020,0,0,20411509,-1130041,0,4071130,0,0,40310109,21901009,2011000,1090180,0,0,32000919,0,1101150,0,0,0,3121110,0,0,11510219,10211509,0,3071070,0,20801809,10610909,0,10300909,21800709
6,316,486.449826305034,0,0,194098.789706154,194099.83672644,1,70,14,0,0,15,0,1000071,9664783,3171190,4021071,0,1000071,0,0,0,0,0,0,0,0,1050090,2031121,3191201,0,-1201201,0,2191170,0,3171190,0,0,0,0,0,0,0,0,0,0,0,0,4021071,0,0,0,0
6,317,1020.16740202089,0,0,194101.377867988,194102.424898669,1,70,14,1,0,3,20,159757277,163561116,105845996,96476636,32000619,41001609,-3030201,30111519,1190001,0,11611509,0,40811819,41301819,20711619,2140191,12011519,11302009,0,30611819,4081021,41401119,40510219,0,1191040,30811019,10411709,1110100,0,21811909,0,1201151,0,0,21201009,1051030,10610509,31610909,20700309,10101719
6,318,1070.53261445253,0,0,194104.63660179,194105.683630546,1,70,14,0,0,1,20,110654226,72465830,189459332,145163715,-3120110,0,11311009,41910719,0,2000050,40300319,12012019,0,40411219,2031051,1051171,2081080,10200419,3090090,0,10600719,3000081,11601819,10511809,40401919,20410119,41911709,21000319,0,11610319,32011319,0,0,20312019,10000119,1130040,0,31700709,41610319,40410509
6,319,470.177141512977,1,0,194107.918862096,194108.965881998,1,70,14,1,1,28,0,5301173,11190280,0,3152201,3080121,0,0,1101011,1120041,0,0,0,0,0,0,0,3120070,4030160,0,0,0,4040050,0,0,0,0,0,0,0,0,0,-1061021,0,0,0,0,2091180,0,0,0
6,320,644.971360627096,1,0,194110.507027395,194111.554045372,1,70,14,0,1,27,10,93465938,14483271,85344456,25222081,11601019,11110419,4160121,0,4181151,0,20701219,0,41712009,0,10110809,0,0,1031110,0,1160151,2181201,0,0,0,0,0,41211119,10500309,10100409,20511509,-3021110,0,0,0,0,20001809,0,0,1060161,4160111
6,321,1045.45548753231,0,0,194113.330476214,194114.377499196,1,70,14,0,0,14,5,1061081,44551849,66522799,43000479,0,0,1061081,0,0,0,0,0,0,32011519,0,0,0,-2140060,3110200,3160020,4130050,0,10710109,0,0,1131091,3170081,0,40010209,11501309,0,0,0,0,2200170,0,0,40800309,0,0
6,322,1191.37955940096,0,0,194116.577444839,194117.624468975,1,70,14,1,0,33,5,54893110,3121080,54993150,34561840,3110011,1181071,0,0,0,40001319,0,10600709,0,0,0,0,0,0,0,3121080,0,0,0,0,40111209,0,10610619,2071121,2200201,0,0,0,0,0,30100619,1081070,-1190050,0,0,2190101
6,323,1379.82988363365,0,0,194119.836164397,194120.883200852,1,70,14,1,0,5,20,138013678,158476897,169357976,189415225,30700019,2200101,0,2010131,-1080180,41511419,0,20000509,40511319,30800319,1130021,0,21810209,40111719,0,2011101,21112019,41501509,2131100,31412009,0,30300309,31201819,31601019,40511709,0,2200011,11510119,40200419,1191011,0,31501719,0,22010319,41701419,41300219
6,324,649.228258931544,1,0,194123.412543732,194124.459572103,1,70,14,1,1,18,10,91496639,98534288,15051930,62722037,0,20601719,41200909,3170191,1091040,3011100,2020071,0,20401609,41202009,4090051,0,0,20900819,0,0,30300409,-2041000,0,0,11900819,0,0,0,2001011,0,1150100,11111419,0,30300009,0,0,21310609,0,0,0
6,325,706.431148020783,0,0,194126.259525984,194127.306547426,1,70,14,1,0,13,5,64352089,66473110,40865131,2021131,0,30010519,0,0,0,2190100,0,31101409,1050061,0,0,41010909,-4141031,20310119,1011051,0,0,0,31601919,4041181,0,4111021,0,0,0,1111010,0,2021131,0,0,0,0,0,0,0,0
6,326,2059.15239852038,1,0,194129.141795683,194130.18881674,1,70,14,1,1,35,10,106405056,22762630,51835499,91484149,0,0,41911319,21210609,0,0,2171100,20701219,20410809,0,0,0,20611519,2151111,0,0,0,0,0,3021120,0,20201219,0,3040111,0,21402019,4171030,21012009,40200909,3140191,0,21000909,3010130,0,-3120001,0
6,327,1330.7054003526,1,0,194133.365207777,194134.412228834,1,70,14,0,1,6,0,11492492,4131030,0,8170281,0,0,3191121,0,2131190,-3050040,0,3120141,0,0,0,0,4131030,0,0,0,0,0,0,0,0,0,0,0,0,0,0,0,0,2030111,4140000,0,0,0,0,2000170
6,328,895.189825969283,1,1,194136.847461462,194137.894486368,1,70,14,1,0,24,5,43783789,5180081,35994190,80754289,0,30400719,0,0,0,2181051,0,0,11202019,0,0,3160041,0,0,2020040,0,0,0,0,30701919,0,0,1071130,-3180031,0,0,1041110,0,0,0,30702019,41801119,0,4130150,0,4121001
6,329,1016.58957483596,0,0,194139.859138483,194140.906175323,1,70,14,1,0,20,0,5232031,9492071,3060050,5191311,0,0,0,3181031,0,0,0,0,2051000,3161030,0,0,0,3190010,3141031,0,0,0,0,-3060050,0,0,0,0,0,0,0,0,0,0,0,4030170,0,1161141,0,0
6,330,768.534205155447,1,0,194143.059051404,194144.10608247,1,70,14,0,1,29,5,13360429,92783089,53422018,8302131,0,0,0,0,0,11210409,0,0,2150020,0,2000001,3180030,41700819,0,41701109,0,0,4201130,30401609,0,0,0,2020100,0,21000309,0,0,3110031,-3091100,0,0,0,0,0,2101000,0
6,331,1018.70185561711,1,0,194145.964899962,194147.011889067,1,70,14,0,1,31,5,9091521,76113849,85690529,29170291,3010100,0,1000180,0,3061061,0,0,2020180,0,31001519,0,0,0,3101111,0,42011219,0,0,41510319,0,4180001,0,0,0,0,0,40000209,0,20910219,0,-4060011,0,0,0,0,4200061
6,332,1484.11426815437,1,0,194149.08241969,194150.129440746,1,70,14,0,1,8,20,146226915,127726514,144489288,98755438,40512009,10010119,0,30602009,0,21201519,41810209,-2091050,0,10310519,0,32011319,10901919,20700409,0,20101819,30500419,3200110,41610319,1111151,1161061,2030161,41411819,20300509,11801909,22001309,3061050,0,11201019,0,4191091,0,30610219,10810919,40911009,1031181
6,333,682.053110154811,1,0,194152.670551497,194153.717571014,1,70,14,1,1,26,10,47784070,63392987,96374148,86023238,3111071,0,0,1121171,0,10411509,2030110,0,31110209,20511509,0,11511009,0,0,0,30200409,1170060,0,0,41802009,2031151,0,0,40310409,11200509,-1030070,0,3070080,40000519,1051030,0,0,0,0,0,41901609
6,334,810.095360415289,0,0,194155.470476122,194156.517492559,1,70,14,0,0,30,10,66021908,31931530,53777110,157375917,0,3110151,31511619,20900019,0,0,0,10500119,0,0,0,0,0,1121021,0,0,0,30810509,1171001,0,11801919,31411819,3091161,3141020,0,3160190,0,40410419,40611509,-3061120,0,30911409,41211419,1170041,0,0
6,335,508.36218916811,0,0,194158.329212387,194159.376240758,1,70,14,0,0,22,0,4020111,2161130,8443394,5081251,0,0,0,0,0,0,4020111,0,0,0,2161130,0,0,0,0,0,0,0,0,2111081,3131041,-1030101,0,0,0,2171171,0,0,0,3011071,0,0,0,0,2070180,0
6,336,1132.53904640442,1,0,194161.093875358,194162.140876397,1,70,14,1,1,25,20,86856074,114296087,130253188,132049157,10710409,0,10410409,0,11810619,11501509,0,10711819,31711309,20810909,20911109,0,0,4050101,11200819,4021121,41401319,11900709,40300609,3010111,0,42010419,30100719,0,-3020011,11811319,0,10310809,31401619,1041180,40501519,20300619,3120010,21111219,3171011,1091171
6,337,860.576831095386,1,0,194169.18773577,194170.234783773,1,70,15,1,1,20,0,5232031,9492071,3060050,5191311,0,0,0,3181031,0,0,0,0,2051000,3161030,0,0,0,3190010,3141031,0,0,0,0,-3060050,0,0,0,0,0,0,0,0,0,0,0,4030170,0,1161141,0,0
6,338,1523.48307077773,0,0,194172.175889366,194173.222911577,1,70,15,0,0,4,20,123188435,156689655,88676477,134735465,10000709,40600609,1041000,-4010061,3001100,11411709,10211519,31501519,11410209,31402009,0,20911709,0,30401319,40510719,2051171,11111219,20301509,30710519,0,30412019,0,3171040,12001709,4150020,4170090,4061080,0,40310909,0,20411509,0,21301509,12011419,0,40700119
