sub_id,Trial,RT,Resp,Error,Fix_onset,Disp_onset,q1,q2,block,repeat,tid,tloc,d_setsize,quad1,quad2,quad3,quad4,loc1,loc2,loc3,loc4,loc5,loc6,loc7,loc8,loc9,loc10,loc11,loc12,loc13,loc14,loc15,loc16,loc17,loc18,loc19,loc20,loc21,loc22,loc23,loc24,loc25,loc26,loc27,loc28,loc29,loc30,loc31,loc32,loc33,loc34,loc35,loc36
7,1,1129.03823662782,1,0,279048.097917808,279049.144946949,0,0,1,1,1,36,10,34881800,82994649,93585158,95774707,2030151,0,0,2050130,0,0,0,0,30801519,1091121,0,0,0,0,41201709,0,0,40701819,11901719,4190000,1040140,0,0,40711319,30500619,3100180,2141181,0,10001419,20800009,0,22000919,41901309,0,0,-1071051
7,2,1504.7097048373,1,0,279051.486077794,279052.533096541,0,0,1,0,1,9,10,56164719,106333507,64174089,10310719,30300719,0,0,0,2110201,10111409,0,11511319,-2131071,40800619,31210609,0,0,20710409,3000161,10611709,0,0,30201309,4040130,2080101,1060160,4181100,21601219,0,1010070,0,0,0,10310719,0,0,0,0,0,0
7,3,1096.75194579177,0,0,279055.133029327,279056.180107358,0,0,1,0,0,13,20,91404628,125769856,186414384,167740104,2041021,2130140,3110020,31010719,21600819,0,31511909,0,0,4141130,1200010,30701219,-4041070,21512009,30500919,2061171,11311719,20300609,40301019,22010509,40501309,40701109,21500219,0,21400219,0,0,0,30301509,31810819,11911919,30301809,20011419,0,3201120,40201509
7,4,1136.01449917769,0,0,279058.438823067,279059.485836424,0,0,1,0,0,29,5,64123649,29403401,31212009,21442051,20310819,2001121,0,0,0,0,0,0,41811709,4080200,0,0,0,20012019,0,0,3180051,2131131,31212009,0,0,0,0,0,0,0,0,0,-3170160,0,2090161,0,0,1010130,3161191,12010409
7,5,796.799219038803,1,0,279061.732845855,279062.779869221,0,0,1,0,1,34,0,4001011,2201070,6182112,6332231,0,0,0,0,0,0,0,4001011,0,0,0,0,0,0,0,1171030,0,1030040,4151101,0,2031011,0,0,0,0,0,0,1201100,2100080,0,0,0,0,-3031051,0,0
7,6,733.886973932385,0,0,279064.732757699,279065.779778755,0,0,1,0,0,33,5,43032110,2360100,25452010,66595838,0,0,1021101,0,0,0,0,0,42011009,0,0,1200020,0,1160080,0,0,0,0,1091121,0,0,20200809,1120040,0,3040040,0,0,0,11211519,31401609,0,20901509,-2080111,0,1001090,0
7,7,1477.18307125615,0,0,279067.697387101,279068.744402383,0,0,1,1,0,20,10,132614756,56385809,45905199,70344019,0,0,41101309,0,0,40600919,40602009,0,10310519,40701519,0,0,3140161,1061170,0,1181140,0,10301819,0,-1161160,0,0,31101609,11601409,0,2041021,0,0,4161131,30410609,30610909,3000170,0,0,2161200,0
7,8,919.20833545737,0,0,279071.344340173,279072.391378938,0,0,1,1,0,19,5,12432351,94322247,35743989,5311141,3171080,4030010,0,3190191,0,0,2041070,0,0,0,0,42011319,0,41700619,10610309,0,0,0,-2140090,0,0,10312019,2180161,0,0,21111719,0,0,0,0,3160021,0,0,0,0,2151120
7,9,601.179766759742,1,0,279074.39131311,279075.438341095,0,0,1,0,1,22,0,9390353,4091191,8342513,1041051,0,0,4190061,0,0,0,4130101,1070191,0,0,0,0,0,0,0,0,4091191,0,4091201,0,1111201,-3140111,0,0,0,0,0,0,0,0,0,0,0,0,0,1041051
7,10,709.944711939897,1,0,279077.073589045,279078.120615106,0,0,1,0,1,23,0,9272212,2050121,3092181,5361392,0,0,3041181,4170031,0,0,2061000,0,0,0,0,0,0,0,0,2050121,0,0,0,0,0,0,-1021171,0,0,2071010,0,0,0,0,0,0,1190191,0,4171201,0
7,11,696.150790783577,1,0,279079.979395257,279081.026416699,0,0,1,1,1,35,0,7181290,6302280,0,7332270,3061100,0,4120190,0,0,0,0,0,0,0,2061120,0,2161010,0,0,0,0,2080150,0,0,0,0,0,0,0,0,0,0,0,4191040,0,0,0,0,-2001200,1140030
7,12,486.086063436233,0,0,279082.873430133,279083.920454269,0,0,1,1,0,28,10,87633858,88783637,55254208,15562280,1140071,0,11411609,20011019,3060031,0,0,41310319,10700809,0,20900309,31111409,31700719,0,3051020,0,0,2020180,0,3051120,30901319,0,0,20211709,1090060,0,0,-2131121,0,2131040,0,0,0,11300119,0,0
7,13,767.195336113218,1,0,279085.532176485,279086.579210245,0,0,1,1,1,14,5,58152470,84934269,42871610,4371260,0,0,2071171,10400409,2100061,0,2070020,41510809,0,41511319,0,1180161,0,-1041080,41201709,0,0,0,0,40800519,0,0,2071091,0,0,0,0,1180060,0,0,3191200,0,0,0,0,0
7,14,1374.8088630382,1,0,279088.461506121,279089.508531797,0,0,1,1,1,1,20,149917495,175336005,162646695,92133856,-3071200,30511809,2010120,41110119,0,11701109,21101519,0,40411619,2090120,0,30411119,0,30811119,41611019,40001019,30411609,0,41701419,40212019,10800009,20910219,20000219,20810709,0,4171101,4041000,3050150,4120040,0,11511819,0,2041000,20100109,20010619,31300119
7,15,1710.63148224493,0,0,279091.990820129,279093.037845805,0,0,1,1,0,6,20,181559816,89573387,190785534,252629784,3021121,0,21201819,41611709,40901319,-1101010,41910819,31812019,0,10510019,0,0,4031090,0,31001709,0,40910409,3120160,0,11110009,40611409,41300509,31011319,2190030,41210709,2140140,21211409,0,40610809,4181060,40812019,41811319,3111140,40400919,40601209,41101309
7,16,987.928871531039,1,0,279095.908363415,279096.955389477,0,0,1,0,1,30,20,136924225,154216376,160595787,122616487,20111309,0,3171070,20510109,0,20910509,31510619,40710609,0,10501309,21100509,4050041,21410209,0,31712009,4130171,30410219,30901909,30410519,1201011,31901319,0,0,31700409,20201319,42011009,3170201,31511809,0,-1111160,20211009,20800409,0,4171050,4201031,40610019
7,17,861.74405796919,0,0,279099.096510775,279100.143566479,0,0,1,1,0,24,0,8302210,7612464,3180001,0,4101030,0,0,0,0,0,0,4201180,0,2091070,1141091,2150121,0,1060141,0,1170041,0,0,0,0,0,0,0,-3180001,0,0,0,0,0,0,0,0,0,0,0,0
7,18,681.695891660638,1,0,279102.037612518,279103.084662062,0,0,1,1,1,11,0,6172352,6322132,9211201,4031160,4121161,0,0,0,0,0,2051191,0,0,0,-3161031,0,0,0,0,0,3161101,0,1140080,4070030,0,0,0,0,0,0,4001091,4031160,0,0,0,0,0,0,0,0
7,19,813.67898726603,0,0,279104.790511082,279105.837509041,0,0,1,0,0,25,10,69092360,134806426,39942260,45360828,0,31011219,2200051,30700819,2130170,0,0,3050101,0,40811909,20810709,21201209,10011319,0,0,0,1061061,40910219,3080131,0,1141090,0,0,0,-4120030,31601009,0,3160110,0,0,10900109,0,0,0,0,31300609
7,20,1678.6681736703,0,0,279107.837499417,279108.884476973,0,0,1,0,0,31,5,54783988,45132709,3101200,38872990,1100130,0,0,10602019,0,40901709,0,2180130,0,0,0,2111191,31310709,11710809,0,0,0,0,0,1030120,0,0,2071080,0,0,0,0,30701719,0,0,-2041080,0,0,2000181,0,4130010
7,21,848.586862208322,0,0,279111.672635266,279112.719654397,0,0,1,1,0,7,20,200328834,172395767,76534868,188744984,31801619,11710509,1071000,40612009,40410619,41102019,-2020150,31600909,0,4201121,21210409,41200809,41010919,0,0,1160081,31601109,32011319,11800219,41411519,10900719,4051110,0,4180101,0,2100160,2091040,31611719,0,31811019,0,41410009,40200319,0,11911009,31800909
7,22,646.208650432527,0,0,279114.754896804,279115.801918245,0,0,1,0,0,17,20,178577553,149987447,68245878,109454525,2141020,20600319,21711319,10100319,31910119,31511419,30101719,0,30501319,40511309,1171071,0,21300609,0,31101919,20811019,-3080011,32011509,11810209,0,1130110,41411409,11711809,1171140,1011201,0,0,0,20500519,31000819,10301019,0,4100040,21601519,20810419,1140190
7,23,633.937634818722,1,0,279117.590113879,279118.637135321,0,0,1,1,1,27,5,16832370,42052471,55743358,25721169,4131181,0,0,2201080,0,0,10500109,0,0,0,2141001,31901219,0,0,0,4010161,4000090,0,20211609,0,0,0,0,0,31500719,0,-4031030,21600919,0,0,0,0,0,3020060,1100190,0
7,24,887.185357918497,1,0,279120.448861694,279121.49588429,0,0,1,0,1,26,10,31312019,75032759,77294600,149845236,0,31312019,0,0,0,0,0,0,0,0,0,30500819,3130131,0,0,41401809,0,0,31200219,2090140,2011101,0,4140081,3090200,0,-4051150,30711709,40510409,31201819,21411719,2080160,0,20200119,4130191,0,30310819
7,25,1280.09730274789,0,0,279129.978003238,279131.025036999,0,0,2,1,0,6,20,181559816,89573387,190785534,252629784,3021121,0,21201819,41611709,40901319,-1101010,41910819,31812019,0,10510019,0,0,4031090,0,31001709,0,40910409,3120160,0,11110009,40611409,41300509,31011319,2190030,41210709,2140140,21211409,0,40610809,4181060,40812019,41811319,3111140,40400919,40601209,41101309
7,26,964.333074400201,1,0,279133.389672021,279134.436699237,0,0,2,0,1,26,5,52005061,25012920,47242768,4160030,0,0,21511019,0,4140101,4091041,2161081,20101819,0,0,0,3111201,21901719,0,0,0,0,0,20700419,0,0,2140130,2000130,0,20210909,-2191180,0,0,4160030,0,0,0,0,0,0,0
7,27,850.875840056688,0,0,279136.613115682,279137.660132889,0,0,2,0,0,33,20,112487246,85894506,171509033,113097878,10302019,0,3101031,3070060,11601809,0,21911309,31300209,31200809,10110919,20600409,21810519,0,0,30201609,3171050,0,0,11011809,12010019,21410209,0,3041040,30211919,31411609,21311019,41101409,31110109,3161051,10600719,0,2060150,-1171141,40901709,3081180,21011819
7,28,879.096558259334,0,0,279139.67185033,279140.718876776,0,0,2,0,0,29,10,90343869,49421009,59563457,55771520,0,0,3041001,10910719,4080121,0,0,31211409,41100619,0,21700619,0,0,0,0,21710119,3010121,3000150,21700309,11911209,3141070,0,0,0,21810709,1000160,0,3080091,-1070201,30910219,20711009,0,0,0,0,0
7,29,839.692724170163,0,0,279142.801184124,279143.848250222,0,0,2,0,0,13,5,77461027,9412451,58882820,4141100,0,20710009,0,4140090,41200419,11410509,0,0,0,0,4080140,2141180,-3191131,0,0,0,0,0,0,2170031,41201319,0,0,10211419,2150030,0,3150021,0,0,0,0,0,0,0,4141100,0
7,30,885.478056094144,1,0,279145.883445277,279146.930465564,0,0,2,1,1,19,5,12432351,94322247,35743989,5311141,3171080,4030010,0,3190191,0,0,2041070,0,0,0,0,42011319,0,41700619,10610309,0,0,0,-2140090,0,0,10312019,2180161,0,0,21111719,0,0,0,0,3160021,0,0,0,0,2151120
7,31,541.864596947562,0,0,279148.859830617,279149.906858218,0,0,2,0,0,22,0,4091161,8143582,4010191,2071171,0,0,0,0,0,0,0,0,4091161,1001120,0,2021160,3030191,0,0,2091111,0,0,0,0,0,-4010191,0,0,0,0,0,0,0,0,1010031,0,0,0,1061140,0
7,32,458.65297538694,1,0,279151.58916726,279152.636189087,0,0,2,1,1,14,5,58152470,84934269,42871610,4371260,0,0,2071171,10400409,2100061,0,2070020,41510809,0,41511319,0,1180161,0,-1041080,41201709,0,0,0,0,40800519,0,0,2071091,0,0,0,0,1180060,0,0,3191200,0,0,0,0,0
7,33,1296.22485727305,1,0,279154.271450895,279155.318474261,0,0,2,1,1,1,20,149917495,175336005,162646695,92133856,-3071200,30511809,2010120,41110119,0,11701109,21101519,0,40411619,2090120,0,30411119,0,30811119,41611019,40001019,30411609,0,41701419,40212019,10800009,20910219,20000219,20810709,0,4171101,4041000,3050150,4120040,0,11511819,0,2041000,20100109,20010619,31300119
7,34,1143.31951836357,0,0,279157.765471296,279158.812485808,0,0,2,0,0,25,20,88234586,180040534,91485400,199776674,10300009,20300709,0,21011809,0,0,2150140,3061000,31410919,32001119,11211209,2001021,21201919,41211809,10801619,20811319,0,40800519,0,30501609,11501509,3120061,41010119,1181021,-4171081,0,0,30810509,3140120,31401919,40200019,0,1091180,41510409,20311909,31310609
7,35,887.693506432697,1,0,279160.988908797,279162.035954876,0,0,2,1,1,11,0,6172352,6322132,9211201,4031160,4121161,0,0,0,0,0,2051191,0,0,0,-3161031,0,0,0,0,0,3161101,0,1140080,4070030,0,0,0,0,0,0,4001091,4031160,0,0,0,0,0,0,0,0
7,36,912.878807343077,0,0,279164.094702614,279165.141716356,0,0,2,1,0,7,20,200328834,172395767,76534868,188744984,31801619,11710509,1071000,40612009,40410619,41102019,-2020150,31600909,0,4201121,21210409,41200809,41010919,0,0,1160081,31601109,32011319,11800219,41411519,10900719,4051110,0,4180101,0,2100160,2091040,31611719,0,31811019,0,41410009,40200319,0,11911009,31800909
7,37,729.106143757235,0,0,279167.094620617,279168.141647448,0,0,2,0,0,9,20,107224696,128832755,138858726,198535444,3120200,4081020,11501519,20100709,0,21810019,41500019,1081110,-4030100,10400309,0,41910609,21310109,3100110,0,41201609,10910009,0,10811719,0,30412019,3101191,40010709,41710709,11811309,1001070,0,20210509,3100060,0,40401019,40410219,41100509,11311309,0,42001819
7,38,1015.53211227292,0,0,279170.023999914,279171.070972465,0,0,2,1,0,24,0,8302210,7612464,3180001,0,4101030,0,0,0,0,0,0,4201180,0,2091070,1141091,2150121,0,1060141,0,1170041,0,0,0,0,0,0,0,-3180001,0,0,0,0,0,0,0,0,0,0,0,0
7,39,713.099466986023,0,0,279173.294446923,279174.341473754,0,0,2,1,0,20,10,132614756,56385809,45905199,70344019,0,0,41101309,0,0,40600919,40602009,0,10310519,40701519,0,0,3140161,1061170,0,1181140,0,10301819,0,-1161160,0,0,31101609,11601409,0,2041021,0,0,4161131,30410609,30610909,3000170,0,0,2161200,0
7,40,871.357687981799,1,0,279176.153185113,279177.200216564,0,0,2,0,1,34,5,0,30153750,79694698,46783529,0,0,0,0,0,0,0,0,0,0,3051110,2031041,0,1030110,0,0,21900309,2141180,0,3051120,41500419,4031021,0,0,0,20200819,10911319,0,0,0,41611319,0,3151030,-2021180,0,0
7,41,530.557138612494,1,0,279179.164875993,279180.21188858,0,0,2,1,1,27,5,16832370,42052471,55743358,25721169,4131181,0,0,2201080,0,0,10500109,0,0,0,2141001,31901219,0,0,0,4010161,4000090,0,20211609,0,0,0,0,0,31500719,0,-4031030,21600919,0,0,0,0,0,3020060,1100190,0
7,42,551.943644823041,0,0,279181.882444379,279182.92946582,0,0,2,1,0,28,10,87633858,88783637,55254208,15562280,1140071,0,11411609,20011019,3060031,0,0,41310319,10700809,0,20900309,31111409,31700719,0,3051020,0,0,2020180,0,3051120,30901319,0,0,20211709,1090060,0,0,-2131121,0,2131040,0,0,0,11300119,0,0
7,43,565.095066092908,1,0,279184.576483566,279185.623504238,0,0,2,1,1,35,0,7181290,6302280,0,7332270,3061100,0,4120190,0,0,0,0,0,0,0,2061120,0,2161010,0,0,0,0,2080150,0,0,0,0,0,0,0,0,0,0,0,4191040,0,0,0,0,-2001200,1140030
7,44,808.157877123449,0,0,279187.282290626,279188.329316687,0,0,2,1,0,36,10,34881800,82994649,93585158,95774707,2030151,0,0,2050130,0,0,0,0,30801519,1091121,0,0,0,0,41201709,0,0,40701819,11901719,4190000,1040140,0,0,40711319,30500619,3100180,2141181,0,10001419,20800009,0,22000919,41901309,0,0,-1071051
7,45,785.02172336448,1,0,279190.176332816,279191.223349638,0,0,2,0,1,30,0,8171211,12583323,0,5181231,0,4030170,0,0,0,0,4141041,0,0,0,0,0,0,3151051,0,2181091,4110000,3141181,0,0,0,0,0,0,0,0,0,0,0,-2110130,0,3071101,0,0,0,0
7,46,710.371633642353,1,0,279193.140954133,279194.18797442,0,0,2,0,1,31,0,1140010,4060151,7220330,12422322,0,0,0,1140010,0,0,0,0,0,0,0,0,4060151,0,0,0,0,0,0,4060140,0,0,0,3160190,0,0,0,0,0,4090060,-1191070,0,0,0,3001001,4140191
7,47,903.866101347376,1,0,279196.105626266,279197.152608057,0,0,2,0,1,17,10,95055177,5241201,54293583,85234585,20802009,0,1040131,0,0,0,10211709,21201319,41800009,3160031,0,0,0,0,0,0,-2081170,0,4081201,2130021,2131041,0,40810119,0,0,1010021,4131180,10801019,0,11110319,0,0,10511519,41110119,0,11701609
7,48,590.120223350823,1,0,279199.070199464,279200.117225525,0,0,2,0,1,23,10,45310119,64214571,94213518,77003176,3060050,0,0,0,0,1040050,41210019,0,0,3030051,2161051,0,40311619,0,0,4070171,11600609,3041070,0,30712009,0,0,-2080081,41310209,20111219,0,0,0,4080010,0,31211719,0,10800519,0,20510009,10400919
7,49,827.872112917248,1,0,279205.552364992,279206.599390668,0,0,3,0,1,30,5,4251020,4282171,52463399,93306488,0,0,0,3201000,0,1050020,0,0,0,3081031,1201140,0,0,0,0,0,0,0,0,30801209,0,0,0,1051181,0,20611009,0,21902009,4180011,-2161140,0,0,0,40911619,21100619,3051090
7,50,1074.80147178285,1,0,279208.493502537,279209.540487022,0,0,3,0,1,25,10,54932018,49522548,68563879,74913447,21200809,1070100,11010319,20610609,0,0,0,1040181,0,0,30311519,0,0,0,11910019,0,3180010,4121000,0,41500919,20711609,0,1090100,3161161,-2100090,0,0,3091100,0,0,30000919,0,0,30510409,0,11311019
7,51,994.761158654001,1,0,279211.693379657,279212.740399559,0,0,3,0,1,26,0,0,6121080,8380190,6240260,0,0,0,0,0,0,0,0,0,0,0,0,0,3011060,0,3110020,0,0,0,0,1180080,4020070,0,0,0,-3180040,0,0,3150020,0,0,1060110,0,0,2030130,0
7,52,791.228063986637,0,0,279214.81093711,279215.857958937,0,0,3,1,0,7,20,200328834,172395767,76534868,188744984,31801619,11710509,1071000,40612009,40410619,41102019,-2020150,31600909,0,4201121,21210409,41200809,41010919,0,0,1160081,31601109,32011319,11800219,41411519,10900719,4051110,0,4180101,0,2100160,2091040,31611719,0,31811019,0,41410009,40200319,0,11911009,31800909
7,53,742.218299070373,0,0,279217.857910817,279218.904936493,0,0,3,1,0,20,10,132614756,56385809,45905199,70344019,0,0,41101309,0,0,40600919,40602009,0,10310519,40701519,0,0,3140161,1061170,0,1181140,0,10301819,0,-1161160,0,0,31101609,11601409,0,2041021,0,0,4161131,30410609,30610909,3000170,0,0,2161200,0
7,54,606.458736408968,0,0,279220.857828435,279221.904849107,0,0,3,0,0,29,0,1020190,5222371,2051171,10261191,0,0,0,0,0,0,0,0,1020190,0,4191201,0,1031170,0,0,0,0,0,0,0,0,0,0,2051171,0,0,0,0,-4031000,0,0,2080090,0,1050061,0,3100040
7,55,527.034360857215,1,0,279223.645987498,279224.69300586,0,0,3,1,1,27,5,16832370,42052471,55743358,25721169,4131181,0,0,2201080,0,0,10500109,0,0,0,2141001,31901219,0,0,0,4010161,4000090,0,20211609,0,0,0,0,0,31500719,0,-4031030,21600919,0,0,0,0,0,3020060,1100190,0
7,56,530.547514616046,0,0,279226.410617362,279227.457636494,0,0,3,1,0,14,5,58152470,84934269,42871610,4371260,0,0,2071171,10400409,2100061,0,2070020,41510809,0,41511319,0,1180161,0,-1041080,41201709,0,0,0,0,40800519,0,0,2071091,0,0,0,0,1180060,0,0,3191200,0,0,0,0,0
7,57,1009.56829712959,0,0,279229.010553612,279230.05756774,0,0,3,1,0,11,0,6172352,6322132,9211201,4031160,4121161,0,0,0,0,0,2051191,0,0,0,-3161031,0,0,0,0,0,3161101,0,1140080,4070030,0,0,0,0,0,0,4001091,4031160,0,0,0,0,0,0,0,0
7,58,767.078692966606,1,0,279232.139867004,279233.1868896,0,0,3,0,1,33,20,127875847,177807963,217935185,48292839,0,2081111,2160180,0,0,20210819,31611319,40911309,30901109,30201319,20910509,0,10600419,30011819,20000209,40911509,22011119,3161060,40010009,31311709,4161031,41700009,40300919,32000009,21300309,4091080,3060110,0,20400119,10411519,0,3061131,-4120061,0,10300009,0
7,59,982.876643887721,1,0,279235.069241296,279236.116220007,0,0,3,1,1,36,10,34881800,82994649,93585158,95774707,2030151,0,0,2050130,0,0,0,0,30801519,1091121,0,0,0,0,41201709,0,0,40701819,11901719,4190000,1040140,0,0,40711319,30500619,3100180,2141181,0,10001419,20800009,0,22000919,41901309,0,0,-1071051
7,60,580.181686149444,1,0,279238.186763333,279239.233784774,0,0,3,0,1,9,5,40473650,52723149,3201371,33842969,31211309,4101031,0,0,4021160,0,0,0,-1140150,20000219,1040081,0,0,0,0,1181140,0,30501709,2191190,0,0,0,0,0,1010181,0,0,11101419,21710419,0,0,0,1031131,0,0,0
7,61,1839.31738726096,1,0,279240.98680691,279242.033705549,0,0,3,1,1,19,5,12432351,94322247,35743989,5311141,3171080,4030010,0,3190191,0,0,2041070,0,0,0,0,42011319,0,41700619,10610309,0,0,0,-2140090,0,0,10312019,2180161,0,0,21111719,0,0,0,0,3160021,0,0,0,0,2151120
7,62,1360.54605944082,1,1,279245.04538796,279246.092415561,0,0,3,1,0,6,20,181559816,89573387,190785534,252629784,3021121,0,21201819,41611709,40901319,-1101010,41910819,31812019,0,10510019,0,0,4031090,0,31001709,0,40910409,3120160,0,11110009,40611409,41300509,31011319,2190030,41210709,2140140,21211409,0,40610809,4181060,40812019,41811319,3111140,40400919,40601209,41101309
7,63,570.549577998463,0,0,279251.092377065,279252.13931035,0,0,3,1,0,28,10,87633858,88783637,55254208,15562280,1140071,0,11411609,20011019,3060031,0,0,41310319,10700809,0,20900309,31111409,31700719,0,3051020,0,0,2020180,0,3051120,30901319,0,0,20211709,1090060,0,0,-2131121,0,2131040,0,0,0,11300119,0,0
7,64,598.481190449093,0,0,279253.83337764,279254.88040755,0,0,3,1,0,35,0,7181290,6302280,0,7332270,3061100,0,4120190,0,0,0,0,0,0,0,2061120,0,2161010,0,0,0,0,2080150,0,0,0,0,0,0,0,0,0,0,0,4191040,0,0,0,0,-2001200,1140030
7,65,599.514810659457,1,0,279256.633302649,279257.680324476,0,0,3,0,1,23,10,84164588,67741970,199446955,6290392,20301419,0,0,31301209,30501909,0,2060051,0,0,21300219,0,0,41211419,4050151,1180181,0,0,0,40510619,40610219,0,30500119,-2181060,0,3041110,41201819,41402009,2090080,3080171,0,0,1120141,0,0,0,0
7,66,996.764495561365,0,0,279259.444993221,279260.492021977,0,0,3,0,0,13,20,75214874,133885739,109506355,165297227,0,10101809,11601109,11301309,10200419,11510209,20500019,0,0,2071171,1020180,2100081,-3081141,41810309,20901419,21700619,41200819,0,21911009,22000309,3171000,20810309,10611919,31001809,0,0,0,0,31911609,4080161,3101190,21801209,2191011,40100519,32000709,30110819
7,67,1120.07326580351,1,0,279262.50372248,279263.550749696,0,0,3,0,1,22,5,23991239,4351292,16212780,78306017,0,3181030,0,20810209,0,0,0,0,0,0,0,0,0,1160011,0,0,2031090,1160191,0,0,3131140,-2170031,0,0,0,0,10911609,3141160,10100509,0,0,0,21801319,0,40201909,3061120
7,68,1362.18483821722,1,0,279265.715405968,279266.76243049,0,0,3,0,1,31,10,27665560,74904631,81503857,63593218,0,4051111,1031190,0,0,10311419,2070021,10201819,0,4181061,41700719,2191161,0,21611609,0,0,3170021,2050060,21000219,0,40001719,0,0,0,0,20501919,0,10200619,0,0,-1170061,0,0,10811719,41410819,0
7,69,783.797932497691,1,0,279269.291772599,279270.338792886,0,0,3,0,1,34,20,163635475,154345634,151986467,113704146,12001109,31200109,0,41800219,3130171,11800819,2081010,40211619,21410419,4131120,20700409,30610019,0,4170130,10801819,31910209,20311309,31710619,0,41511419,31410309,4201020,40911719,31700719,1081101,1170180,0,0,0,0,21801309,0,30010009,-1181190,40410219,20301419
7,70,986.373244319111,0,0,279272.244639904,279273.315249058,0,0,3,1,0,24,0,8302210,7612464,3180001,0,4101030,0,0,0,0,0,0,4201180,0,2091070,1141091,2150121,0,1060141,0,1170041,0,0,0,0,0,0,0,-3180001,0,0,0,0,0,0,0,0,0,0,0,0
7,71,1222.24036499392,1,0,279275.456310303,279276.503333285,0,0,3,1,1,1,20,149917495,175336005,162646695,92133856,-3071200,30511809,2010120,41110119,0,11701109,21101519,0,40411619,2090120,0,30411119,0,30811119,41611019,40001019,30411609,0,41701419,40212019,10800009,20910219,20000219,20810709,0,4171101,4041000,3050150,4120040,0,11511819,0,2041000,20100109,20010619,31300119
7,72,709.987442591228,0,0,279278.844453737,279279.891474023,0,0,3,0,0,17,0,5311211,8661520,4151151,3091051,0,3190191,0,2121020,0,0,0,0,0,2170110,0,2180180,0,0,0,0,-3130060,1181170,0,0,4151151,0,0,0,0,0,0,0,0,0,3091051,0,0,0,0,0
7,73,982.227984641213,0,0,279284.950169021,279285.997186228,0,0,4,1,0,1,20,149917495,175336005,162646695,92133856,-3071200,30511809,2010120,41110119,0,11701109,21101519,0,40411619,2090120,0,30411119,0,30811119,41611019,40001019,30411609,0,41701419,40212019,10800009,20910219,20000219,20810709,0,4171101,4041000,3050150,4120040,0,11511819,0,2041000,20100109,20010619,31300119
7,74,1132.5871917652,0,0,279288.161830951,279289.208863172,0,0,4,1,0,20,10,132614756,56385809,45905199,70344019,0,0,41101309,0,0,40600919,40602009,0,10310519,40701519,0,0,3140161,1061170,0,1181140,0,10301819,0,-1161160,0,0,31101609,11601409,0,2041021,0,0,4161131,30410609,30610909,3000170,0,0,2161200,0
7,75,1009.83315025223,1,0,279291.3735129,279292.420530492,0,0,4,0,1,25,20,196216826,131099066,125764177,169144096,40110219,40801209,4020070,31411309,21410509,2190191,31502009,3060001,21711309,21600419,30410909,11911909,1110070,2191091,30801119,1061121,21211209,10801219,21311709,31710719,0,30710519,0,0,-1031121,41000109,0,0,0,41310209,0,0,4110030,41901919,40311719,41510219
7,76,590.160259278491,1,0,279294.585191383,279295.63221244,0,0,4,0,1,34,0,3091190,4192132,3220301,10402403,0,0,0,0,0,0,3091190,0,0,0,0,0,0,0,0,0,2121001,2071131,0,0,0,2170101,0,1050200,0,0,0,0,0,0,0,0,2141041,-4101181,0,4160181
7,77,799.750714679249,0,0,279297.361625305,279298.408605556,0,0,4,0,0,31,0,1171001,6231002,4222301,8251291,0,0,1171001,0,0,0,0,0,0,0,0,0,4141001,0,0,0,0,2090001,0,0,0,0,0,0,0,1181200,3041101,0,0,3020070,-1081111,0,0,0,0,4150110
7,78,556.83611362474,0,0,279300.314431401,279301.361460542,0,0,4,0,0,22,5,17341310,33121489,11131240,58403478,2160070,0,1050040,1180050,0,0,1041041,11910109,0,0,0,0,0,0,0,1121170,32000319,0,0,0,0,-1021131,0,0,10110109,0,0,0,0,3070130,30511709,4020130,0,0,20801509,0
7,79,749.151060997974,0,0,279303.079068964,279304.12609541,0,0,4,0,0,33,10,122173658,57962299,3071110,84676207,0,20601609,2030021,0,11910019,2000180,41000009,40610619,4021201,0,2100200,11900609,1190100,0,1071081,0,0,41700309,0,0,0,0,3071110,0,0,0,0,30901409,0,0,20711119,11211919,-1050141,0,0,20801619
7,80,1408.56955439085,0,0,279305.996633039,279307.043658715,0,0,4,0,0,26,0,0,5331160,11341391,11390482,0,0,0,0,0,0,0,0,0,0,0,2171060,0,0,3160100,0,0,0,0,0,0,4131100,0,0,0,-3160150,4050141,3150181,0,4080200,4160101,0,0,0,0,0
7,81,556.554707174655,1,0,279309.596534643,279310.64360613,0,0,4,1,1,35,0,7181290,6302280,0,7332270,3061100,0,4120190,0,0,0,0,0,0,0,2061120,0,2161010,0,0,0,0,2080150,0,0,0,0,0,0,0,0,0,0,0,4191040,0,0,0,0,-2001200,1140030
7,82,660.178113728762,0,0,279312.267115079,279313.314075312,0,0,4,1,0,24,0,8302210,7612464,3180001,0,4101030,0,0,0,0,0,0,4201180,0,2091070,1141091,2150121,0,1060141,0,1170041,0,0,0,0,0,0,0,-3180001,0,0,0,0,0,0,0,0,0,0,0,0
7,83,842.389760655351,0,0,279315.078734048,279316.125758954,0,0,4,1,0,36,10,34881800,82994649,93585158,95774707,2030151,0,0,2050130,0,0,0,0,30801519,1091121,0,0,0,0,41201709,0,0,40701819,11901719,4190000,1040140,0,0,40711319,30500619,3100180,2141181,0,10001419,20800009,0,22000919,41901309,0,0,-1071051
7,84,641.371615929529,1,0,279318.019830402,279319.066849918,0,0,4,0,1,9,10,56102587,76813498,28183240,119986598,0,11900119,30800519,0,0,0,0,11301809,-2100140,41301419,0,31500919,0,0,0,0,4011160,0,0,20810919,3080040,1021161,2121070,1150050,0,0,0,41200909,0,10601119,40611419,3071191,0,4000051,20501909,0
7,85,1175.48685631482,0,0,279320.831514044,279321.87853972,0,0,4,1,0,19,5,12432351,94322247,35743989,5311141,3171080,4030010,0,3190191,0,0,2041070,0,0,0,0,42011319,0,41700619,10610309,0,0,0,-2140090,0,0,10312019,2180161,0,0,21111719,0,0,0,0,3160021,0,0,0,0,2151120
7,86,586.153970507439,1,0,279324.102017257,279325.149037159,0,0,4,1,1,14,5,58152470,84934269,42871610,4371260,0,0,2071171,10400409,2100061,0,2070020,41510809,0,41511319,0,1180161,0,-1041080,41201709,0,0,0,0,40800519,0,0,2071091,0,0,0,0,1180060,0,0,3191200,0,0,0,0,0
7,87,909.848394687288,0,0,279326.784335923,279327.831313094,0,0,4,0,0,23,5,61232989,1080130,58323840,42302689,11411209,41500609,2180020,2131130,4010021,0,0,0,0,1080130,0,0,0,0,0,0,0,0,0,30611519,3040001,2111090,-1060011,0,0,21501219,0,0,0,0,41211509,0,0,0,1091180,0
7,88,1109.26125221886,1,0,279329.760681227,279330.807699974,0,0,4,0,1,13,20,106455447,109737107,167677346,162296785,0,31010109,1050130,20011509,40801809,2171181,0,0,11410709,40511909,1031080,11610119,-2131081,1140171,21500619,10810709,21001419,0,31802009,40201719,41110209,0,0,41011419,0,3141181,10410809,11011409,4151021,31700109,41200609,40300219,21600719,11211509,0,1121190
7,89,1291.25770594692,0,0,279332.948820503,279333.995854263,0,0,4,0,0,30,20,128863209,210406102,59894301,158856614,1110051,1070131,20500909,0,21200019,40210619,40700409,0,4071071,21610119,10000419,4060080,41201509,10001309,31600519,40110819,31711119,20110209,2001161,0,21111709,30400119,0,2191191,4190121,0,0,41310509,41801019,-3131130,10202019,21700009,0,20701719,0,20010209
7,90,695.679598546121,1,0,279336.372266396,279337.419336728,0,0,4,0,1,17,5,27821970,14250480,37130690,70411220,0,0,0,0,0,4110080,0,21710719,2001171,0,0,0,0,10110309,0,0,-4140171,0,0,0,0,3080011,0,0,0,32010519,2040160,0,3200100,31410619,3200021,0,31510309,0,0,1090171
7,91,911.112221481744,1,0,279339.289834705,279340.336854992,0,0,4,1,1,7,20,200328834,172395767,76534868,188744984,31801619,11710509,1071000,40612009,40410619,41102019,-2020150,31600909,0,4201121,21210409,41200809,41010919,0,0,1160081,31601109,32011319,11800219,41411519,10900719,4051110,0,4180101,0,2100160,2091040,31611719,0,31811019,0,41410009,40200319,0,11911009,31800909
7,92,1135.8147044084,1,0,279342.325030146,279343.372052358,0,0,4,1,1,11,0,6172352,6322132,9211201,4031160,4121161,0,0,0,0,0,2051191,0,0,0,-3161031,0,0,0,0,0,3161101,0,1140080,4070030,0,0,0,0,0,0,4001091,4031160,0,0,0,0,0,0,0,0
7,93,522.79555570567,0,0,279345.713180894,279346.760204645,0,0,4,1,0,27,5,16832370,42052471,55743358,25721169,4131181,0,0,2201080,0,0,10500109,0,0,0,2141001,31901219,0,0,0,4010161,4000090,0,20211609,0,0,0,0,0,31500719,0,-4031030,21600919,0,0,0,0,0,3020060,1100190,0
7,94,634.52854991192,1,0,279348.454276169,279349.501296456,0,0,4,0,1,29,10,143505817,22661890,87235997,49123419,1181061,0,0,30300819,40611109,0,0,40501419,30911409,0,0,0,2060181,0,20601709,0,0,0,10010509,0,21110319,4061080,3050200,0,4161010,40811819,4031060,22000119,-4100190,0,0,0,0,20902009,0,2121101
7,95,482.98982239794,1,0,279351.17184956,279352.218867152,0,0,4,1,1,28,10,87633858,88783637,55254208,15562280,1140071,0,11411609,20011019,3060031,0,0,41310319,10700809,0,20900309,31111409,31700719,0,3051020,0,0,2020180,0,3051120,30901319,0,0,20211709,1090060,0,0,-2131121,0,2131040,0,0,0,11300119,0,0
7,96,1209.64790706057,0,0,279353.807071717,279354.854094314,0,0,4,1,0,6,20,181559816,89573387,190785534,252629784,3021121,0,21201819,41611709,40901319,-1101010,41910819,31812019,0,10510019,0,0,4031090,0,31001709,0,40910409,3120160,0,11110009,40611409,41300509,31011319,2190030,41210709,2140140,21211409,0,40610809,4181060,40812019,41811319,3111140,40400919,40601209,41101309
7,97,938.638855004683,0,0,279360.348112791,279361.395086497,0,0,5,1,0,19,5,12432351,94322247,35743989,5311141,3171080,4030010,0,3190191,0,0,2041070,0,0,0,0,42011319,0,41700619,10610309,0,0,0,-2140090,0,0,10312019,2180161,0,0,21111719,0,0,0,0,3160021,0,0,0,0,2151120
7,98,853.517827112228,0,0,279363.489150168,279364.536171224,0,0,5,1,0,20,10,132614756,56385809,45905199,70344019,0,0,41101309,0,0,40600919,40602009,0,10310519,40701519,0,0,3140161,1061170,0,1181140,0,10301819,0,-1161160,0,0,31101609,11601409,0,2041021,0,0,4161131,30410609,30610909,3000170,0,0,2161200,0
7,99,822.917280369438,1,0,279366.453773025,279367.500793697,0,0,5,1,1,24,0,8302210,7612464,3180001,0,4101030,0,0,0,0,0,0,4201180,0,2091070,1141091,2150121,0,1060141,0,1170041,0,0,0,0,0,0,0,-3180001,0,0,0,0,0,0,0,0,0,0,0,0
7,100,1053.32719447324,0,0,279369.524277856,279370.571302762,0,0,5,0,0,25,10,68015540,138295516,55102728,34821259,0,0,30811919,1110160,30711209,0,2180080,1091171,2111001,20201619,0,0,0,30910309,4080190,40411909,40511319,2180170,31101319,0,0,0,11600309,10310919,-2090181,0,0,0,0,0,30801219,0,0,0,0,4020040
7,101,760.00388036482,1,0,279372.759485153,279373.80650236,0,0,5,0,1,26,20,128957725,169778064,166265375,71275451,1181191,31401719,31810109,20210819,10001319,0,10301009,22010509,2041050,10900909,41811319,30700619,20610819,0,41300919,11602009,2051161,10800309,41700619,0,41210109,41111419,31001419,0,0,-1031190,10210619,30601409,0,2040131,31310519,4081191,0,2191000,0,1051201
7,102,1131.68869289802,0,0,279375.735872803,279376.782895399,0,0,5,0,0,30,20,212809524,79224235,73084939,92706486,10701509,41301619,21810209,0,41512019,4061121,41302019,21510919,30610109,11600319,0,0,10201809,4000150,11410819,20410619,21600519,0,11001019,2080020,11001019,2160010,4000071,2041081,0,0,40801719,10111109,10311919,-4100070,21311919,21110709,4150141,0,21610619,0
7,103,607.280243129935,1,0,279379.065191507,279380.112212178,0,0,5,0,1,9,10,82155659,56413019,83103676,76163839,0,41610709,0,0,3041050,4171200,1031070,31210609,-1091021,0,0,3131041,41810519,0,0,0,10401419,1070040,11200519,10100719,0,31401819,0,0,0,30400619,0,30701719,2191061,0,2060040,0,0,0,41211019,0
7,104,644.704992882907,1,0,279381.735707655,279382.782766052,0,0,5,0,1,23,5,65713238,32401349,43342663,4150060,0,0,0,22011909,1180190,0,1121130,41400009,0,0,1080021,0,0,10310109,0,0,0,21011219,0,0,31010319,4021171,-3020101,2121061,3170011,0,0,0,0,0,0,0,0,4150060,0,0
7,105,774.141571717337,0,0,279384.547390527,279385.594408119,0,0,5,1,0,35,0,7181290,6302280,0,7332270,3061100,0,4120190,0,0,0,0,0,0,0,2061120,0,2161010,0,0,0,0,2080150,0,0,0,0,0,0,0,0,0,0,0,4191040,0,0,0,0,-2001200,1140030
7,106,1569.0520798089,1,0,279387.547300831,279388.594323812,0,0,5,1,1,6,20,181559816,89573387,190785534,252629784,3021121,0,21201819,41611709,40901319,-1101010,41910819,31812019,0,10510019,0,0,4031090,0,31001709,0,40910409,3120160,0,11110009,40611409,41300509,31011319,2190030,41210709,2140140,21211409,0,40610809,4181060,40812019,41811319,3111140,40400919,40601209,41101309
7,107,656.192997877952,0,0,279391.347196198,279392.394223029,0,0,5,1,0,14,5,58152470,84934269,42871610,4371260,0,0,2071171,10400409,2100061,0,2070020,41510809,0,41511319,0,1180161,0,-1041080,41201709,0,0,0,0,40800519,0,0,2071091,0,0,0,0,1180060,0,0,3191200,0,0,0,0,0
7,108,796.355744008906,0,0,279394.053007492,279395.100026624,0,0,5,1,0,11,0,6172352,6322132,9211201,4031160,4121161,0,0,0,0,0,2051191,0,0,0,-3161031,0,0,0,0,0,3161101,0,1140080,4070030,0,0,0,0,0,0,4001091,4031160,0,0,0,0,0,0,0,0
7,109,531.752442417201,1,0,279397.01762804,279398.064659106,0,0,5,1,1,28,10,87633858,88783637,55254208,15562280,1140071,0,11411609,20011019,3060031,0,0,41310319,10700809,0,20900309,31111409,31700719,0,3051020,0,0,2020180,0,3051120,30901319,0,0,20211709,1090060,0,0,-2131121,0,2131040,0,0,0,11300119,0,0
7,110,937.927832186688,1,0,279399.770490802,279400.817515323,0,0,5,0,1,13,5,10522482,6473423,82823237,43752648,1171191,3071180,2110011,0,0,0,0,4170100,0,0,0,2161141,-3171101,0,1141181,0,0,0,0,30011009,0,30802019,22010209,0,0,0,0,0,0,30501219,0,3141020,0,10110409,0,0
7,111,551.505174254999,0,0,279402.899818052,279403.946836414,0,0,5,0,0,29,0,13422342,0,7210140,4081130,2021120,2070051,1181001,4020080,0,0,4130090,0,0,0,0,0,0,0,0,0,0,0,3070000,0,0,4140140,0,0,0,0,0,0,-4081130,0,0,0,0,0,0,0
7,112,990.201296110172,0,0,279405.582093987,279406.629123128,0,0,5,0,0,33,10,5421292,111733146,98845988,107072197,0,0,1200001,0,0,0,2091160,0,2130131,30710709,0,0,0,0,10510409,30400419,40111609,0,0,31100119,0,0,2031081,3131170,40302019,2070180,20211419,0,2110100,41000119,0,20200009,-3061150,0,0,40700819
7,113,601.227886858396,0,0,279408.676127247,279409.723152538,0,0,5,0,0,34,5,21011409,65524739,37992870,29792291,0,0,0,21011409,0,0,0,0,0,0,0,3021111,0,0,0,41201719,0,21301909,0,3171061,3191090,0,30510619,1120100,0,0,0,0,2131150,1120161,21400819,0,0,-3110140,2030021,0
7,114,475.03421921283,0,0,279411.370171823,279412.417190955,0,0,5,0,0,22,0,9502483,1041040,3170070,7190160,0,3130181,0,1180070,0,1071131,0,4121101,0,0,0,1041040,0,0,0,0,0,0,0,0,0,-3170070,0,0,0,0,0,0,0,0,4090120,0,0,0,0,3100040
7,115,855.178933765274,0,0,279414.02891625,279415.075940386,0,0,5,0,0,17,0,5140110,1030181,3212281,8132421,0,0,3140040,0,0,2000070,0,0,0,0,0,0,0,0,0,0,-1030181,0,0,0,0,0,2101161,0,0,0,1111120,0,0,0,0,3081181,4051130,1000110,0,0
7,116,1143.82920670323,1,0,279417.099433399,279418.146449836,0,0,5,1,1,1,20,149917495,175336005,162646695,92133856,-3071200,30511809,2010120,41110119,0,11701109,21101519,0,40411619,2090120,0,30411119,0,30811119,41611019,40001019,30411609,0,41701419,40212019,10800009,20910219,20000219,20810709,0,4171101,4041000,3050150,4120040,0,11511819,0,2041000,20100109,20010619,31300119
7,117,882.109647674952,1,0,279420.369916979,279421.41694766,0,0,5,1,1,27,5,16832370,42052471,55743358,25721169,4131181,0,0,2201080,0,0,10500109,0,0,0,2141001,31901219,0,0,0,4010161,4000090,0,20211609,0,0,0,0,0,31500719,0,-4031030,21600919,0,0,0,0,0,3020060,1100190,0
7,118,1664.06006010948,1,0,279423.405123969,279424.45214695,0,0,5,0,1,31,20,138554206,106366187,177996664,113634685,1100121,11510219,0,31601619,41410219,1120100,0,10210719,41601209,41101719,20801319,0,20310419,1051141,0,0,22000419,1101170,21400919,20501909,2090080,0,41400609,40100509,41002019,0,11500619,0,41500319,11101119,-1080110,1080160,31700909,11200609,4160050,11811409
7,119,1097.73436613614,1,0,279427.287379039,279428.334447446,0,0,5,1,1,36,10,34881800,82994649,93585158,95774707,2030151,0,0,2050130,0,0,0,0,30801519,1091121,0,0,0,0,41201709,0,0,40701819,11901719,4190000,1040140,0,0,40711319,30500619,3100180,2141181,0,10001419,20800009,0,22000919,41901309,0,0,-1071051
7,120,797.898282587994,0,0,279430.499045204,279431.546063951,0,0,5,1,0,7,20,200328834,172395767,76534868,188744984,31801619,11710509,1071000,40612009,40410619,41102019,-2020150,31600909,0,4201121,21210409,41200809,41010919,0,0,1160081,31601109,32011319,11800219,41411519,10900719,4051110,0,4180101,0,2100160,2091040,31611719,0,31811019,0,41410009,40200319,0,11911009,31800909
7,121,968.668889661785,1,0,279437.322385849,279438.369409216,0,0,6,0,1,23,10,22231551,110813689,86432329,105003327,0,0,0,20000509,0,1070001,0,0,1161041,30911019,31700019,2191031,0,0,40710509,3120021,0,2181090,0,0,0,0,-3011011,0,1010190,40910919,41500209,10800119,0,1081061,40510409,11700219,0,0,0,40911519
7,122,975.008426757995,0,0,279440.439946768,279441.486972059,0,0,6,1,0,1,20,149917495,175336005,162646695,92133856,-3071200,30511809,2010120,41110119,0,11701109,21101519,0,40411619,2090120,0,30411119,0,30811119,41611019,40001019,30411609,0,41701419,40212019,10800009,20910219,20000219,20810709,0,4171101,4041000,3050150,4120040,0,11511819,0,2041000,20100109,20010619,31300119
7,123,600.725127849728,0,0,279443.522217544,279444.569285951,0,0,6,1,0,11,0,6172352,6322132,9211201,4031160,4121161,0,0,0,0,0,2051191,0,0,0,-3161031,0,0,0,0,0,3161101,0,1140080,4070030,0,0,0,0,0,0,4001091,4031160,0,0,0,0,0,0,0,0
7,124,704.668821941596,1,0,279446.275079537,279447.322128311,0,0,6,1,1,7,20,200328834,172395767,76534868,188744984,31801619,11710509,1071000,40612009,40410619,41102019,-2020150,31600909,0,4201121,21210409,41200809,41010919,0,0,1160081,31601109,32011319,11800219,41411519,10900719,4051110,0,4180101,0,2100160,2091040,31611719,0,31811019,0,41410009,40200319,0,11911009,31800909
7,125,537.333221465815,0,0,279449.204606273,279450.251441009,0,0,6,1,0,27,5,16832370,42052471,55743358,25721169,4131181,0,0,2201080,0,0,10500109,0,0,0,2141001,31901219,0,0,0,4010161,4000090,0,20211609,0,0,0,0,0,31500719,0,-4031030,21600919,0,0,0,0,0,3020060,1100190,0
7,126,1083.45269947313,1,0,279451.898450671,279452.945475577,0,0,6,1,1,19,5,12432351,94322247,35743989,5311141,3171080,4030010,0,3190191,0,0,2041070,0,0,0,0,42011319,0,41700619,10610309,0,0,0,-2140090,0,0,10312019,2180161,0,0,21111719,0,0,0,0,3160021,0,0,0,0,2151120
7,127,728.959858592134,0,0,279455.121887787,279456.168909613,0,0,6,0,0,26,10,111017709,71503637,78983038,26203089,1000041,11101419,3201091,11012009,0,3181121,41010509,40511519,0,0,0,0,0,10201709,41101119,0,0,20200809,0,0,1020050,41310219,0,0,31411709,-3161060,2080000,21811819,1190140,0,0,3201130,0,0,0,0
7,128,996.508881449699,0,0,279457.945339686,279458.992359972,0,0,6,0,0,25,0,7221221,1191190,10333303,2101100,0,3081180,4140041,0,0,0,0,0,0,0,0,0,1191190,0,0,0,0,0,0,0,3051191,0,0,4001060,-1180001,2101051,0,0,0,0,0,0,0,2101100,0,0
7,129,928.099778830074,0,0,279461.121721484,279462.16874793,0,0,6,0,0,13,5,41141261,24470119,14212350,76510739,0,2110131,0,0,0,4200100,3120021,0,31711009,0,0,0,-3170000,0,0,21300119,0,0,0,1121200,0,10901009,0,0,2190141,0,0,2180051,31410219,0,0,0,0,1010150,41910319,0
7,130,1191.0515978816,0,0,279464.227521845,279465.274543671,0,0,6,0,0,29,20,139417066,149075365,117484316,127346385,30111109,0,41601419,42010809,10511409,3041061,11101119,0,1040140,31900909,41701609,10410309,3041201,0,11210609,20310519,30500209,0,2161050,0,0,40701419,0,2200000,20810609,41210919,10400319,41400719,-1120070,20701319,1090050,30300619,10400909,0,20311509,2021190
7,131,981.971985602286,1,0,279467.568598411,279468.615620623,0,0,6,1,1,36,10,34881800,82994649,93585158,95774707,2030151,0,0,2050130,0,0,0,0,30801519,1091121,0,0,0,0,41201709,0,0,40701819,11901719,4190000,1040140,0,0,40711319,30500619,3100180,2141181,0,10001419,20800009,0,22000919,41901309,0,0,-1071051
7,132,564.296657103114,1,0,279470.62733537,279471.674361431,0,0,6,1,1,35,0,7181290,6302280,0,7332270,3061100,0,4120190,0,0,0,0,0,0,0,2061120,0,2161010,0,0,0,0,2080150,0,0,0,0,0,0,0,0,0,0,0,4191040,0,0,0,0,-2001200,1140030
7,133,1056.93081405479,1,0,279473.40373118,279474.450753777,0,0,6,1,1,20,10,132614756,56385809,45905199,70344019,0,0,41101309,0,0,40600919,40602009,0,10310519,40701519,0,0,3140161,1061170,0,1181140,0,10301819,0,-1161160,0,0,31101609,11601409,0,2041021,0,0,4161131,30410609,30610909,3000170,0,0,2161200,0
7,134,1174.94637105847,0,0,279476.556589554,279477.603609456,0,0,6,1,0,6,20,181559816,89573387,190785534,252629784,3021121,0,21201819,41611709,40901319,-1101010,41910819,31812019,0,10510019,0,0,4031090,0,31001709,0,40910409,3120160,0,11110009,40611409,41300509,31011319,2190030,41210709,2140140,21211409,0,40610809,4181060,40812019,41811319,3111140,40400919,40601209,41101309
7,135,1145.44142322848,1,0,279479.980019279,279481.027045725,0,0,6,0,1,33,5,42873110,63073990,21311728,7361320,0,0,0,0,1151001,0,40612009,1110100,0,4011121,31300519,4041131,0,2120010,0,0,0,21601209,0,0,10411119,0,0,0,10900609,0,0,3131170,0,0,3190010,0,-1040140,0,0,0
7,136,736.612497537863,1,0,279483.285951604,279484.33288643,0,0,6,0,1,31,0,1061031,7382241,3251341,5183532,0,0,0,1061031,0,0,0,0,0,0,0,0,0,0,0,4201081,0,3181160,0,1080191,0,0,0,0,2171150,0,0,1101180,0,0,-3001201,0,0,0,0,1081151
7,137,562.104689364787,0,0,279486.2504967,279487.297452313,0,0,6,0,0,34,5,17311881,3311142,79413708,28402332,0,0,0,0,0,3151001,10110709,4050171,0,2201111,0,0,0,0,1110031,0,0,0,0,31901909,0,22000619,0,21410019,0,0,4101161,21911019,0,0,3150171,1201021,0,-2140121,0,0
7,138,543.459875159897,0,0,279488.920948559,279489.967976545,0,0,6,0,0,22,20,157305755,93256677,180563736,137617797,20410519,40100709,11201819,3040130,30110219,40710809,10701509,1030041,0,3150011,30010909,0,11001909,11401209,21900909,4181121,11610609,0,0,31301709,41800219,-3040061,31510009,0,30910219,42001519,0,2091181,40211809,21711609,1161170,30000519,0,0,40410309,2031200
7,139,772.132845420856,0,0,279491.697342445,279492.744362347,0,0,6,0,0,30,20,138636194,157897448,86703286,168766476,30500909,10611009,0,41300409,30111309,10010609,0,11901909,4200040,20201219,31401419,2081000,31111309,41101219,3140141,3040071,21711009,4110061,0,1141050,11201609,11110109,30500019,31600409,1150090,0,0,0,21600519,-2141201,0,0,41310019,41601819,20401409,41711509
7,140,445.42533182539,1,0,279494.661960683,279495.708989824,0,0,6,1,1,28,10,87633858,88783637,55254208,15562280,1140071,0,11411609,20011019,3060031,0,0,41310319,10700809,0,20900309,31111409,31700719,0,3051020,0,0,2020180,0,3051120,30901319,0,0,20211709,1090060,0,0,-2131121,0,2131040,0,0,0,11300119,0,0
7,141,751.503942417912,0,0,279497.167783218,279498.214803504,0,0,6,0,0,17,10,5282150,27812819,88616437,125305997,2161000,0,0,0,0,0,0,3121150,0,0,11701819,0,1020061,0,1030050,11900819,-2160070,0,10811119,20311419,0,40901009,4171070,0,2121111,10300709,0,30111219,30101019,40701619,0,4191121,0,0,0,20201019
7,142,518.883197451942,1,0,279500.132402226,279501.179418663,0,0,6,1,1,14,5,58152470,84934269,42871610,4371260,0,0,2071171,10400409,2100061,0,2070020,41510809,0,41511319,0,1180161,0,-1041080,41201709,0,0,0,0,40800519,0,0,2071091,0,0,0,0,1180060,0,0,3191200,0,0,0,0,0
7,143,1109.43217488239,1,0,279502.908784178,279503.95584758,0,0,6,1,1,24,0,8302210,7612464,3180001,0,4101030,0,0,0,0,0,0,4201180,0,2091070,1141091,2150121,0,1060141,0,1170041,0,0,0,0,0,0,0,-3180001,0,0,0,0,0,0,0,0,0,0,0,0
7,144,627.974974457175,0,0,279506.073402724,279507.120451498,0,0,6,0,0,9,0,5422020,6211301,5241211,4161060,0,3071010,0,0,0,0,0,1161000,-1190010,2160180,0,0,4051121,0,0,0,0,0,0,3121080,0,0,2120131,0,0,0,0,0,0,0,0,0,4161060,0,0,0
7,145,1352.74790524272,0,0,279511.908672539,279512.955630847,0,0,7,1,0,36,10,34881800,82994649,93585158,95774707,2030151,0,0,2050130,0,0,0,0,30801519,1091121,0,0,0,0,41201709,0,0,40701819,11901719,4190000,1040140,0,0,40711319,30500619,3100180,2141181,0,10001419,20800009,0,22000919,41901309,0,0,-1071051
7,146,949.98981396202,0,0,279515.367320803,279516.414297204,0,0,7,1,0,7,20,200328834,172395767,76534868,188744984,31801619,11710509,1071000,40612009,40410619,41102019,-2020150,31600909,0,4201121,21210409,41200809,41010919,0,0,1160081,31601109,32011319,11800219,41411519,10900719,4051110,0,4180101,0,2100160,2091040,31611719,0,31811019,0,41410009,40200319,0,11911009,31800909
7,147,758.646123111248,0,0,279518.543651401,279519.590688241,0,0,7,0,0,33,5,23160180,78503588,52001140,43892891,0,0,0,0,0,0,2050171,21110009,0,0,41200819,0,4101040,2001120,31200609,0,0,0,0,0,4070000,4091040,3040091,40800009,0,0,0,0,0,0,0,0,-1060141,0,1121031,41711719
7,148,746.384346624836,0,0,279521.378912747,279522.425957671,0,0,7,0,0,26,5,0,54842890,50193690,27452520,0,0,0,0,0,0,0,0,0,0,2200171,0,0,0,40401609,0,2130101,10111009,0,2121071,10600619,0,0,0,2151200,-4020091,31300709,0,2201121,0,0,0,0,4140000,20100209,1011190
7,149,789.106544107199,1,0,279524.214078238,279525.2610966,0,0,7,1,1,24,0,8302210,7612464,3180001,0,4101030,0,0,0,0,0,0,4201180,0,2091070,1141091,2150121,0,1060141,0,1170041,0,0,0,0,0,0,0,-3180001,0,0,0,0,0,0,0,0,0,0,0,0
7,150,598.630170337856,1,0,279527.143431357,279528.19043971,0,0,7,1,1,35,0,7181290,6302280,0,7332270,3061100,0,4120190,0,0,0,0,0,0,0,2061120,0,2161010,0,0,0,0,2080150,0,0,0,0,0,0,0,0,0,0,0,4191040,0,0,0,0,-2001200,1140030
7,151,894.194727123249,0,0,279529.966910973,279531.013887374,0,0,7,0,0,31,10,55082599,44014548,76436267,104593880,0,0,32010709,20700719,1181061,0,0,0,1190110,10901619,0,3001120,0,0,0,0,30111809,0,0,11401819,3011120,0,0,31411309,0,30612019,0,2011131,0,20210519,-2190141,3080071,4191190,0,30910419,42000409
7,152,586.582817020826,0,0,279532.97857606,279534.025565935,0,0,7,1,0,14,5,58152470,84934269,42871610,4371260,0,0,2071171,10400409,2100061,0,2070020,41510809,0,41511319,0,1180161,0,-1041080,41201709,0,0,0,0,40800519,0,0,2071091,0,0,0,0,1180060,0,0,3191200,0,0,0,0,0
7,153,647.580651275348,0,0,279535.731405716,279536.778432932,0,0,7,0,0,22,10,79865288,59325289,59434270,67485017,4100051,0,40001909,0,0,21911409,3050010,0,10801909,0,0,11111619,42001419,0,3201111,3011140,0,0,0,31801919,0,-1150110,21200009,2181161,0,3101071,0,0,40411119,0,11401119,11511609,4161170,0,0,0
7,154,828.893799276557,0,0,279538.543091283,279539.590115034,0,0,7,0,0,30,20,62142539,167598863,182442273,90083967,30100419,0,0,3010161,4101000,0,0,20800919,4130040,4131070,10811109,20911019,30011909,30510319,20401409,20210309,30611719,0,10410409,1111140,21611219,30111109,41411709,31302019,4081140,10701609,31701919,0,11900819,-2010160,30900209,11000509,0,3061151,0,31211119
7,155,475.833398115356,1,0,279541.543005051,279542.590030343,0,0,7,1,1,27,5,16832370,42052471,55743358,25721169,4131181,0,0,2201080,0,0,10500109,0,0,0,2141001,31901219,0,0,0,4010161,4000090,0,20211609,0,0,0,0,0,31500719,0,-4031030,21600919,0,0,0,0,0,3020060,1100190,0
7,156,1524.75539199077,1,0,279544.237052323,279545.28406876,0,0,7,0,1,13,20,130727647,210386555,103535436,182249344,0,30801109,1011160,41911909,0,0,4000141,21301609,31701719,40410309,31100919,31300619,-4071061,0,31200619,31101319,0,41201709,11001219,0,2051050,20310509,0,3180180,21201819,4180040,41610619,3010160,0,40111609,4191000,10900619,31501419,20712019,31311609,40510909
7,157,765.8833891619,0,0,279547.836949693,279548.883974984,0,0,7,1,0,19,5,12432351,94322247,35743989,5311141,3171080,4030010,0,3190191,0,0,2041070,0,0,0,0,42011319,0,41700619,10610309,0,0,0,-2140090,0,0,10312019,2180161,0,0,21111719,0,0,0,0,3160021,0,0,0,0,2151120
7,158,740.435544808861,1,0,279550.86039497,279551.907415642,0,0,7,0,1,9,0,3190281,4000120,7202400,3152242,0,0,0,0,0,1180150,0,0,-2010131,0,0,0,0,0,0,0,0,4000120,3081180,0,0,0,2090070,0,0,2031150,0,0,0,0,1001201,0,0,2151041,0,0
7,159,606.583848770242,1,0,279553.660310356,279554.707336417,0,0,7,1,1,11,0,6172352,6322132,9211201,4031160,4121161,0,0,0,0,0,2051191,0,0,0,-3161031,0,0,0,0,0,3161101,0,1140080,4070030,0,0,0,0,0,0,4001091,4031160,0,0,0,0,0,0,0,0
7,160,1146.9381514471,1,0,279556.330829583,279557.37785141,0,0,7,1,1,1,20,149917495,175336005,162646695,92133856,-3071200,30511809,2010120,41110119,0,11701109,21101519,0,40411619,2090120,0,30411119,0,30811119,41611019,40001019,30411609,0,41701419,40212019,10800009,20910219,20000219,20810709,0,4171101,4041000,3050150,4120040,0,11511819,0,2041000,20100109,20010619,31300119
7,161,861.361791728996,0,0,279559.542504602,279560.589526429,0,0,7,0,0,25,20,108198005,211198454,88825217,157637146,11711519,0,11901119,3091090,31911109,30410019,4011060,4161180,11000909,41910819,21101419,20901509,41902009,40401109,21110019,1040110,20710309,2121151,40610809,0,0,21311509,21610709,1091170,-4201020,0,0,40901619,40800509,0,10801909,20711209,41310719,0,0,3111181
7,162,454.117750341538,1,0,279562.636535167,279563.683561228,0,0,7,1,1,28,10,87633858,88783637,55254208,15562280,1140071,0,11411609,20011019,3060031,0,0,41310319,10700809,0,20900309,31111409,31700719,0,3051020,0,0,2020180,0,3051120,30901319,0,0,20211709,1090060,0,0,-2131121,0,2131040,0,0,0,11300119,0,0
7,163,615.029892243911,1,0,279565.224699311,279566.271716903,0,0,7,0,1,34,10,69103238,70255287,85242648,46674230,0,0,0,2060190,0,0,31211119,31810919,4021010,0,10810719,4040030,0,0,30701419,10801019,2100081,11802019,2100020,0,40700619,41300809,1141200,0,0,0,0,0,0,10111609,0,31311519,0,-4131041,1120061,0
7,164,1030.37081751972,1,0,279567.989326865,279569.036349846,0,0,7,1,1,6,20,181559816,89573387,190785534,252629784,3021121,0,21201819,41611709,40901319,-1101010,41910819,31812019,0,10510019,0,0,4031090,0,31001709,0,40910409,3120160,0,11110009,40611409,41300509,31011319,2190030,41210709,2140140,21211409,0,40610809,4181060,40812019,41811319,3111140,40400919,40601209,41101309
7,165,927.554674097337,1,0,279571.201006119,279572.248024865,0,0,7,1,1,20,10,132614756,56385809,45905199,70344019,0,0,41101309,0,0,40600919,40602009,0,10310519,40701519,0,0,3140161,1061170,0,1181140,0,10301819,0,-1161160,0,0,31101609,11601409,0,2041021,0,0,4161131,30410609,30610909,3000170,0,0,2161200,0
7,166,576.597699604463,0,0,279574.248006387,279575.294999342,0,0,7,0,0,17,0,5270150,10262382,1061051,4081120,0,1130100,0,4140050,0,0,0,0,0,0,0,0,3111091,0,0,4000141,-1040040,2111110,1061051,0,0,0,0,0,0,0,0,4081120,0,0,0,0,0,0,0,0
7,167,651.679715549108,1,0,279577.047906374,279578.094925506,0,0,7,0,1,23,5,16233540,12212490,66682958,14053010,0,10910219,0,0,0,0,3121061,1171200,1031060,0,0,0,1001071,0,0,0,0,11211419,30700409,0,0,3071020,-2111010,0,0,30800519,0,0,0,0,1011130,0,2141171,0,10900709,0
7,168,648.925704881549,0,0,279579.906647259,279580.953662927,0,0,7,0,0,29,0,4200240,4070181,4282310,8442191,0,0,1100180,0,0,0,0,3100060,0,0,0,0,0,0,0,0,4070181,0,2121190,0,0,0,0,0,2161120,0,0,0,-3100050,0,4171060,1171081,0,0,0,0
7,169,879.505771736149,1,0,279585.929997452,279586.977026977,0,0,8,1,1,24,0,8302210,7612464,3180001,0,4101030,0,0,0,0,0,0,4201180,0,2091070,1141091,2150121,0,1060141,0,1170041,0,0,0,0,0,0,0,-3180001,0,0,0,0,0,0,0,0,0,0,0,0
7,170,584.961746470071,1,0,279588.953442729,279590.000469175,0,0,8,1,1,27,5,16832370,42052471,55743358,25721169,4131181,0,0,2201080,0,0,10500109,0,0,0,2141001,31901219,0,0,0,4010161,4000090,0,20211609,0,0,0,0,0,31500719,0,-4031030,21600919,0,0,0,0,0,3020060,1100190,0
7,171,563.182580110151,0,0,279591.659254793,279592.706275849,0,0,8,1,0,14,5,58152470,84934269,42871610,4371260,0,0,2071171,10400409,2100061,0,2070020,41510809,0,41511319,0,1180161,0,-1041080,41201709,0,0,0,0,40800519,0,0,2071091,0,0,0,0,1180060,0,0,3191200,0,0,0,0,0
7,172,689.959463663399,0,0,279594.294479644,279595.341500701,0,0,8,1,0,28,10,87633858,88783637,55254208,15562280,1140071,0,11411609,20011019,3060031,0,0,41310319,10700809,0,20900309,31111409,31700719,0,3051020,0,0,2020180,0,3051120,30901319,0,0,20211709,1090060,0,0,-2131121,0,2131040,0,0,0,11300119,0,0
7,173,957.96004566364,0,0,279597.09439811,279598.141424556,0,0,8,1,0,7,20,200328834,172395767,76534868,188744984,31801619,11710509,1071000,40612009,40410619,41102019,-2020150,31600909,0,4201121,21210409,41200809,41010919,0,0,1160081,31601109,32011319,11800219,41411519,10900719,4051110,0,4180101,0,2100160,2091040,31611719,0,31811019,0,41410009,40200319,0,11911009,31800909
7,174,784.377298667096,1,0,279600.259012806,279601.306039637,0,0,8,1,1,20,10,132614756,56385809,45905199,70344019,0,0,41101309,0,0,40600919,40602009,0,10310519,40701519,0,0,3140161,1061170,0,1181140,0,10301819,0,-1161160,0,0,31101609,11601409,0,2041021,0,0,4161131,30410609,30610909,3000170,0,0,2161200,0
7,175,868.495118338615,0,0,279603.117754461,279604.164783602,0,0,8,0,0,25,10,90533998,44671840,91631900,65853398,0,4050081,0,0,30701519,4080170,30701909,0,21000319,0,0,1111001,0,2060120,0,0,41500719,0,4130201,11100209,0,30200519,40000709,4010121,-2190141,0,0,0,21210619,10210909,0,0,0,31300809,3131061,0
7,176,1109.30321295746,0,0,279606.047087562,279607.094110544,0,0,8,1,0,19,5,12432351,94322247,35743989,5311141,3171080,4030010,0,3190191,0,0,2041070,0,0,0,0,42011319,0,41700619,10610309,0,0,0,-2140090,0,0,10312019,2180161,0,0,21111719,0,0,0,0,3160021,0,0,0,0,2151120
7,177,594.682395691052,0,0,279609.317623882,279610.364649943,0,0,8,0,0,9,10,138567185,26271800,73591019,70132838,11301109,0,30711509,30610919,1010120,0,20901319,42012009,-2020200,3060110,0,0,0,0,0,0,21101609,2110081,0,0,41500509,30000509,0,0,0,2090001,0,0,41010319,2090140,0,0,20800219,2171020,4061140,0
7,178,845.493315893691,1,0,279612.105746374,279613.1527682,0,0,8,0,1,13,5,12121600,46903061,86634638,35202089,2020181,0,10101419,0,0,0,0,0,0,0,0,2100111,-4091131,0,40711819,0,0,0,1120010,4171160,0,31201719,0,41900419,4181130,4060200,0,4201180,0,0,0,0,0,0,0,31000909
7,179,1050.22710387129,1,0,279615.093894966,279616.140924106,0,0,8,0,1,26,5,24231720,56093769,8541501,67144008,0,3030201,21201519,0,0,0,0,0,0,0,20900819,0,31001909,2001010,0,0,2190031,0,0,1130080,3131200,0,0,3160070,0,-1120151,0,0,0,21411619,0,4031170,0,0,41701219,0
7,180,958.447021315806,0,0,279618.199690707,279619.246719848,0,0,8,0,0,30,0,4231312,9151292,3141050,5361281,2140171,0,0,0,0,0,0,2091141,0,0,0,4050180,0,0,0,0,2090101,3011011,0,3141050,0,0,0,0,0,0,0,0,0,-3170091,0,0,2191190,0,0,0
7,181,954.331403656397,1,0,279621.340786983,279622.3878065,0,0,8,0,1,29,0,3010140,1040190,6292251,10202412,0,0,3010140,0,0,0,0,0,0,0,0,0,0,0,0,0,0,1040190,3111190,3181061,0,0,0,0,0,0,0,0,-3091190,0,0,0,0,1040141,4041011,2030070
7,182,1023.4711621888,1,0,279624.399515088,279625.446545383,0,0,8,1,1,6,20,181559816,89573387,190785534,252629784,3021121,0,21201819,41611709,40901319,-1101010,41910819,31812019,0,10510019,0,0,4031090,0,31001709,0,40910409,3120160,0,11110009,40611409,41300509,31011319,2190030,41210709,2140140,21211409,0,40610809,4181060,40812019,41811319,3111140,40400919,40601209,41101309
7,183,592.110086523462,0,0,279627.622951434,279628.669978265,0,0,8,1,0,35,0,7181290,6302280,0,7332270,3061100,0,4120190,0,0,0,0,0,0,0,2061120,0,2161010,0,0,0,0,2080150,0,0,0,0,0,0,0,0,0,0,0,4191040,0,0,0,0,-2001200,1140030
7,184,986.8586800294,0,0,279630.352495571,279631.399322222,0,0,8,1,0,1,20,149917495,175336005,162646695,92133856,-3071200,30511809,2010120,41110119,0,11701109,21101519,0,40411619,2090120,0,30411119,0,30811119,41611019,40001019,30411609,0,41701419,40212019,10800009,20910219,20000219,20810709,0,4171101,4041000,3050150,4120040,0,11511819,0,2041000,20100109,20010619,31300119
7,185,802.532057685312,0,0,279633.587495375,279634.634521051,0,0,8,1,0,11,0,6172352,6322132,9211201,4031160,4121161,0,0,0,0,0,2051191,0,0,0,-3161031,0,0,0,0,0,3161101,0,1140080,4070030,0,0,0,0,0,0,4001091,4031160,0,0,0,0,0,0,0,0
7,186,726.407567446586,1,0,279636.528592883,279637.57561394,0,0,8,0,1,23,20,159426627,112793377,80962988,217569393,31511819,2071111,40410209,0,21510619,21500509,41311309,0,1111051,0,2060160,4151081,4150190,10810009,20100609,0,40111119,31410209,10210609,0,40700709,4060131,-2090181,11710009,2191040,10000309,0,41911419,30612009,31010909,20612009,0,0,41610819,11011709,40800519
7,187,740.780084917787,0,0,279639.399104334,279640.446118847,0,0,8,0,0,33,0,3001090,1080090,5111391,10663431,0,3001090,0,0,0,0,0,0,0,0,0,0,0,0,1080090,0,0,0,0,0,0,0,0,3090200,2021191,0,0,4171170,0,0,2111010,0,-2200051,0,2181200,0
7,188,1130.03259082325,0,0,279642.210792211,279643.257808648,0,0,8,0,0,31,20,134337365,112394999,196924584,201345775,0,1091190,10311609,21112019,0,0,40710619,40210309,20901619,30010019,41911419,4040031,3020060,31311309,0,1001051,1101110,0,0,0,31011309,20710509,40500519,30710919,2180200,40511109,31300019,40600209,20410209,0,-3000160,30011119,40601909,3201141,31810919,31710109
7,189,627.371355716605,1,0,279645.563636264,279646.610661555,0,0,8,0,1,17,20,120945937,145277087,88376706,135645614,41211209,0,3050200,41010509,20311819,0,2141171,3121010,10100019,41000409,31400819,11200119,0,31901809,3051061,1121121,-4091130,21510619,11600519,20711119,0,0,11000419,20801909,20211709,4051031,0,30000709,0,10501109,31811309,0,20710019,1021030,10300819,31300619
7,190,454.300221870653,0,0,279648.316520584,279649.363524318,0,0,8,0,0,22,10,52011528,75556407,54513339,91445069,0,0,20601019,0,0,0,31410509,0,0,0,3080180,0,1071180,0,20201109,20801919,0,30402019,1181151,0,10710009,-2020160,0,40602019,0,0,0,30910419,0,1121101,0,10401819,2100160,41710309,1171100,4030161
7,191,1368.06665675249,1,0,279650.892899919,279651.939920205,0,0,8,1,1,36,10,34881800,82994649,93585158,95774707,2030151,0,0,2050130,0,0,0,0,30801519,1091121,0,0,0,0,41201709,0,0,40701819,11901719,4190000,1040140,0,0,40711319,30500619,3100180,2141181,0,10001419,20800009,0,22000919,41901309,0,0,-1071051
7,192,560.107126948424,1,0,279654.492799983,279655.53981873,0,0,8,0,1,34,5,69684408,11072579,26131660,11471251,3090061,11911909,0,3171110,0,0,10911119,0,40600209,0,0,0,10001409,0,0,1071170,0,0,0,0,0,0,2000091,3031050,21100519,0,0,0,0,4140150,0,3130060,0,-4201041,0,0
7,193,815.985673340037,1,0,279660.939669211,279661.986699891,0,0,9,1,1,27,5,16832370,42052471,55743358,25721169,4131181,0,0,2201080,0,0,10500109,0,0,0,2141001,31901219,0,0,0,4010161,4000090,0,20211609,0,0,0,0,0,31500719,0,-4031030,21600919,0,0,0,0,0,3020060,1100190,0
7,194,696.047236269806,0,0,279663.939592219,279664.98661674,0,0,9,0,0,9,20,186997155,139535294,98035486,134686958,30800809,21511619,41111619,31900019,3060040,31911319,20511509,4010100,-2180121,3081070,30500109,40211319,10410409,3000050,11210319,11111109,0,30010909,11901609,40601719,0,10700209,30711809,0,0,0,4120140,11010619,0,1101171,0,1161041,41301009,40101409,40011709,0
7,195,617.829328344669,0,0,279666.86897267,279667.915952151,0,0,9,0,0,26,0,4211192,7341331,5282251,6152311,0,0,0,2070181,0,0,2141011,0,0,0,4170131,0,0,0,0,0,0,3171200,0,0,1201150,0,0,0,0,-4081101,0,3051121,3101190,0,0,0,0,0,0,0
7,196,822.024170949589,1,0,279669.63354402,279670.680574316,0,0,9,0,1,34,20,90745318,157606105,239224834,90822689,20200409,3051160,10811119,0,3110061,1150141,0,40710719,11711709,2060031,0,30501219,0,22012009,31310009,40210409,21310919,10201509,0,3000031,31410019,31500119,30110909,31001419,41001609,41200219,30000509,4150121,2070040,30401619,0,0,0,-3100071,30400519,20700319
7,197,879.111956688575,0,0,279672.680528505,279673.727547252,0,0,9,0,0,13,10,65784459,134395357,41685960,45963748,0,0,0,20101909,0,4081041,41601509,0,0,42010519,3060050,0,-4021040,41600719,2100101,0,20801719,20801209,0,2151110,20301609,0,4141011,0,0,3091111,12001119,3141120,0,21711919,0,0,0,21110709,0,0
7,198,840.630873979535,0,0,279675.79807749,279676.845113945,0,0,9,1,0,7,20,200328834,172395767,76534868,188744984,31801619,11710509,1071000,40612009,40410619,41102019,-2020150,31600909,0,4201121,21210409,41200809,41010919,0,0,1160081,31601109,32011319,11800219,41411519,10900719,4051110,0,4180101,0,2100160,2091040,31611719,0,31811019,0,41410009,40200319,0,11911009,31800909
7,199,803.340860642493,0,0,279678.833298723,279679.880319779,0,0,9,0,0,25,20,177716563,96977825,105024256,90245430,30500619,31210009,31801909,0,10011009,30510309,2160070,10911119,30611519,11011419,0,0,10310719,3051140,10901819,0,20801409,40901319,2030191,10100609,12010309,21912019,3140050,32010319,-3010140,20810619,0,0,0,40101419,30101909,2180031,10700919,4050081,3111071,0
7,200,1256.52729795547,1,0,279681.692038453,279682.739057585,0,0,9,1,1,1,20,149917495,175336005,162646695,92133856,-3071200,30511809,2010120,41110119,0,11701109,21101519,0,40411619,2090120,0,30411119,0,30811119,41611019,40001019,30411609,0,41701419,40212019,10800009,20910219,20000219,20810709,0,4171101,4041000,3050150,4120040,0,11511819,0,2041000,20100109,20010619,31300119
7,201,525.624633824918,1,0,279685.138999302,279686.186021513,0,0,9,1,1,11,0,6172352,6322132,9211201,4031160,4121161,0,0,0,0,0,2051191,0,0,0,-3161031,0,0,0,0,0,3161101,0,1140080,4070030,0,0,0,0,0,0,4001091,4031160,0,0,0,0,0,0,0,0
7,202,695.785847725347,1,0,279687.750749619,279688.797756047,0,0,9,1,1,28,10,87633858,88783637,55254208,15562280,1140071,0,11411609,20011019,3060031,0,0,41310319,10700809,0,20900309,31111409,31700719,0,3051020,0,0,2020180,0,3051120,30901319,0,0,20211709,1090060,0,0,-2131121,0,2131040,0,0,0,11300119,0,0
7,203,1495.46525231563,0,0,279690.632964654,279691.67998802,0,0,9,1,0,36,10,34881800,82994649,93585158,95774707,2030151,0,0,2050130,0,0,0,0,30801519,1091121,0,0,0,0,41201709,0,0,40701819,11901719,4190000,1040140,0,0,40711319,30500619,3100180,2141181,0,10001419,20800009,0,22000919,41901309,0,0,-1071051
7,204,713.535242772195,1,0,279694.279921191,279695.326948407,0,0,9,0,1,33,5,31841640,6332361,37423668,77152149,0,0,30801609,0,0,0,1040031,0,0,0,0,0,2181180,0,4151181,0,0,0,22011809,0,0,2070000,0,0,0,3040050,10301809,1100050,0,3030051,30111409,40710519,-2200120,0,0,0
7,205,1177.78545815963,1,0,279697.244545973,279698.291563565,0,0,9,1,1,6,20,181559816,89573387,190785534,252629784,3021121,0,21201819,41611709,40901319,-1101010,41910819,31812019,0,10510019,0,0,4031090,0,31001709,0,40910409,3120160,0,11110009,40611409,41300509,31011319,2190030,41210709,2140140,21211409,0,40610809,4181060,40812019,41811319,3111140,40400919,40601209,41101309
7,206,476.49129643105,0,0,279700.62092577,279701.667941052,0,0,9,0,0,22,10,80716587,39824649,44523169,79934439,4061020,20500819,0,0,3031001,11701209,20710619,0,20711919,0,0,4141120,3061101,21711719,10910709,0,0,0,0,2131160,0,-1191000,0,41201009,0,0,0,11010109,2111051,4101041,30800819,0,0,0,0,31911419
7,207,728.204180195462,1,0,279703.209090684,279704.256107121,0,0,9,1,1,24,0,8302210,7612464,3180001,0,4101030,0,0,0,0,0,0,4201180,0,2091070,1141091,2150121,0,1060141,0,1170041,0,0,0,0,0,0,0,-3180001,0,0,0,0,0,0,0,0,0,0,0,0
7,208,558.807113731746,0,0,279706.079595206,279707.126635126,0,0,9,1,0,35,0,7181290,6302280,0,7332270,3061100,0,4120190,0,0,0,0,0,0,0,2061120,0,2161010,0,0,0,0,2080150,0,0,0,0,0,0,0,0,0,0,0,4191040,0,0,0,0,-2001200,1140030
7,209,642.749776190612,1,0,279708.879552552,279709.926542042,0,0,9,0,1,30,0,3130181,3192291,7111220,5182290,0,3130181,0,0,0,0,0,0,0,0,0,1051090,0,0,0,1080130,1061071,0,0,0,0,0,4010070,3101150,0,0,0,0,0,-4161140,0,0,1021150,0,0,0
7,210,485.589463729411,0,0,279711.667670039,279712.714692636,0,0,9,0,0,29,10,45452498,58522828,36042248,101046179,0,0,11110909,31311409,0,3030180,0,0,0,0,0,11400109,1010081,31501719,4200100,0,0,10410819,3141120,0,1200110,20900009,0,10801009,0,0,0,0,-2061070,4010111,41201609,1060171,41711709,11001509,0,0
7,211,822.303267661482,0,0,279714.302896816,279715.349914023,0,0,9,0,0,31,5,30835991,0,54452100,34533620,0,11410819,11101809,0,3141171,1061091,0,0,4121101,0,0,0,0,0,0,0,0,0,0,0,1040041,10111209,1170150,2130191,40000509,0,0,0,0,0,-1061051,2061160,0,31411409,0,0
7,212,531.728189846035,0,0,279717.22046936,279718.267486952,0,0,9,1,0,14,5,58152470,84934269,42871610,4371260,0,0,2071171,10400409,2100061,0,2070020,41510809,0,41511319,0,1180161,0,-1041080,41201709,0,0,0,0,40800519,0,0,2071091,0,0,0,0,1180060,0,0,3191200,0,0,0,0,0
7,213,1160.83524207352,0,0,279719.973321728,279721.02034086,0,0,9,0,0,23,5,67292309,2001150,38424519,48584789,0,0,2180071,0,0,0,31311709,30610409,3190120,0,0,0,0,0,0,0,0,2001150,2171030,0,0,31011319,-2081120,3161050,0,0,0,0,0,4121151,0,0,20411709,21901819,2150110,0
7,214,870.69747998612,1,0,279723.267402645,279724.314404454,0,0,9,1,1,19,5,12432351,94322247,35743989,5311141,3171080,4030010,0,3190191,0,0,2041070,0,0,0,0,42011319,0,41700619,10610309,0,0,0,-2140090,0,0,10312019,2180161,0,0,21111719,0,0,0,0,3160021,0,0,0,0,2151120
7,215,561.897195468191,1,0,279726.373156041,279727.420160159,0,0,9,1,1,20,10,132614756,56385809,45905199,70344019,0,0,41101309,0,0,40600919,40602009,0,10310519,40701519,0,0,3140161,1061170,0,1181140,0,10301819,0,-1161160,0,0,31101609,11601409,0,2041021,0,0,4161131,30410609,30610909,3000170,0,0,2161200,0
7,216,736.272577021737,1,0,279729.137771276,279730.184796182,0,0,9,0,1,17,0,1131041,5423431,4100190,4100000,0,0,0,0,1131041,0,0,0,0,0,0,1021120,1050110,2181081,0,0,-1171120,0,0,0,0,3090140,0,1010050,0,0,0,0,0,0,4100000,0,0,0,0,0
7,217,735.698600241449,0,0,279735.502384356,279736.549327265,0,0,10,0,0,34,20,140184165,168095756,114615484,87917178,21300519,0,12001019,31410519,31100009,0,2101160,1160030,41110909,40601809,0,40300009,1050061,11101309,40602019,10300219,20110219,4030111,31401309,0,10500719,20800809,20001119,0,21200709,10710819,0,2151160,4120120,31601419,3100180,31111619,11811509,-4021171,0,0
7,218,876.969648932572,0,0,279738.313993316,279739.361010523,0,0,10,1,0,7,20,200328834,172395767,76534868,188744984,31801619,11710509,1071000,40612009,40410619,41102019,-2020150,31600909,0,4201121,21210409,41200809,41010919,0,0,1160081,31601109,32011319,11800219,41411519,10900719,4051110,0,4180101,0,2100160,2091040,31611719,0,31811019,0,41410009,40200319,0,11911009,31800909
7,219,599.015131301712,1,0,279741.266838677,279742.313867048,0,0,10,1,1,35,0,7181290,6302280,0,7332270,3061100,0,4120190,0,0,0,0,0,0,0,2061120,0,2161010,0,0,0,0,2080150,0,0,0,0,0,0,0,0,0,0,0,4191040,0,0,0,0,-2001200,1140030
7,220,1004.39865636872,0,0,279743.972651126,279745.019674107,0,0,10,0,0,30,10,64613037,56523318,50583691,100353008,0,0,21811309,31501509,0,0,0,11300219,0,0,0,0,0,21611809,0,31901419,3010090,0,1081171,0,2200011,2071031,2030150,0,12001209,31200119,0,0,0,-1090130,20410219,0,3080101,40701109,31910319,3161130
7,221,901.297256874386,1,0,279747.219622446,279748.266646967,0,0,10,0,1,25,0,0,6401552,10342210,3092092,0,0,0,0,0,0,0,0,0,0,0,0,0,0,4140180,0,1091201,1170171,0,3040000,0,0,0,4171200,-3131010,0,0,2071031,0,0,0,0,0,0,0,1021061
7,222,498.996114183683,0,0,279750.301888218,279751.348906195,0,0,10,0,0,29,5,46401380,23132739,36752240,59404820,0,0,0,41201219,0,0,3110010,2090151,0,0,0,20001719,3131020,0,0,0,0,0,30501109,0,0,0,0,4120030,0,2131101,0,0,-3060051,0,0,40200509,1101200,0,10902019,4141041
7,223,564.915289345663,1,0,279753.042981569,279754.09000532,0,0,10,1,1,28,10,87633858,88783637,55254208,15562280,1140071,0,11411609,20011019,3060031,0,0,41310319,10700809,0,20900309,31111409,31700719,0,3051020,0,0,2020180,0,3051120,30901319,0,0,20211709,1090060,0,0,-2131121,0,2131040,0,0,0,11300119,0,0
7,224,769.812685728539,0,0,279755.784086083,279756.831115224,0,0,10,1,0,19,5,12432351,94322247,35743989,5311141,3171080,4030010,0,3190191,0,0,2041070,0,0,0,0,42011319,0,41700619,10610309,0,0,0,-2140090,0,0,10312019,2180161,0,0,21111719,0,0,0,0,3160021,0,0,0,0,2151120
7,225,475.512725650333,1,0,279758.666358092,279759.713384923,0,0,10,1,1,14,5,58152470,84934269,42871610,4371260,0,0,2071171,10400409,2100061,0,2070020,41510809,0,41511319,0,1180161,0,-1041080,41201709,0,0,0,0,40800519,0,0,2071091,0,0,0,0,1180060,0,0,3191200,0,0,0,0,0
7,226,1293.92664029729,1,0,279761.336872315,279762.383884518,0,0,10,1,1,6,20,181559816,89573387,190785534,252629784,3021121,0,21201819,41611709,40901319,-1101010,41910819,31812019,0,10510019,0,0,4031090,0,31001709,0,40910409,3120160,0,11110009,40611409,41300509,31011319,2190030,41210709,2140140,21211409,0,40610809,4181060,40812019,41811319,3111140,40400919,40601209,41101309
7,227,532.525059010368,0,0,279764.772076841,279765.819114836,0,0,10,1,0,27,5,16832370,42052471,55743358,25721169,4131181,0,0,2201080,0,0,10500109,0,0,0,2141001,31901219,0,0,0,4010161,4000090,0,20211609,0,0,0,0,0,31500719,0,-4031030,21600919,0,0,0,0,0,3020060,1100190,0
7,228,526.416498527396,1,0,279767.513169807,279768.560195868,0,0,10,0,1,22,10,27781870,13581691,89644498,139637156,0,4130110,20500709,0,0,0,0,0,3151051,1150031,0,0,10401609,0,0,2030051,0,0,10701319,0,1031181,-4000170,42001119,31910709,0,0,0,31311909,0,0,3181061,2011140,11210609,20010009,40601509,31310919
7,229,862.244507181458,0,0,279770.242499521,279771.289536746,0,0,10,1,0,24,0,8302210,7612464,3180001,0,4101030,0,0,0,0,0,0,4201180,0,2091070,1141091,2150121,0,1060141,0,1170041,0,0,0,0,0,0,0,-3180001,0,0,0,0,0,0,0,0,0,0,0,0
7,230,1198.59028834617,0,0,279773.265952112,279774.313054011,0,0,10,0,0,33,10,98875928,85334547,84462788,86810520,11210409,0,0,0,4131121,41012019,0,2111060,40411319,20111709,41310819,20700709,1040190,0,0,0,0,2171120,0,0,40211309,3080190,0,0,40000109,1171180,0,40400119,1110141,0,0,0,-4100141,0,41200119,0
7,231,552.519931341521,1,0,279776.559974516,279777.607004811,0,0,10,0,1,23,0,4101071,4040321,8082282,4242190,0,0,0,0,0,0,4101071,0,0,0,0,0,3020191,0,0,0,0,1020130,1030061,0,0,0,-4051091,0,0,0,3001130,0,0,0,1151030,0,0,0,0,3091160
7,232,1141.77659485722,0,0,279779.359923008,279780.406919042,0,0,10,0,0,26,20,160001584,93040247,60916739,134545474,41812019,10612009,1021010,1031200,12001019,41602009,31810709,20111609,0,2091111,0,11010809,20801619,4131161,2071110,20911809,21712009,10310619,0,11501409,2061091,0,10911619,30311519,4070040,-2061061,0,31611309,20210019,0,0,0,10311509,40301819,10800009,21310809
7,233,1152.26909075864,1,0,279782.63039119,279783.67742033,0,0,10,0,1,13,5,1190131,30125260,9493291,104311137,0,0,0,0,0,0,0,0,1190131,0,1180141,11311919,-3091190,4030201,0,0,0,10511809,0,0,2141120,0,0,4131080,0,2030030,1191061,0,0,31100409,0,0,0,0,32010509,41200219
7,234,725.484046095517,1,0,279785.889127686,279786.936154902,0,0,10,1,1,36,10,34881800,82994649,93585158,95774707,2030151,0,0,2050130,0,0,0,0,30801519,1091121,0,0,0,0,41201709,0,0,40701819,11901719,4190000,1040140,0,0,40711319,30500619,3100180,2141181,0,10001419,20800009,0,22000919,41901309,0,0,-1071051
7,235,892.830425465945,0,0,279788.853762478,279789.900769291,0,0,10,0,0,9,0,6410031,5281201,0,9371270,0,0,0,0,2090030,0,3190001,0,-1130000,0,0,0,0,3111040,2170161,0,0,0,0,0,0,0,0,0,0,0,0,3090080,0,0,0,3141160,0,3140030,0,0
7,236,830.370894458611,0,0,279791.877200441,279792.924215723,0,0,10,0,0,31,5,44251729,47833739,37271329,6201131,0,0,0,0,20910019,20201609,0,3140101,0,20201009,4031180,0,0,0,0,0,3000031,20601519,32010909,0,0,0,1100070,3020170,0,0,1140180,0,0,0,-3011011,0,0,3190120,0,0
7,237,1091.51801653206,1,0,279794.782997799,279795.83002155,0,0,10,1,1,1,20,149917495,175336005,162646695,92133856,-3071200,30511809,2010120,41110119,0,11701109,21101519,0,40411619,2090120,0,30411119,0,30811119,41611019,40001019,30411609,0,41701419,40212019,10800009,20910219,20000219,20810709,0,4171101,4041000,3050150,4120040,0,11511819,0,2041000,20100109,20010619,31300119
7,238,595.662506297231,1,0,279797.94766177,279798.994666273,0,0,10,1,1,11,0,6172352,6322132,9211201,4031160,4121161,0,0,0,0,0,2051191,0,0,0,-3161031,0,0,0,0,0,3161101,0,1140080,4070030,0,0,0,0,0,0,4001091,4031160,0,0,0,0,0,0,0,0
7,239,627.964965475257,1,0,279800.606367316,279801.653387603,0,0,10,0,1,17,20,152038384,90375720,96604175,189438085,41200419,10211219,30101719,11110809,1140080,21411519,3200060,2061040,31601519,0,21500709,40001119,0,0,3170191,21601609,-2051081,2051011,31100709,10801119,0,0,31910609,10400309,1181110,11210319,0,0,31000209,0,31511709,3101131,21511909,40211109,20401409,41700609
7,240,853.493959584739,0,0,279803.323937627,279804.370955989,0,0,10,1,0,20,10,132614756,56385809,45905199,70344019,0,0,41101309,0,0,40600919,40602009,0,10310519,40701519,0,0,3140161,1061170,0,1181140,0,10301819,0,-1161160,0,0,31101609,11601409,0,2041021,0,0,4161131,30410609,30610909,3000170,0,0,2161200,0
7,241,521.629893919453,0,0,279809.382582965,279810.42966369,0,0,11,1,0,35,0,7181290,6302280,0,7332270,3061100,0,4120190,0,0,0,0,0,0,0,2061120,0,2161010,0,0,0,0,2080150,0,0,0,0,0,0,0,0,0,0,0,4191040,0,0,0,0,-2001200,1140030
7,242,2033.21952861734,0,0,279812.111927307,279813.158951443,0,0,11,0,0,31,5,5201182,77136348,21362090,28084842,4201021,0,0,0,0,0,0,0,1000161,0,40101909,11101419,0,21902009,4031011,0,0,0,0,0,0,20311009,0,1051081,0,0,0,0,20600419,1131151,-3131051,0,0,0,2031181,1191040
7,243,576.792104926426,1,0,279816.335333626,279817.382358918,0,0,11,0,1,30,0,8300150,7122231,6221293,4081031,0,0,0,4160130,4140020,0,0,0,0,0,0,0,0,3091070,0,0,4031161,0,0,1041161,0,0,0,4130041,0,0,1050091,0,0,-4081031,0,0,0,0,0,0
7,244,585.65044158604,0,0,279819.170629234,279820.217581768,0,0,11,0,0,33,0,6252250,4131181,8112081,7211212,4201140,0,2051110,0,0,0,0,0,0,0,2010160,2121021,0,0,0,0,0,0,0,4051071,0,0,0,4061010,0,0,0,0,0,0,0,0,-3191121,0,4020091,0
7,245,963.85148819536,1,0,279821.982241658,279823.029258865,0,0,11,0,1,9,0,10151332,6272270,1131200,2160120,0,4111130,0,0,0,0,0,2040201,-4000001,3121150,1020030,2131090,0,0,0,0,0,0,0,0,0,1131200,0,0,0,0,0,2160120,0,0,0,0,0,0,0,0
7,246,594.157308922149,1,0,279825.088037015,279826.135058456,0,0,11,0,1,34,5,4120151,47401940,38155398,48074121,0,0,0,0,4120151,0,0,0,0,21900619,0,2040011,0,0,0,20411209,3050101,0,2001090,20111109,0,0,4001050,10011109,0,0,2031040,0,0,0,0,0,0,-4191091,41701919,2181111
7,247,663.302841887344,0,0,279827.899719117,279828.946740174,0,0,11,1,0,36,10,34881800,82994649,93585158,95774707,2030151,0,0,2050130,0,0,0,0,30801519,1091121,0,0,0,0,41201709,0,0,40701819,11901719,4190000,1040140,0,0,40711319,30500619,3100180,2141181,0,10001419,20800009,0,22000919,41901309,0,0,-1071051
7,248,447.062185849063,1,0,279830.676110693,279831.72313252,0,0,11,0,1,22,20,107374576,188657493,151786439,132004018,30901619,4050110,0,0,0,10200919,21410509,40811419,0,31411609,0,41611009,41211409,20911319,0,31500509,11001119,11010519,20500219,31911109,2070091,-3091061,1181061,1110151,41210619,30611109,20101019,30610419,31810919,0,1050061,0,2201060,4020031,21100509,41211019
7,249,734.35624135891,1,0,279833.193686086,279834.240716382,0,0,11,1,1,27,5,16832370,42052471,55743358,25721169,4131181,0,0,2201080,0,0,10500109,0,0,0,2141001,31901219,0,0,0,4010161,4000090,0,20211609,0,0,0,0,0,31500719,0,-4031030,21600919,0,0,0,0,0,3020060,1100190,0
7,250,906.923461297993,1,0,279836.170079125,279837.217098642,0,0,11,0,1,25,5,4111021,86351668,53261912,25563251,0,0,0,0,0,0,0,4111021,0,0,0,0,30100019,4041011,11200019,0,0,41010619,40011409,0,3050160,4000071,0,0,-3020201,3180071,0,0,0,0,0,21411919,0,0,1001201,3150131
7,251,689.734646410216,1,0,279839.158263518,279840.205251083,0,0,11,1,1,11,0,6172352,6322132,9211201,4031160,4121161,0,0,0,0,0,2051191,0,0,0,-3161031,0,0,0,0,0,3161101,0,1140080,4070030,0,0,0,0,0,0,4001091,4031160,0,0,0,0,0,0,0,0
7,252,966.419947741088,0,0,279842.04050242,279843.087529636,0,0,11,0,0,26,20,155964236,171978536,102312999,137675776,40110319,41811519,40410019,2110141,21211019,10311219,0,0,0,31301509,31900709,11611219,40101009,3111041,21611609,31210309,1131131,0,30611819,1120161,0,21910019,4070091,21200409,20400319,-3000181,0,3101141,21311219,10411909,1030060,0,20410119,41411309,0,40000019
7,253,641.314256761689,0,0,279845.075709795,279846.122729312,0,0,11,0,0,29,10,19622250,15172471,118927037,109304447,4060171,0,0,0,0,11402019,0,4160060,0,0,0,0,0,4141111,0,1030041,10001319,0,20710519,41811819,0,0,1141080,4150191,30301619,0,20811809,12010409,-2180040,0,0,31601809,1111151,41400119,21000919,0
7,254,610.757210524753,0,0,279847.899175167,279848.94618044,0,0,11,0,0,23,10,101764688,94325646,71872441,4021011,11710319,4131141,2200191,0,31911509,0,0,40911209,10900319,11700909,0,0,0,0,31101919,11511209,40011609,0,2011141,0,30610309,4170110,-1190071,1020111,31700619,1170080,0,4021011,0,0,0,0,0,0,0,0
7,255,432.086819491815,1,0,279850.663788093,279851.710812999,0,0,11,1,1,28,10,87633858,88783637,55254208,15562280,1140071,0,11411609,20011019,3060031,0,0,41310319,10700809,0,20900309,31111409,31700719,0,3051020,0,0,2020180,0,3051120,30901319,0,0,20211709,1090060,0,0,-2131121,0,2131040,0,0,0,11300119,0,0
7,256,609.40830729669,1,0,279853.275485671,279854.322507882,0,0,11,1,1,14,5,58152470,84934269,42871610,4371260,0,0,2071171,10400409,2100061,0,2070020,41510809,0,41511319,0,1180161,0,-1041080,41201709,0,0,0,0,40800519,0,0,2071091,0,0,0,0,1180060,0,0,3191200,0,0,0,0,0
7,257,979.270329582505,0,0,279856.122461764,279857.169481665,0,0,11,0,0,13,10,90595688,103375267,38653029,42644200,0,2040121,20011009,4120101,21811519,0,0,31411719,11201219,20910919,4191010,0,-4051201,11911319,0,31500509,30810309,0,31511819,0,0,3110120,0,0,4031090,0,0,0,0,40502019,1081010,0,0,0,0,1061171
7,258,764.298119931482,0,0,279859.263546491,279860.310574477,0,0,11,1,0,24,0,8302210,7612464,3180001,0,4101030,0,0,0,0,0,0,4201180,0,2091070,1141091,2150121,0,1060141,0,1170041,0,0,0,0,0,0,0,-3180001,0,0,0,0,0,0,0,0,0,0,0,0
7,259,942.469986563083,1,0,279862.228171659,279863.275197335,0,0,11,1,1,7,20,200328834,172395767,76534868,188744984,31801619,11710509,1071000,40612009,40410619,41102019,-2020150,31600909,0,4201121,21210409,41200809,41010919,0,0,1160081,31601109,32011319,11800219,41411519,10900719,4051110,0,4180101,0,2100160,2091040,31611719,0,31811019,0,41410009,40200319,0,11911009,31800909
7,260,941.964147845283,0,0,279865.239854454,279866.286876665,0,0,11,1,0,1,20,149917495,175336005,162646695,92133856,-3071200,30511809,2010120,41110119,0,11701109,21101519,0,40411619,2090120,0,30411119,0,30811119,41611019,40001019,30411609,0,41701419,40212019,10800009,20910219,20000219,20810709,0,4171101,4041000,3050150,4120040,0,11511819,0,2041000,20100109,20010619,31300119
7,261,1440.32536901068,0,0,279868.263299731,279869.310327332,0,0,11,1,0,6,20,181559816,89573387,190785534,252629784,3021121,0,21201819,41611709,40901319,-1101010,41910819,31812019,0,10510019,0,0,4031090,0,31001709,0,40910409,3120160,0,11110009,40611409,41300509,31011319,2190030,41210709,2140140,21211409,0,40610809,4181060,40812019,41811319,3111140,40400919,40601209,41101309
7,262,1047.30371036567,1,0,279871.898486472,279872.945517538,0,0,11,1,1,19,5,12432351,94322247,35743989,5311141,3171080,4030010,0,3190191,0,0,2041070,0,0,0,0,42011319,0,41700619,10610309,0,0,0,-2140090,0,0,10312019,2180161,0,0,21111719,0,0,0,0,3160021,0,0,0,0,2151120
7,263,751.905841636471,1,0,279875.027816032,279876.074839398,0,0,11,0,1,17,20,158616124,102126827,149406315,89635957,41811109,20810809,40800319,0,30301509,11810119,11001119,2081140,0,40211709,30601919,2050030,3050010,0,0,2041110,-4060040,20112009,12010709,1071141,21200319,20801609,30810919,31800509,0,0,31711109,1101101,4030001,0,11501419,11501509,40101009,0,11200409,10200509
7,264,1088.20542751346,1,0,279877.898322094,279878.94534931,0,0,11,1,1,20,10,132614756,56385809,45905199,70344019,0,0,41101309,0,0,40600919,40602009,0,10310519,40701519,0,0,3140161,1061170,0,1181140,0,10301819,0,-1161160,0,0,31101609,11601409,0,2041021,0,0,4161131,30410609,30610909,3000170,0,0,2161200,0
7,265,559.402648417745,1,0,279884.25108646,279885.298109441,0,0,12,0,1,9,20,93197210,139184856,142435396,199054903,1140180,0,10801609,0,30902019,3071181,2051191,41111019,-4120011,0,30600819,0,31301009,40310019,2090161,22012019,1160010,11710819,0,30900319,3011001,21701619,32010319,0,3101110,11500519,40210509,31010819,41410709,0,31010019,11511319,0,21910609,40600109,21601319
7,266,561.128428380471,1,0,279886.874543825,279887.921562187,0,0,12,1,1,11,0,6172352,6322132,9211201,4031160,4121161,0,0,0,0,0,2051191,0,0,0,-3161031,0,0,0,0,0,3161101,0,1140080,4070030,0,0,0,0,0,0,4001091,4031160,0,0,0,0,0,0,0,0
7,267,502.375686482992,0,0,279889.545060743,279890.5920818,0,0,12,0,0,22,5,4132202,39111190,26801560,87156949,3081061,0,0,0,1051141,0,0,0,0,4010141,0,0,0,3101040,0,0,0,32000009,0,20600319,0,-2140180,0,0,0,4061061,0,0,3141061,0,2190051,10612009,0,41102009,0,30111819
7,268,785.712343349587,0,0,279892.203812484,279893.250829306,0,0,12,1,0,7,20,200328834,172395767,76534868,188744984,31801619,11710509,1071000,40612009,40410619,41102019,-2020150,31600909,0,4201121,21210409,41200809,41010919,0,0,1160081,31601109,32011319,11800219,41411519,10900719,4051110,0,4180101,0,2100160,2091040,31611719,0,31811019,0,41410009,40200319,0,11911009,31800909
7,269,1102.47824009275,1,0,279895.144900368,279896.191927199,0,0,12,1,1,20,10,132614756,56385809,45905199,70344019,0,0,41101309,0,0,40600919,40602009,0,10310519,40701519,0,0,3140161,1061170,0,1181140,0,10301819,0,-1161160,0,0,31101609,11601409,0,2041021,0,0,4161131,30410609,30610909,3000170,0,0,2161200,0
7,270,926.87983752694,1,0,279898.403687295,279899.450665236,0,0,12,1,1,6,20,181559816,89573387,190785534,252629784,3021121,0,21201819,41611709,40901319,-1101010,41910819,31812019,0,10510019,0,0,4031090,0,31001709,0,40910409,3120160,0,11110009,40611409,41300509,31011319,2190030,41210709,2140140,21211409,0,40610809,4181060,40812019,41811319,3111140,40400919,40601209,41101309
7,271,901.558260433376,1,0,279901.485901482,279902.532930238,0,0,12,0,1,26,20,138333376,116673755,150757926,98245647,41800709,11600909,30310109,0,31210519,0,20301109,3110021,0,42000219,0,10300519,40400519,11501019,1010070,0,1060190,10401219,0,2041140,4190100,20601419,21711319,40110109,40400819,-1091201,20611819,10301109,20200719,10100209,40112019,2060151,0,4060021,11411419,0
7,272,562.486185692251,1,0,279904.532872879,279905.579897015,0,0,12,1,1,14,5,58152470,84934269,42871610,4371260,0,0,2071171,10400409,2100061,0,2070020,41510809,0,41511319,0,1180161,0,-1041080,41201709,0,0,0,0,40800519,0,0,2071091,0,0,0,0,1180060,0,0,3191200,0,0,0,0,0
7,273,810.7294163201,0,0,279907.238717279,279908.285704459,0,0,12,1,0,36,10,34881800,82994649,93585158,95774707,2030151,0,0,2050130,0,0,0,0,30801519,1091121,0,0,0,0,41201709,0,0,40701819,11901719,4190000,1040140,0,0,40711319,30500619,3100180,2141181,0,10001419,20800009,0,22000919,41901309,0,0,-1071051
7,274,519.949924258981,0,0,279910.156247863,279911.203283163,0,0,12,1,0,28,10,87633858,88783637,55254208,15562280,1140071,0,11411609,20011019,3060031,0,0,41310319,10700809,0,20900309,31111409,31700719,0,3051020,0,0,2020180,0,3051120,30901319,0,0,20211709,1090060,0,0,-2131121,0,2131040,0,0,0,11300119,0,0
7,275,564.952630607877,0,0,279912.744410852,279913.791428444,0,0,12,0,0,23,10,95164217,7150050,100946208,86742729,30010709,0,3131161,10000309,0,0,31910919,0,20111119,0,0,4030050,0,3120000,0,0,0,0,40911819,12000109,0,40510909,-2191181,0,0,1201080,4131110,0,0,2030051,0,30900409,1200041,0,31300309,21311919
7,276,504.373248899356,1,0,279915.520803583,279916.5678231,0,0,12,1,1,27,5,16832370,42052471,55743358,25721169,4131181,0,0,2201080,0,0,10500109,0,0,0,2141001,31901219,0,0,0,4010161,4000090,0,20211609,0,0,0,0,0,31500719,0,-4031030,21600919,0,0,0,0,0,3020060,1100190,0
7,277,554.450125666335,0,0,279918.120734444,279919.167756655,0,0,12,1,0,19,5,12432351,94322247,35743989,5311141,3171080,4030010,0,3190191,0,0,2041070,0,0,0,0,42011319,0,41700619,10610309,0,0,0,-2140090,0,0,10312019,2180161,0,0,21111719,0,0,0,0,3160021,0,0,0,0,2151120
7,278,557.743081706576,0,0,279920.885357379,279921.932442339,0,0,12,1,0,35,0,7181290,6302280,0,7332270,3061100,0,4120190,0,0,0,0,0,0,0,2061120,0,2161010,0,0,0,0,2080150,0,0,0,0,0,0,0,0,0,0,0,4191040,0,0,0,0,-2001200,1140030
7,279,621.156930865254,0,0,279923.69704333,279924.744070546,0,0,12,0,0,17,10,106635508,7301241,59724100,126628355,40601609,42001819,0,4030061,0,20002019,0,0,0,0,0,0,0,1001151,0,4060020,-1080070,1160000,3191021,4021161,41011409,0,0,11500509,0,0,0,1171060,21810119,0,30411819,41611919,0,0,20011719,11611719
7,280,912.762549181934,1,0,279926.426393062,279927.47340411,0,0,12,0,1,13,5,28944369,54932890,36023559,4031191,0,0,2031200,3011160,0,0,0,21802009,2100000,0,0,0,-1101101,41600319,0,10101309,0,2130161,0,10510419,1160081,20301919,0,0,4051140,0,0,0,0,0,0,4031191,0,0,0,0
7,281,1053.76258533215,0,0,279929.426301441,279930.473371003,0,0,12,1,0,1,20,149917495,175336005,162646695,92133856,-3071200,30511809,2010120,41110119,0,11701109,21101519,0,40411619,2090120,0,30411119,0,30811119,41611019,40001019,30411609,0,41701419,40212019,10800009,20910219,20000219,20810709,0,4171101,4041000,3050150,4120040,0,11511819,0,2041000,20100109,20010619,31300119
7,282,812.885967665352,1,0,279932.532099107,279933.579113235,0,0,12,1,1,24,0,8302210,7612464,3180001,0,4101030,0,0,0,0,0,0,4201180,0,2091070,1141091,2150121,0,1060141,0,1170041,0,0,0,0,0,0,0,-3180001,0,0,0,0,0,0,0,0,0,0,0,0
7,283,713.014005683362,0,0,279935.484957943,279936.53197746,0,0,12,0,0,25,0,3190160,5320051,8332261,5262241,0,0,0,0,3190160,0,0,0,0,0,0,2200010,0,0,3120041,0,0,0,4121200,0,0,0,0,1101060,-3110001,0,0,0,0,0,0,3181171,0,0,2081070,0
7,284,705.144633655436,1,0,279938.331935191,279939.378945469,0,0,12,0,1,30,5,26763339,53022128,14780519,29834531,0,1111020,20401209,0,2160070,0,0,3091040,0,0,0,41712019,11310109,0,0,0,0,0,0,3080010,11700509,0,0,0,0,0,0,4100181,21411919,-2151100,0,0,1040171,1131160,0,0
7,285,729.329421068542,0,0,279941.143686586,279942.190631036,0,0,12,0,0,34,20,134206645,106671366,129800433,67463308,11200819,2190130,22000909,11100309,0,21611509,30400219,4101031,31601719,0,0,31510419,30910409,30700219,0,10510219,0,3040100,10811909,20210809,41100409,3140000,3101050,20011909,10712019,10601919,10110409,1140021,0,0,0,2001050,11601519,-1100100,21610109,30010509
7,286,556.426130235195,1,0,279944.096474974,279945.14349757,0,0,12,0,1,29,0,6340171,2160201,9252440,2110161,0,0,0,4140090,0,0,2200081,0,0,0,0,0,0,0,0,0,0,2160201,2071100,2020020,0,1071190,4090130,0,0,0,0,0,-2110161,0,0,0,0,0,0,0
7,287,784.881212573964,1,0,279946.814045285,279947.861068267,0,0,12,0,1,31,10,81793080,84863856,86732757,48553231,0,2200031,0,0,3030080,31700309,41711609,3151051,0,2041190,0,10401519,0,40200219,11510019,0,20710909,0,4130000,31901819,0,0,30200319,20500619,0,0,0,0,0,3050081,-1061180,0,41411919,3030051,0,0
7,288,733.716436254326,0,0,279949.84929924,279950.89628334,0,0,12,0,0,33,0,4051090,8412160,3051000,6311363,0,0,0,0,4051090,0,0,0,0,4131030,0,0,0,3190000,0,0,0,1091130,0,0,0,0,0,0,0,0,3051000,0,0,2030111,0,1131171,-3150081,0,0,0
7,289,734.832053072751,1,0,279955.802093402,279956.8490571,0,0,13,1,1,11,0,6172352,6322132,9211201,4031160,4121161,0,0,0,0,0,2051191,0,0,0,-3161031,0,0,0,0,0,3161101,0,1140080,4070030,0,0,0,0,0,0,4001091,4031160,0,0,0,0,0,0,0,0
7,290,611.520588106941,0,0,279958.73136106,279959.778380962,0,0,13,1,0,27,5,16832370,42052471,55743358,25721169,4131181,0,0,2201080,0,0,10500109,0,0,0,2141001,31901219,0,0,0,4010161,4000090,0,20211609,0,0,0,0,0,31500719,0,-4031030,21600919,0,0,0,0,0,3020060,1100190,0
7,291,928.925135114696,0,0,279961.448937146,279962.496022106,0,0,13,1,0,1,20,149917495,175336005,162646695,92133856,-3071200,30511809,2010120,41110119,0,11701109,21101519,0,40411619,2090120,0,30411119,0,30811119,41611019,40001019,30411609,0,41701419,40212019,10800009,20910219,20000219,20810709,0,4171101,4041000,3050150,4120040,0,11511819,0,2041000,20100109,20010619,31300119
7,292,831.996584602166,1,0,279964.601785126,279965.648803872,0,0,13,0,1,25,5,52922719,65374659,10503353,49162429,0,0,10610319,0,0,41211309,0,0,1101091,31411619,0,0,30801919,0,0,0,3161121,0,4151030,0,0,0,1121031,0,-3081201,2150091,0,0,0,4181020,0,0,41810209,3171200,0,0
7,293,858.145442907698,0,0,279967.507591723,279968.554620094,0,0,13,1,0,7,20,200328834,172395767,76534868,188744984,31801619,11710509,1071000,40612009,40410619,41102019,-2020150,31600909,0,4201121,21210409,41200809,41010919,0,0,1160081,31601109,32011319,11800219,41411519,10900719,4051110,0,4180101,0,2100160,2091040,31611719,0,31811019,0,41410009,40200319,0,11911009,31800909
7,294,725.932525587268,0,0,279970.589858265,279971.636935526,0,0,13,1,0,20,10,132614756,56385809,45905199,70344019,0,0,41101309,0,0,40600919,40602009,0,10310519,40701519,0,0,3140161,1061170,0,1181140,0,10301819,0,-1161160,0,0,31101609,11601409,0,2041021,0,0,4161131,30410609,30610909,3000170,0,0,2161200,0
7,295,1002.30793340597,1,0,279973.460363942,279974.507391158,0,0,13,0,1,9,5,2110190,48015828,53113381,53683069,0,0,0,0,0,0,0,0,-2110190,0,0,31401609,0,4021200,1181000,0,0,11412019,4040100,0,0,0,2201071,2000110,0,40702019,4170081,40301619,0,0,2080041,0,0,11301409,0,0
7,296,1111.23225238407,1,0,279976.66027032,279977.707299845,0,0,13,1,1,6,20,181559816,89573387,190785534,252629784,3021121,0,21201819,41611709,40901319,-1101010,41910819,31812019,0,10510019,0,0,4031090,0,31001709,0,40910409,3120160,0,11110009,40611409,41300509,31011319,2190030,41210709,2140140,21211409,0,40610809,4181060,40812019,41811319,3111140,40400919,40601209,41101309
7,297,1228.15875482047,1,0,279979.895478772,279980.942501369,0,0,13,0,1,30,20,136015535,110516658,154564416,170315936,0,40111009,0,0,21410009,10501409,32000019,1081180,30911909,10800619,0,4150111,0,20511809,41201319,1110061,2031130,30711609,3141061,2070151,41710809,11410119,21100919,21710319,0,11610719,41810319,0,40911509,-1091060,11201509,0,41300509,41910519,2200111,31700719
7,298,629.301164939534,1,0,279983.295380838,279984.342410364,0,0,13,1,1,14,5,58152470,84934269,42871610,4371260,0,0,2071171,10400409,2100061,0,2070020,41510809,0,41511319,0,1180161,0,-1041080,41201709,0,0,0,0,40800519,0,0,2071091,0,0,0,0,1180060,0,0,3191200,0,0,0,0,0
7,299,617.090203275438,1,0,279985.989430034,279987.036452246,0,0,13,0,1,26,20,234656874,150887247,143124556,70795269,40711719,41400809,0,40711409,40210119,0,31211009,0,40411809,3070051,12001119,20112019,30011609,41710619,40801809,0,3180021,0,10310109,20400809,40200109,0,4060061,20510419,3100200,-4141140,40401709,0,20000219,1061061,10711619,0,21301809,3150141,11410409,3160011
7,300,679.582455952186,0,0,279988.76582469,279989.812893097,0,0,13,0,0,23,10,24911759,115424676,97857159,35984528,0,4050000,0,10601409,0,0,4120060,4080130,2060160,0,0,0,0,31500719,0,31010819,41601819,11311319,0,0,30501709,1000001,-1021071,41801609,3131050,0,20401719,3181200,0,0,11101919,21701409,0,0,0,0
7,301,463.113133097067,0,0,279991.589265425,279992.636292641,0,0,13,0,0,22,0,0,7332170,8401261,7312141,0,0,0,0,0,0,0,0,0,2161060,0,0,4051040,0,0,0,0,1120070,0,3131050,0,-2190080,0,0,0,3080131,0,0,4171070,0,0,0,3141071,0,0,0
7,302,711.019907903392,0,0,279994.177432264,279995.2244564,0,0,13,0,0,33,0,5140142,4141190,6120291,7123432,4070141,0,0,1070001,0,0,0,0,0,0,0,0,4141190,0,0,0,0,0,0,0,2020201,0,0,0,0,4100090,0,0,0,2001161,0,0,-3061190,0,2061081,0
7,303,626.335425768048,0,0,279996.989120141,279998.036139273,0,0,13,1,0,24,0,8302210,7612464,3180001,0,4101030,0,0,0,0,0,0,4201180,0,2091070,1141091,2150121,0,1060141,0,1170041,0,0,0,0,0,0,0,-3180001,0,0,0,0,0,0,0,0,0,0,0,0
7,304,587.993314024061,1,0,279999.718452164,280000.765476301,0,0,13,1,1,36,10,34881800,82994649,93585158,95774707,2030151,0,0,2050130,0,0,0,0,30801519,1091121,0,0,0,0,41201709,0,0,40701819,11901719,4190000,1040140,0,0,40711319,30500619,3100180,2141181,0,10001419,20800009,0,22000919,41901309,0,0,-1071051
7,305,554.185657412745,1,0,280002.42405674,280003.471284515,0,0,13,0,1,29,10,73476648,113524237,29362962,57601757,2200081,0,3191140,21210919,32001909,4061080,10811519,0,0,0,41011319,0,0,0,0,41811309,30701609,0,0,1110061,1140191,0,3091140,3010051,21011519,0,0,0,-3080010,31910209,11511319,0,0,0,0,11100219
7,306,851.974903664086,1,0,280005.118296101,280006.165324472,0,0,13,1,1,19,5,12432351,94322247,35743989,5311141,3171080,4030010,0,3190191,0,0,2041070,0,0,0,0,42011319,0,41700619,10610309,0,0,0,-2140090,0,0,10312019,2180161,0,0,21111719,0,0,0,0,3160021,0,0,0,0,2151120
7,307,731.626483146101,0,0,280008.141746383,280009.188773214,0,0,13,0,0,34,20,120654946,160537276,136816583,121266136,41500419,0,10210319,20701009,0,0,4110190,41001919,3131090,0,40411509,1121130,31901219,2010160,40200009,30601709,11211409,3080131,0,12000309,41601509,40401219,10000909,0,10611119,10700609,11500909,30700719,1151100,41501709,0,10011509,31610019,-4161050,0,2130030
7,308,902.064484078437,1,0,280011.118132878,280012.165155474,0,0,13,0,1,31,5,0,126362688,9241421,52793291,0,0,0,0,0,0,0,0,0,0,41900819,0,0,1190020,0,2061031,40410609,40800209,0,0,4030080,2191180,0,0,3020161,0,0,0,11500409,31111609,-4010081,3000111,0,0,3171081,0
7,309,473.077077651396,1,0,280014.165106969,280015.2121338,0,0,13,1,1,28,10,87633858,88783637,55254208,15562280,1140071,0,11411609,20011019,3060031,0,0,41310319,10700809,0,20900309,31111409,31700719,0,3051020,0,0,2020180,0,3051120,30901319,0,0,20211709,1090060,0,0,-2131121,0,2131040,0,0,0,11300119,0,0
7,310,500.720739306416,0,0,280016.694503358,280017.741495543,0,0,13,1,0,35,0,7181290,6302280,0,7332270,3061100,0,4120190,0,0,0,0,0,0,0,2061120,0,2161010,0,0,0,0,2080150,0,0,0,0,0,0,0,0,0,0,0,4191040,0,0,0,0,-2001200,1140030
7,311,784.836942097172,1,0,280019.341473369,280020.388468633,0,0,13,0,1,13,10,60146700,34041139,164925974,14883789,1140060,11211409,2001200,0,2081101,40601819,0,0,3111111,0,0,0,-2150050,0,1090080,30801009,0,0,11910009,11400809,0,20001919,40000409,0,41011909,40600919,0,0,10811709,0,0,0,2071080,0,0,2001000
7,312,763.033138238825,0,0,280022.30605542,280023.353082252,0,0,13,0,0,17,0,11381482,4200161,0,10232412,0,4090110,3090151,2091131,0,0,0,0,2110090,0,0,0,0,0,0,0,-4200161,0,0,0,0,0,0,0,0,0,0,0,0,0,0,4051041,0,4081181,2100190,0
7,313,858.342157967854,0,0,280028.505879416,280029.552908557,0,0,14,1,0,36,10,34881800,82994649,93585158,95774707,2030151,0,0,2050130,0,0,0,0,30801519,1091121,0,0,0,0,41201709,0,0,40701819,11901719,4190000,1040140,0,0,40711319,30500619,3100180,2141181,0,10001419,20800009,0,22000919,41901309,0,0,-1071051
7,314,920.847884204704,1,0,280031.529362035,280032.576359609,0,0,14,1,1,19,5,12432351,94322247,35743989,5311141,3171080,4030010,0,3190191,0,0,2041070,0,0,0,0,42011319,0,41700619,10610309,0,0,0,-2140090,0,0,10312019,2180161,0,0,21111719,0,0,0,0,3160021,0,0,0,0,2151120
7,315,774.78253172012,1,0,280034.682183837,280035.729206049,0,0,14,1,1,7,20,200328834,172395767,76534868,188744984,31801619,11710509,1071000,40612009,40410619,41102019,-2020150,31600909,0,4201121,21210409,41200809,41010919,0,0,1160081,31601109,32011319,11800219,41411519,10900719,4051110,0,4180101,0,2100160,2091040,31611719,0,31811019,0,41410009,40200319,0,11911009,31800909
7,316,846.839909383561,1,0,280037.529161085,280038.576181757,0,0,14,1,1,1,20,149917495,175336005,162646695,92133856,-3071200,30511809,2010120,41110119,0,11701109,21101519,0,40411619,2090120,0,30411119,0,30811119,41611019,40001019,30411609,0,41701419,40212019,10800009,20910219,20000219,20810709,0,4171101,4041000,3050150,4120040,0,11511819,0,2041000,20100109,20010619,31300119
7,317,769.153632572852,0,0,280040.634956442,280041.681980193,0,0,14,0,0,29,10,101454697,51812838,57721877,38302850,11700019,40700809,0,31401019,1021040,4021121,1200180,11410509,0,0,0,0,0,30601319,0,0,21211519,0,0,0,10410009,4020000,21011019,21100809,0,1180040,0,0,-1030130,31211609,4030111,0,0,0,2031000,0
7,318,846.480740758125,1,0,280043.658405184,280044.705428935,0,0,14,0,1,13,5,17132601,17291339,72634559,41221509,0,3091131,0,0,0,0,0,4040161,10001309,0,0,0,-4101130,0,0,0,11100109,2090100,0,30500719,4051200,3171160,0,31901419,3010061,0,0,1120100,0,40101409,0,0,0,0,0,0
7,319,639.82484274311,1,0,280046.564206006,280047.611226293,0,0,14,0,1,22,0,6400242,6202392,4241042,0,0,0,0,0,0,1200091,1060131,0,4140020,0,0,0,1041171,4081110,1080111,0,0,0,0,2081021,0,-2160021,0,0,0,0,0,0,0,0,0,0,0,0,0,0
7,320,686.065198504366,0,0,280049.281774778,280050.328800069,0,0,14,0,0,33,5,6512292,50993839,54261788,33132500,0,0,0,0,0,4191201,1121060,0,1200031,0,4191020,0,30401119,0,0,3171050,2030141,11200509,0,0,0,0,0,22000109,0,1060060,31201619,0,0,0,0,0,-3021191,0,30111309,0
7,321,1265.68975381088,0,0,280052.21110326,280053.258138945,0,0,14,0,0,31,10,17403111,4150090,120744265,108047398,0,0,0,2051191,11201819,4150101,0,0,0,0,0,3050060,1100030,0,0,0,0,0,41110809,20000009,3020020,3191190,0,10610109,11701319,31110809,0,2101031,31301209,0,-2141011,0,0,10801919,21600219,40102009
7,322,424.371816916391,1,0,280055.63453106,280056.68156328,0,0,14,1,1,28,10,87633858,88783637,55254208,15562280,1140071,0,11411609,20011019,3060031,0,0,41310319,10700809,0,20900309,31111409,31700719,0,3051020,0,0,2020180,0,3051120,30901319,0,0,20211709,1090060,0,0,-2131121,0,2131040,0,0,0,11300119,0,0
7,323,491.297664877493,0,0,280058.128584953,280059.175613709,0,0,14,1,0,14,5,58152470,84934269,42871610,4371260,0,0,2071171,10400409,2100061,0,2070020,41510809,0,41511319,0,1180161,0,-1041080,41201709,0,0,0,0,40800519,0,0,2071091,0,0,0,0,1180060,0,0,3191200,0,0,0,0,0
7,324,801.994267152622,1,0,280060.810858578,280061.857886564,0,0,14,0,1,30,20,111196387,197828432,136028527,75746548,1120140,0,1101170,31800419,31601919,3061201,10700919,0,31810619,21800609,0,20601119,11902019,30901209,21000419,40701619,30010719,20910719,2031011,4070160,4090081,0,30011819,41801919,11501519,31411309,11110709,21312009,0,-1120071,10712019,0,0,0,1001030,41601419
7,325,685.088167607319,0,0,280063.810783896,280064.857800333,0,0,14,1,0,35,0,7181290,6302280,0,7332270,3061100,0,4120190,0,0,0,0,0,0,0,2061120,0,2161010,0,0,0,0,2080150,0,0,0,0,0,0,0,0,0,0,0,4191040,0,0,0,0,-2001200,1140030
7,326,534.929525223561,0,0,280066.751873705,280067.798892837,0,0,14,0,0,26,20,141092266,199015733,87975557,131969635,4060140,10700019,41200909,0,0,4130060,0,40501019,40500119,1080140,30300219,30711119,12002009,30610809,0,41500119,41000909,11810409,1061011,10700609,0,30100509,0,2120130,31511509,-2181180,10300609,12010319,0,21601719,3071190,31501619,40902019,0,2171160,20711609
7,327,530.783495691139,1,0,280069.492980144,280070.539994272,0,0,14,0,1,17,0,13342381,2031011,4161050,3191141,3020010,3161130,0,0,0,0,4090180,0,3071061,0,0,0,0,0,0,0,-2031011,0,0,0,0,0,0,4161050,0,0,0,0,2070121,0,0,0,0,0,0,1121020
7,328,522.444471309427,1,0,280072.17525608,280073.222274442,0,0,14,0,1,23,0,3232280,3100060,4281101,7280372,1121180,0,0,0,0,0,0,2111100,0,0,0,0,0,3100060,0,0,0,0,0,0,0,0,-1151040,3130061,0,0,0,0,1100080,0,0,0,0,0,3080151,3100141
7,329,486.354766180739,0,0,280074.91635097,280075.963377032,0,0,14,1,0,27,5,16832370,42052471,55743358,25721169,4131181,0,0,2201080,0,0,10500109,0,0,0,2141001,31901219,0,0,0,4010161,4000090,0,20211609,0,0,0,0,0,31500719,0,-4031030,21600919,0,0,0,0,0,3020060,1100190,0
7,330,787.569394975435,1,0,280077.575100402,280078.622127618,0,0,14,0,1,25,5,19761871,35721129,39964670,33371628,0,2180051,0,3200001,3170100,0,11211719,0,0,0,0,0,4021110,0,0,0,0,31700019,1081100,30701309,4001120,0,0,0,-4181141,0,0,0,10600209,0,0,0,20701409,0,0,2070010
7,331,685.022724268492,0,0,280080.551494596,280081.598510263,0,0,14,1,0,11,0,6172352,6322132,9211201,4031160,4121161,0,0,0,0,0,2051191,0,0,0,-3161031,0,0,0,0,0,3161101,0,1140080,4070030,0,0,0,0,0,0,4001091,4031160,0,0,0,0,0,0,0,0
7,332,1563.91285103746,0,0,280083.339651349,280084.386670865,0,0,14,1,0,6,20,181559816,89573387,190785534,252629784,3021121,0,21201819,41611709,40901319,-1101010,41910819,31812019,0,10510019,0,0,4031090,0,31001709,0,40910409,3120160,0,11110009,40611409,41300509,31011319,2190030,41210709,2140140,21211409,0,40610809,4181060,40812019,41811319,3111140,40400919,40601209,41101309
7,333,962.681206932757,1,0,280087.021901107,280088.068917929,0,0,14,1,1,20,10,132614756,56385809,45905199,70344019,0,0,41101309,0,0,40600919,40602009,0,10310519,40701519,0,0,3140161,1061170,0,1181140,0,10301819,0,-1161160,0,0,31101609,11601409,0,2041021,0,0,4161131,30410609,30610909,3000170,0,0,2161200,0
7,334,578.363130567595,1,0,280090.057112716,280091.104136082,0,0,14,0,1,9,20,88574278,203718216,177017644,109606427,3060050,2101010,41711719,0,10311309,0,0,30210109,-1180081,30811319,30101819,30212019,0,31111109,31710119,4120201,4151121,41500509,21910709,20611919,0,40611209,40211009,0,2171070,31401209,20100519,21000509,0,11311619,21611609,3170001,2091051,20110419,0,30311219
7,335,689.478262444027,1,0,280092.762910151,280093.809933902,0,0,14,1,1,24,0,8302210,7612464,3180001,0,4101030,0,0,0,0,0,0,4201180,0,2091070,1141091,2150121,0,1060141,0,1170041,0,0,0,0,0,0,0,-3180001,0,0,0,0,0,0,0,0,0,0,0,0
7,336,886.960540781729,0,0,280095.68047923,280096.727497592,0,0,14,0,0,34,10,5311351,85633108,80517038,89484277,0,0,0,0,0,4161200,1150151,0,0,3100061,0,0,40710519,20010919,0,0,0,21811609,0,2191080,21912009,0,0,4201021,31001909,0,21211019,0,20501009,0,10510709,31800919,1091011,-3170120,2000190,20410319
7,337,919.739966571797,1,0,280103.856720133,280104.903760052,0,0,15,0,1,33,20,144123756,171405875,150387367,114796807,41900719,31010609,0,0,0,0,0,40010609,31201819,11210419,4051091,0,0,30010019,11510609,41510009,41802009,31311719,30711609,31411409,11101719,30401009,3021130,41400209,0,1190111,1150171,21211519,2081170,1060081,2021050,10010619,-4201021,22000119,31901109,20310119
7,338,809.061765437946,0,0,280106.974280281,280108.021304417,0,0,15,1,0,36,10,34881800,82994649,93585158,95774707,2030151,0,0,2050130,0,0,0,0,30801519,1091121,0,0,0,0,41201709,0,0,40701819,11901719,4190000,1040140,0,0,40711319,30500619,3100180,2141181,0,10001419,20800009,0,22000919,41901309,0,0,-1071051
7,339,418.148922908586,0,0,280110.021258992,280111.068277354,0,0,15,0,0,22,20,149617387,170775264,57534249,171035377,10101909,41300909,41810309,3160181,1021000,1011051,0,20100909,31111119,22000019,20311319,21511419,1130031,31300219,20710119,41901919,0,11910219,0,0,20110419,-1041101,21900919,10301719,0,4180091,0,10501119,2130191,0,30210309,41710019,41500619,41912009,0,3071111
