sub_id,Trial,RT,Resp,Error,Fix_onset,Disp_onset,q1,q2,block,repeat,tid,tloc,d_setsize,quad1,quad2,quad3,quad4,loc1,loc2,loc3,loc4,loc5,loc6,loc7,loc8,loc9,loc10,loc11,loc12,loc13,loc14,loc15,loc16,loc17,loc18,loc19,loc20,loc21,loc22,loc23,loc24,loc25,loc26,loc27,loc28,loc29,loc30,loc31,loc32,loc33,loc34,loc35,loc36
8,1,1150.97099979175,0,0,285891.85416053,285892.901229707,0,10,1,1,0,7,5,49392330,35202210,5311302,75933938,1100110,40211919,0,4060140,0,0,-4020161,0,0,0,30011009,0,2021131,0,0,3170070,0,0,0,0,0,0,4200171,1111131,0,0,0,0,0,41700319,0,11401009,2131091,0,20701519,0
8,2,1719.59183097351,0,0,285895.10127698,285896.148331143,0,10,1,0,0,25,10,67414729,87693667,53662262,73724538,0,0,0,1101121,30800209,20911809,0,3201171,11400419,0,21502009,32011119,0,0,4170020,0,0,30010519,41200119,0,4110010,4020071,0,0,-3131001,0,1201061,40710309,0,0,0,2011101,0,10001609,21001519,0
8,3,1162.06172510283,1,0,285898.877780964,285899.924844752,0,10,1,1,1,18,20,169344813,59326708,128926277,161719696,11110719,1100011,22000409,20001119,20000509,21910409,20200209,41211019,11810409,0,1161090,0,1081001,11011819,2201080,10510009,31310509,-2051200,41900919,31811519,10602009,4200021,0,0,0,40411809,0,32001309,2041191,42001819,0,4171140,0,10101809,30901119,40501309
8,4,1660.17926600762,0,0,285902.230757444,285903.277825081,0,10,1,0,0,2,0,6201140,7281190,1071121,5100432,0,-2021110,0,0,0,4180030,0,0,0,0,4171050,0,0,0,0,0,3110140,0,0,0,0,0,0,1071121,0,0,0,0,0,0,1060170,2030081,0,0,2010181,0
8,5,1187.09958600812,1,0,285906.124915892,285907.1719766,0,10,1,0,1,27,5,26203349,12710610,25882762,55982558,3091140,20911009,0,0,0,0,0,2201200,0,0,0,10610519,2100091,0,0,0,0,0,0,0,20801409,0,1021091,0,0,2050101,-2010161,40100019,0,0,10601409,0,0,3080080,2201050,0
8,6,780.913802271243,1,0,285909.477901611,285910.524969248,0,10,1,0,1,16,5,11210452,24021869,26991950,70082429,0,0,0,3070070,0,0,4080201,0,4060181,0,0,22001819,0,0,0,-2020050,0,0,20701709,2140130,0,0,0,0,0,0,4150111,0,0,0,0,4011171,3150011,21410919,30100319,11410009
8,7,814.550536160823,0,0,285912.454400899,285913.501473156,0,10,1,1,0,9,20,200348005,90145409,128255296,105080206,30310909,40511009,41511809,30611719,3031100,10700509,40610909,0,-3060041,4061131,0,30910709,0,0,2150041,31611509,21412019,0,0,0,21500719,1030140,20912019,2090171,41410319,10910719,30401209,0,21811609,11011619,11612019,21411419,20000809,4021201,11201409,4010121
8,8,773.485980578698,0,0,285915.466206882,285916.51326451,0,10,1,1,0,28,5,44900650,41570909,74523279,30294030,0,0,0,0,0,40710419,1040060,0,3150171,0,40410709,0,0,0,0,0,0,1160200,0,1111030,0,0,40210419,0,1191121,0,32010709,-3171090,4141110,0,21901719,1080111,0,0,0,0
8,9,608.944811683614,0,0,285918.442706555,285919.489768033,0,10,1,0,0,15,0,3122190,12201281,3060011,6101091,0,0,1091110,0,2031080,0,0,0,0,4010040,0,0,0,0,-4150121,4041120,0,0,0,0,0,0,0,3060011,0,0,0,0,0,0,0,0,4090001,0,2011090,0
8,10,649.348004371859,1,0,285921.301565239,285922.348630566,0,10,1,1,1,22,5,19872311,102512327,42942370,4180190,0,2050100,11501009,4190031,0,0,2131171,0,0,41100809,30200809,31210709,0,0,0,0,0,0,0,0,0,-3120170,3091180,4070111,0,1050100,31610809,0,0,0,4180190,0,0,0,0,0
8,11,587.001651932951,0,0,285924.195712908,285925.242772076,0,10,1,0,0,10,20,190054402,104595316,82134499,88433887,20910419,41800709,41510209,10700219,10010009,12010309,0,11610909,41501619,-4050010,0,10400509,3000081,21201019,2030140,31110619,11001319,21801619,1031151,3070081,4021030,21200509,0,21200119,0,31611609,0,1061070,11500419,0,1141171,0,0,21710009,11711009,41310209
8,12,1028.2338965917,1,0,285926.866332995,285927.913401402,0,10,1,1,1,34,0,2010140,3222132,4061240,7122431,0,2010140,0,0,0,0,0,0,0,0,0,2041101,0,0,1181031,0,0,0,0,0,1060050,0,3001190,0,0,0,0,0,0,0,0,2041101,4060190,-1021140,0,0
8,13,889.569418504834,1,0,285930.078136206,285931.125196914,0,10,1,0,1,30,20,159746196,111955667,139946894,89965938,2010051,21500919,0,1020171,20800919,31700509,30800809,30611809,21301009,0,0,41301809,2120050,21511409,21500419,21410909,0,4111071,0,11500419,41800619,21310909,3020000,11101309,0,10711819,40501819,0,1050131,-3120100,30711619,1181141,0,21401119,21801219,10700609
8,14,1059.27098914981,1,0,285933.219351436,285934.266415608,0,10,1,1,1,14,10,18182599,18273702,174156884,61724721,0,0,0,0,4161180,0,2021010,12000409,0,2131011,0,0,10900619,-4141001,0,0,0,1101071,10210819,41110919,40411509,41210209,10301519,0,0,0,30911909,4021091,0,0,0,4021141,31602019,20010419,2070051,0
8,15,1371.38848227914,0,0,285936.431144638,285937.478213045,0,10,1,1,0,29,0,1081161,8442503,0,7393432,0,1081161,0,0,0,0,0,0,0,0,0,2140141,1171100,0,2001171,0,0,3130091,0,0,0,0,0,0,0,0,0,0,-3161121,0,1191161,0,0,3041150,0,0
8,16,1423.28275967157,0,0,285940.031187523,285941.078254774,0,10,1,0,0,33,5,2200121,75734568,26063320,29923712,0,0,0,0,2200121,0,0,0,0,2121011,21911519,21300619,0,0,0,30401419,0,0,0,0,0,4171141,0,0,1181160,20711019,0,0,21510409,3131071,0,1131031,-3131191,1020010,0,0
8,17,816.23897497775,1,0,285943.52534728,285944.572414917,0,10,1,1,1,24,20,108744528,139296955,118696757,175706825,1140051,2070021,0,11210809,42001819,21211509,0,31110319,0,20501409,41011319,2060071,31402019,10710009,11900119,0,0,21712009,4080160,11101009,21200109,21601319,40900709,-4061131,11711209,4041111,0,40510519,2120120,1130120,0,20011409,0,41711219,40211719,30011719
8,18,1081.7785016261,1,0,285946.419499184,285947.466552962,0,10,1,1,1,4,10,29731440,83215636,87754617,54220648,4040010,0,0,-4061141,0,1120070,0,20510219,0,0,0,21601709,0,30611609,0,10501109,0,20501209,20211509,2011070,20810709,40411119,0,1160080,3150130,0,0,0,11100319,1030180,40010109,0,2080040,0,0,0
8,19,674.617226817645,0,0,285949.65482274,285950.701889222,0,10,1,0,0,5,10,88265727,61956069,22261108,65371978,0,0,10901509,0,-2050080,40401619,21011109,2200201,11701209,4021151,31001919,0,1111060,21511619,0,3110200,1200120,0,2060180,0,10200319,10000609,0,0,0,0,0,3070050,40900409,0,0,0,0,21401519,0,0
8,20,1106.26086383127,1,0,285952.584270174,285953.631337426,0,10,1,0,1,6,20,111996057,138924314,177933706,172706846,2160070,1001031,20701109,31511519,2160130,-2040080,21110609,31311509,0,11801519,0,30400709,2200020,41600019,11310619,0,10600119,31011309,40400119,0,0,40310709,41301019,30101109,0,4020141,21800609,0,20201809,0,3090201,31912019,31301719,41000709,4190070,41010319
8,21,721.353797300253,0,0,285955.94901953,285956.996077158,0,10,1,1,0,19,0,4110150,5131211,4090332,9191221,4110150,0,0,0,0,0,0,0,0,3000090,0,0,2131121,0,0,0,0,0,-1070161,0,0,3020171,0,0,0,0,0,2010130,4040010,0,0,3141081,0,0,0,0
8,22,830.854017869569,0,0,285958.831402408,285959.878461575,0,10,1,0,0,12,10,56743158,117713576,57402888,87582449,0,0,0,40611119,0,4110190,10000709,2021140,0,3150200,0,-1050020,21300509,20900819,40401709,0,30910319,0,32010209,4171150,1020020,0,20201509,0,0,0,0,0,0,4170170,1100061,41400609,0,40911609,0,0
8,23,1498.12302010832,1,0,285961.749085435,285962.796149993,0,10,1,1,1,1,10,112686106,14260930,115412886,9093211,-4021181,31410309,20600709,0,11501709,3130170,30310219,0,11711809,1140110,10010709,0,0,3110111,0,0,0,0,41610809,21200519,0,0,31100719,0,1200030,20300809,0,0,0,0,3021080,2031061,0,0,0,4041070
8,24,859.000823518727,1,0,285965.490298509,285966.537366146,0,10,1,0,1,11,0,6351261,4433461,4332201,0,0,2191030,1080150,3080081,0,0,0,0,0,0,-2111191,0,0,1201080,0,0,0,1121190,1171030,3161171,0,0,0,0,0,0,0,0,0,0,0,0,0,0,0,0
8,25,539.903988130391,1,0,285979.99635202,285981.043457768,0,10,2,0,1,10,5,32990819,61254850,42490129,40173199,0,30810719,2180100,0,0,0,0,0,0,-3101141,0,3050121,0,3191160,0,0,10401509,41510919,2080120,0,0,0,0,0,0,40410009,0,1130200,32001809,0,0,3040000,0,0,0,4001190
8,26,1350.13170790626,0,0,285982.761089673,285983.808146146,0,10,2,0,0,30,20,209248363,132434058,92665698,160197584,40800109,41700919,11010319,10901019,0,31011619,40411919,31301319,2111140,41911219,0,0,0,3080031,41910309,11211119,30201319,4120061,1161031,21100719,1010070,0,31800909,30401719,4021100,3170150,0,10611109,41802009,-2071010,11511609,21700019,31100819,41401009,0,0
8,27,1247.05802561948,0,0,285986.2199462,285987.267008833,0,10,2,1,0,1,10,112686106,14260930,115412886,9093211,-4021181,31410309,20600709,0,11501709,3130170,30310219,0,11711809,1140110,10010709,0,0,3110111,0,0,0,0,41610809,21200519,0,0,31100719,0,1200030,20300809,0,0,0,0,3021080,2031061,0,0,0,4041070
8,28,603.686244925484,0,0,285989.702378507,285990.749404183,0,10,2,0,0,11,5,33570730,36313260,57313198,35832051,0,1010130,30410509,0,0,0,0,0,2150091,4041080,-2071171,0,30201009,0,0,0,0,0,41710409,0,0,2201000,0,0,3000180,10401609,0,2041131,0,0,3090201,0,30700719,0,0,0
8,29,797.729282057844,1,0,285992.549428898,285993.596488835,0,10,2,1,1,14,10,18182599,18273702,174156884,61724721,0,0,0,0,4161180,0,2021010,12000409,0,2131011,0,0,10900619,-4141001,0,0,0,1101071,10210819,41110919,40411509,41210209,10301519,0,0,0,30911909,4021091,0,0,0,4021141,31602019,20010419,2070051,0
8,30,1332.72685291013,1,0,285995.51419881,285996.561228336,0,10,2,1,1,19,0,4110150,5131211,4090332,9191221,4110150,0,0,0,0,0,0,0,0,3000090,0,0,2131121,0,0,0,0,0,-1070161,0,0,3020171,0,0,0,0,0,2010130,4040010,0,0,3141081,0,0,0,0
8,31,2227.87311114371,0,0,285999.067162509,286000.114216288,0,10,2,0,0,6,20,39447230,138378795,111764127,179299363,1161131,0,3001090,0,10011209,-2151081,10211709,10800809,2110201,0,4151111,0,31201219,30511409,20301819,31910919,10302009,10000309,31101119,0,4130030,4120121,0,0,11211719,41100119,20101019,41601009,30510519,41411719,10800619,11501819,2171140,20101119,21201419,0
8,32,1125.57358533377,1,0,286003.45542913,286004.502496767,0,10,2,1,1,7,5,49392330,35202210,5311302,75933938,1100110,40211919,0,4060140,0,0,-4020161,0,0,0,30011009,0,2021131,0,0,3170070,0,0,0,0,0,0,4200171,1111131,0,0,0,0,0,41700319,0,11401009,2131091,0,20701519,0
8,33,1519.08029487822,0,0,286006.690765775,286007.737833027,0,10,2,0,0,2,0,4121081,5041100,8261161,3141351,0,-2030040,0,0,0,0,0,0,2091041,0,1000100,0,0,0,0,4041000,0,0,0,0,0,4150051,0,0,0,0,4111110,0,0,2050180,0,0,0,1091171,0,0
8,34,936.388370639179,0,0,286010.314337088,286011.36140434,0,10,2,0,0,12,10,110615897,50994060,44254299,85603297,10810209,0,40110419,30011819,21611219,4051061,4021170,0,0,0,41710519,-1021010,0,3000171,2141200,0,3121160,0,0,0,0,10802009,2041181,0,0,31411109,0,0,4200050,10000919,0,0,31001519,0,0,40400809
8,35,1353.91279443866,1,0,286013.443786756,286014.490847848,0,10,2,1,1,24,20,108744528,139296955,118696757,175706825,1140051,2070021,0,11210809,42001819,21211509,0,31110319,0,20501409,41011319,2060071,31402019,10710009,11900119,0,0,21712009,4080160,11101009,21200109,21601319,40900709,-4061131,11711209,4041111,0,40510519,2120120,1130120,0,20011409,0,41711219,40211719,30011719
8,36,1539.07632204937,0,0,286016.85558989,286017.902650597,0,10,2,0,0,33,20,88121667,173846834,137883936,143817377,10710319,3180120,2000171,0,0,0,10910719,31010119,30310219,10311309,0,31611509,31911209,4000060,20800419,41401109,3011000,30800219,2051051,0,0,0,21610019,31910809,10501019,31410719,40400319,21501419,0,20400709,41800809,20500619,-2051060,2031021,4121021,31410719
8,37,901.634864974767,1,0,286020.573286468,286021.620339862,0,10,2,1,1,34,0,2010140,3222132,4061240,7122431,0,2010140,0,0,0,0,0,0,0,0,0,2041101,0,0,1181031,0,0,0,0,0,1060050,0,3001190,0,0,0,0,0,0,0,0,2041101,4060190,-1021140,0,0
8,38,2946.78655115422,1,0,286023.690966339,286024.738024352,0,10,2,1,1,18,20,169344813,59326708,128926277,161719696,11110719,1100011,22000409,20001119,20000509,21910409,20200209,41211019,11810409,0,1161090,0,1081001,11011819,2201080,10510009,31310509,-2051200,41900919,31811519,10602009,4200021,0,0,0,40411809,0,32001309,2041191,42001819,0,4171140,0,10101809,30901119,40501309
8,39,965.814401570242,0,0,286028.691015999,286029.738101729,0,10,2,0,0,25,0,4262180,6301211,7381260,1101040,0,0,0,0,0,2201080,2061100,0,0,0,0,0,0,4121151,0,2180060,0,0,0,0,0,4160110,0,0,-2161080,0,1060070,0,1101040,0,0,0,0,0,0,0
8,40,708.800220338162,1,0,286031.80869664,286032.855765047,0,10,2,0,1,15,10,64041837,85203728,35160349,46373298,10710409,10300709,0,0,0,0,1120000,41910719,0,4070050,10010209,0,30711009,2070020,-4001081,0,31211219,3130140,0,3150040,0,0,32010309,0,0,0,0,0,2010061,10310009,21911409,0,0,0,10101709,2040110
8,41,673.831906460691,0,0,286034.655799771,286035.702860478,0,10,2,1,0,9,20,200348005,90145409,128255296,105080206,30310909,40511009,41511809,30611719,3031100,10700509,40610909,0,-3060041,4061131,0,30910709,0,0,2150041,31611509,21412019,0,0,0,21500719,1030140,20912019,2090171,41410319,10910719,30401209,0,21811609,11011619,11612019,21411419,20000809,4021201,11201409,4010121
8,42,1160.59925843729,1,0,286037.396997831,286038.444063928,0,10,2,0,1,27,10,95934778,34742840,96043847,99545688,0,0,40001909,11900609,1150170,0,0,2070181,40811909,0,0,0,1031100,1180181,1021140,0,31510419,0,31011309,0,41201209,0,0,21700209,0,0,-2131120,4091150,0,20600309,30211219,41512009,0,0,0,3131001
8,43,1010.12032851577,1,0,286040.785267916,286041.832341712,0,10,2,0,1,5,5,4171171,13252500,53184388,41343701,0,1011100,0,0,-3160071,0,0,0,0,0,2070000,0,1071181,0,10111319,0,0,0,2061131,20011319,0,0,10101819,0,0,21010119,0,0,31001509,0,0,0,3081060,0,4181021,3080111
8,44,619.913119357079,0,0,286043.961783681,286045.008840154,0,10,2,1,0,4,10,29731440,83215636,87754617,54220648,4040010,0,0,-4061141,0,1120070,0,20510219,0,0,0,21601709,0,30611609,0,10501109,0,20501209,20211509,2011070,20810709,40411119,0,1160080,3150130,0,0,0,11100319,1030180,40010109,0,2080040,0,0,0
8,45,803.126819664612,1,0,286046.78533413,286047.832405231,0,10,2,1,1,28,5,44900650,41570909,74523279,30294030,0,0,0,0,0,40710419,1040060,0,3150171,0,40410709,0,0,0,0,0,0,1160200,0,1111030,0,0,40210419,0,1191121,0,32010709,-3171090,4141110,0,21901719,1080111,0,0,0,0
8,46,469.023821060546,0,0,286049.785367621,286050.832437568,0,10,2,0,0,16,0,7192293,5151241,3110091,5100251,4031011,0,0,0,0,0,2051151,1110131,0,1130161,0,0,0,0,0,-4021080,0,0,0,3110091,0,0,0,0,0,0,0,0,0,3010081,0,2090170,0,0,0,0
8,47,728.25306764571,1,0,286052.350100347,286053.397169908,0,10,2,1,1,29,0,1081161,8442503,0,7393432,0,1081161,0,0,0,0,0,0,0,0,0,2140141,1171100,0,2001171,0,0,3130091,0,0,0,0,0,0,0,0,0,0,-3161121,0,1191161,0,0,3041150,0,0
8,48,515.892433119006,0,0,286055.279599366,286056.326616573,0,10,2,1,0,22,5,19872311,102512327,42942370,4180190,0,2050100,11501009,4190031,0,0,2131171,0,0,41100809,30200809,31210709,0,0,0,0,0,0,0,0,0,-3120170,3091180,4070111,0,1050100,31610809,0,0,0,4180190,0,0,0,0,0
8,49,541.266364918556,0,0,286074.562120676,286075.609184848,0,10,3,0,0,16,20,78664406,54154910,200858165,173361215,0,0,20600119,0,20911219,0,4041130,21101419,12010519,10001919,1040151,0,0,1121191,0,-1070021,20710409,20211219,40611319,4001171,1131200,0,42001019,21010719,41100509,20701519,30300709,31112019,4011181,10000619,1180041,11811909,21212009,41310519,21811309,30911609
8,50,1088.63619621843,0,0,286077.291566647,286078.33862928,0,10,3,0,0,30,0,6352182,6171212,0,9471153,0,0,0,0,3191041,0,0,0,3161141,2030161,4141051,0,0,0,0,0,0,0,0,0,0,0,0,0,0,0,0,0,0,-2050021,1110001,2170010,4141121,0,0,0
8,51,717.888763640076,1,0,286080.550430951,286081.597487424,0,10,3,1,1,18,20,169344813,59326708,128926277,161719696,11110719,1100011,22000409,20001119,20000509,21910409,20200209,41211019,11810409,0,1161090,0,1081001,11011819,2201080,10510009,31310509,-2051200,41900919,31811519,10602009,4200021,0,0,0,40411809,0,32001309,2041191,42001819,0,4171140,0,10101809,30901119,40501309
8,52,1244.65548427543,1,0,286083.35045836,286084.397516373,0,10,3,1,1,19,0,4110150,5131211,4090332,9191221,4110150,0,0,0,0,0,0,0,0,3000090,0,0,2131121,0,0,0,0,0,-1070161,0,0,3020171,0,0,0,0,0,2010130,4040010,0,0,3141081,0,0,0,0
8,53,704.008996195626,0,0,286086.762296911,286087.809327591,0,10,3,0,0,6,5,13412302,3231172,96255257,31571349,0,3060101,3190000,0,4161121,-3001080,0,0,0,0,0,0,2200031,0,0,0,1031141,0,0,31910419,0,0,11911409,20311109,0,2011201,30111119,0,0,1070140,0,0,0,30501209,0,0
8,54,902.784743346274,0,0,286089.609376558,286090.656417248,0,10,3,1,0,28,5,44900650,41570909,74523279,30294030,0,0,0,0,0,40710419,1040060,0,3150171,0,40410709,0,0,0,0,0,0,1160200,0,1111030,0,0,40210419,0,1191121,0,32010709,-3171090,4141110,0,21901719,1080111,0,0,0,0
8,55,865.42928655399,1,0,286092.644670164,286093.691743191,0,10,3,1,1,9,20,200348005,90145409,128255296,105080206,30310909,40511009,41511809,30611719,3031100,10700509,40610909,0,-3060041,4061131,0,30910709,0,0,2150041,31611509,21412019,0,0,0,21500719,1030140,20912019,2090171,41410319,10910719,30401209,0,21811609,11011619,11612019,21411419,20000809,4021201,11201409,4010121
8,56,518.181026040111,1,0,286095.738832,286096.785894248,0,10,3,0,1,15,5,27742710,17682080,25072130,89625730,0,0,0,4141200,0,20400509,0,3201001,0,0,0,0,0,0,-4020030,11601919,2060131,0,0,3170111,0,0,0,0,0,0,21902019,40810819,0,40501609,0,0,1071061,0,4071171,3171070
8,57,1907.73611125769,1,0,286098.421220344,286099.468297605,0,10,3,1,1,1,10,112686106,14260930,115412886,9093211,-4021181,31410309,20600709,0,11501709,3130170,30310219,0,11711809,1140110,10010709,0,0,3110111,0,0,0,0,41610809,21200519,0,0,31100719,0,1200030,20300809,0,0,0,0,3021080,2031061,0,0,0,4041070
8,58,1925.3827217035,0,0,286102.503618928,286103.550679636,0,10,3,1,0,24,20,108744528,139296955,118696757,175706825,1140051,2070021,0,11210809,42001819,21211509,0,31110319,0,20501409,41011319,2060071,31402019,10710009,11900119,0,0,21712009,4080160,11101009,21200109,21601319,40900709,-4061131,11711209,4041111,0,40510519,2120120,1130120,0,20011409,0,41711219,40211719,30011719
8,59,519.352077273652,1,0,286106.656603569,286107.703669281,0,10,3,0,1,11,0,7242401,2291282,6161331,0,0,0,3160191,0,3011090,1071120,0,0,0,0,-1090151,0,0,0,0,0,0,1201131,0,3100150,0,0,0,0,1060170,2001011,0,0,0,0,0,0,0,0,0,0
8,60,1335.70529590361,0,0,286109.421338912,286110.4684027,0,10,3,1,0,7,5,49392330,35202210,5311302,75933938,1100110,40211919,0,4060140,0,0,-4020161,0,0,0,30011009,0,2021131,0,0,3170070,0,0,0,0,0,0,4200171,1111131,0,0,0,0,0,41700319,0,11401009,2131091,0,20701519,0
8,61,1200.91044541914,0,0,286112.939027868,286113.986145935,0,10,3,1,0,22,5,19872311,102512327,42942370,4180190,0,2050100,11501009,4190031,0,0,2131171,0,0,41100809,30200809,31210709,0,0,0,0,0,0,0,0,0,-3120170,3091180,4070111,0,1050100,31610809,0,0,0,4180190,0,0,0,0,0
8,62,1455.38234448759,0,0,286116.327296414,286117.374363666,0,10,3,0,0,2,20,138735385,165017924,71854827,130776087,0,-3091091,0,21611919,10700319,21101109,31210209,20310619,30710119,11501819,10101909,41901219,4190021,32011509,21310119,0,32000209,12001119,20700509,3130110,12011609,3050170,0,0,30901309,0,2061120,10901409,0,40511419,2190111,31510219,2081120,41411809,2170000,0
8,63,716.611463227309,1,0,286119.892053777,286120.939111405,0,10,3,1,1,14,10,18182599,18273702,174156884,61724721,0,0,0,0,4161180,0,2021010,12000409,0,2131011,0,0,10900619,-4141001,0,0,0,1101071,10210819,41110919,40411509,41210209,10301519,0,0,0,30911909,4021091,0,0,0,4021141,31602019,20010419,2070051,0
8,64,1456.48525760043,1,0,286122.739139199,286123.786197982,0,10,3,0,1,12,5,29653549,18751460,43914209,13012770,0,1120110,0,1160160,3200170,0,22011919,0,2161190,11410209,0,-4141050,0,0,3200201,0,0,0,31411909,1201181,0,0,0,0,0,0,11301119,0,0,2011151,0,11001619,0,0,0,0
8,65,915.717121912166,1,0,286126.303905031,286127.350948031,0,10,3,0,1,5,10,65905068,35062669,56413557,71105301,11311119,10000809,0,3161190,-1030041,40401909,0,0,0,0,0,1150140,11000909,20710509,0,0,0,2201111,0,4101110,0,11810109,0,0,0,30500719,10001619,4011201,1200181,3181191,0,22001609,0,0,40711119,0
8,66,701.488271879498,0,0,286129.292149093,286130.339209031,0,10,3,0,0,10,20,152926826,86913738,149009373,139999337,31711009,2131200,0,4100051,30300919,31311819,1160000,21310809,30901019,-2171130,40210019,0,0,30100519,11300919,0,3131151,0,21400319,11500709,0,41111719,11201409,1061180,10811709,30211219,21711109,30310809,41901719,31011609,21501319,0,1101141,4071121,0,10101619
8,67,917.911014403217,0,0,286132.056893291,286133.103964007,0,10,3,1,0,34,0,2010140,3222132,4061240,7122431,0,2010140,0,0,0,0,0,0,0,0,0,2041101,0,0,1181031,0,0,0,0,0,1060050,0,3001190,0,0,0,0,0,0,0,0,2041101,4060190,-1021140,0,0
8,68,1404.08552641748,0,0,286135.127510529,286136.174573547,0,10,3,0,0,27,10,21873671,61646238,50044349,144516256,4021131,3011120,0,0,0,3130011,0,0,11711409,4091090,3171110,10110619,0,0,0,10511919,31711419,2050081,31510409,0,0,0,0,4051180,0,10401619,-4081141,0,0,30411509,30501419,0,42002019,41601309,0,0
8,69,1203.5612866166,1,0,286138.645191016,286139.692264043,0,10,3,0,1,25,10,77005957,49045309,22372061,72513888,0,3131010,40401909,0,0,20201809,3070020,10201209,0,0,1180151,4161011,0,0,11501719,11701819,0,20500609,4170091,3101141,10910719,0,0,0,-4190110,0,0,0,1090161,0,10900609,20411809,0,0,40111309,0
8,70,830.296594416723,0,0,286142.045228974,286143.092294686,0,10,3,1,0,4,10,29731440,83215636,87754617,54220648,4040010,0,0,-4061141,0,1120070,0,20510219,0,0,0,21601709,0,30611609,0,10501109,0,20501209,20211509,2011070,20810709,40411119,0,1160080,3150130,0,0,0,11100319,1030180,40010109,0,2080040,0,0,0
8,71,1010.72086754721,1,0,286145.127624093,286146.174714442,0,10,3,0,1,33,0,1100201,7111281,11382411,5301182,0,0,0,0,0,0,0,0,1100201,4080141,0,0,0,0,3031140,0,0,0,0,3000140,0,4181080,0,0,4201191,0,0,0,0,0,0,0,-1140071,0,0,4161111
8,72,686.940982064698,0,0,286148.386480312,286149.433547564,0,10,3,1,0,29,0,1081161,8442503,0,7393432,0,1081161,0,0,0,0,0,0,0,0,0,2140141,1171100,0,2001171,0,0,3130091,0,0,0,0,0,0,0,0,0,0,-3161121,0,1191161,0,0,3041150,0,0
8,73,937.743818154559,1,0,286155.774799288,286156.821860765,0,10,4,1,1,29,0,1081161,8442503,0,7393432,0,1081161,0,0,0,0,0,0,0,0,0,2140141,1171100,0,2001171,0,0,3130091,0,0,0,0,0,0,0,0,0,0,-3161121,0,1191161,0,0,3041150,0,0
8,74,625.981258985121,0,0,286158.939583367,286159.986608658,0,10,4,1,0,9,20,200348005,90145409,128255296,105080206,30310909,40511009,41511809,30611719,3031100,10700509,40610909,0,-3060041,4061131,0,30910709,0,0,2150041,31611509,21412019,0,0,0,21500719,1030140,20912019,2090171,41410319,10910719,30401209,0,21811609,11011619,11612019,21411419,20000809,4021201,11201409,4010121
8,75,1708.22277886327,0,0,286161.763096475,286162.810163342,0,10,4,1,0,18,20,169344813,59326708,128926277,161719696,11110719,1100011,22000409,20001119,20000509,21910409,20200209,41211019,11810409,0,1161090,0,1081001,11011819,2201080,10510009,31310509,-2051200,41900919,31811519,10602009,4200021,0,0,0,40411809,0,32001309,2041191,42001819,0,4171140,0,10101809,30901119,40501309
8,76,793.147861608304,0,0,286165.657267242,286166.704319095,0,10,4,0,0,2,0,5161231,0,5220261,12312173,2070200,-3091031,0,0,0,0,0,0,0,0,0,0,0,0,0,0,0,0,0,4110091,0,0,1110170,0,0,0,0,0,0,0,3020021,2121101,4151050,0,0,3020001
8,77,1355.97233561566,1,0,286168.598484473,286169.645539406,0,10,4,0,1,25,20,229554505,178918904,138055446,59564080,41610119,40100409,41601409,30810409,40900709,30411109,2080151,2040190,0,0,11500219,12000219,40201019,31101109,32001609,30712009,20211519,1191201,31811009,20501209,11310219,0,1170161,41201219,-1150020,0,30911609,0,2171050,21510319,0,0,30601509,0,3151091,2130111
8,78,1607.18592506601,0,0,286172.11616034,286173.163218738,0,10,4,0,0,6,5,43672559,11900909,33311149,29422701,0,0,1070181,0,0,-2090140,0,30200619,10311619,11900909,0,0,0,0,0,0,0,0,3110130,0,30201019,0,0,0,0,0,0,0,2160180,4100001,0,11901209,4160160,0,4100140,3001011
8,79,1584.97637230903,1,0,286175.86914706,286176.916198529,0,10,4,0,1,33,20,131345875,189245355,122644916,103758547,2041050,0,22010709,41711119,1190160,12001309,40310919,1080190,11000419,0,0,0,31200309,3021190,41210009,41611819,40200619,32001409,40010709,0,1010151,11011319,30000009,0,20610809,0,20001919,11710819,11701719,41901719,2061180,3151071,-1020001,21510819,10701219,0
8,80,540.404052415397,1,0,286179.692722146,286180.739778619,0,10,4,0,1,16,0,5310222,4181050,5231301,9322281,0,4190131,0,0,1120091,0,0,0,0,0,0,0,0,0,0,-4181050,0,0,1190190,0,0,0,0,0,4041111,0,0,0,2070170,0,4131060,0,0,3121051,0,0
8,81,565.006522461772,0,0,286182.42215426,286183.469213042,0,10,4,1,0,4,10,29731440,83215636,87754617,54220648,4040010,0,0,-4061141,0,1120070,0,20510219,0,0,0,21601709,0,30611609,0,10501109,0,20501209,20211509,2011070,20810709,40411119,0,1160080,3150130,0,0,0,11100319,1030180,40010109,0,2080040,0,0,0
8,82,1281.70759178465,0,0,286185.116323179,286186.163423922,0,10,4,1,0,7,5,49392330,35202210,5311302,75933938,1100110,40211919,0,4060140,0,0,-4020161,0,0,0,30011009,0,2021131,0,0,3170070,0,0,0,0,0,0,4200171,1111131,0,0,0,0,0,41700319,0,11401009,2131091,0,20701519,0
8,83,1179.05467184028,0,0,286188.634020219,286189.68104628,0,10,4,1,0,34,0,2010140,3222132,4061240,7122431,0,2010140,0,0,0,0,0,0,0,0,0,2041101,0,0,1181031,0,0,0,0,0,1060050,0,3001190,0,0,0,0,0,0,0,0,2041101,4060190,-1021140,0,0
8,84,887.624980707187,1,0,286192.057560043,286193.10462537,0,10,4,0,1,27,0,5192221,4141021,7463380,2212191,0,0,0,0,3111080,0,0,2081141,0,0,0,0,0,0,0,0,0,4141021,0,0,0,0,2171180,0,0,2191160,-3101040,0,0,0,0,1041051,0,1171140,0,0
8,85,545.164864568505,1,0,286194.99876765,286196.045831822,0,10,4,0,1,10,5,48492459,41764929,25440949,22631969,21410919,0,0,0,0,3011001,3070120,21000419,0,-2181170,3030120,30411519,0,0,0,0,3071110,3071010,0,4130140,0,0,21310809,0,0,0,0,0,0,0,0,0,0,21510919,0,1121050
8,86,1645.03490179777,1,0,286197.681154839,286198.728211312,0,10,4,1,1,1,10,112686106,14260930,115412886,9093211,-4021181,31410309,20600709,0,11501709,3130170,30310219,0,11711809,1140110,10010709,0,0,3110111,0,0,0,0,41610809,21200519,0,0,31100719,0,1200030,20300809,0,0,0,0,3021080,2031061,0,0,0,4041070
8,87,1412.45034319581,1,0,286201.457663059,286202.50473108,0,10,4,0,1,30,5,18521462,40001470,26052240,73941389,0,3000151,1120161,0,0,10201119,0,4200031,0,0,0,1050010,0,0,0,30801219,4080181,4070060,0,0,0,0,22011109,0,4041131,0,0,0,41800419,-1140051,0,31000919,0,0,0,0
8,88,832.408875168767,0,0,286205.069465731,286206.116526823,0,10,4,1,0,22,5,19872311,102512327,42942370,4180190,0,2050100,11501009,4190031,0,0,2131171,0,0,41100809,30200809,31210709,0,0,0,0,0,0,0,0,0,-3120170,3091180,4070111,0,1050100,31610809,0,0,0,4180190,0,0,0,0,0
8,89,1013.69353610789,0,0,286207.975378577,286209.022453913,0,10,4,0,0,11,20,137428856,184815364,172786527,111755609,10611509,0,41201109,1031001,0,20011519,40901809,2061190,21610719,40310209,-2091170,10801219,20300319,0,0,31001309,40000719,40310419,31911419,0,40201919,0,4040111,30101109,40610509,21801309,4120151,0,20710509,1101001,3141141,31511519,0,11101019,41010309,3180111
8,90,693.770959449466,1,0,286211.140183444,286212.187184098,0,10,4,0,1,5,10,125653977,48752241,27012039,115353317,0,0,1021070,40400209,-2120170,0,0,40701409,41411119,41411919,0,2090101,1060171,4190050,0,0,0,0,4040031,1071080,0,10000009,0,11900919,0,0,0,0,42001519,20010519,1131151,0,0,0,22010119,30200009
8,91,800.577223242726,0,0,286214.081337542,286215.128400559,0,10,4,0,0,12,10,87596086,17251931,86596557,44883038,2071030,21711219,31211209,0,0,21301809,0,11300819,0,0,1191111,-1130051,3140140,0,10610519,0,0,1180110,30011409,31302009,0,1001080,0,4081140,0,0,20200919,0,0,0,0,3071010,30410509,0,0,11401519
8,92,838.122465764172,0,0,286217.11666002,286218.163724577,0,10,4,1,0,14,10,18182599,18273702,174156884,61724721,0,0,0,0,4161180,0,2021010,12000409,0,2131011,0,0,10900619,-4141001,0,0,0,1101071,10210819,41110919,40411509,41210209,10301519,0,0,0,30911909,4021091,0,0,0,4021141,31602019,20010419,2070051,0
8,93,1464.48282158235,0,0,286220.093160848,286221.140231564,0,10,4,1,0,19,0,4110150,5131211,4090332,9191221,4110150,0,0,0,0,0,0,0,0,3000090,0,0,2131121,0,0,0,0,0,-1070161,0,0,3020171,0,0,0,0,0,2010130,4040010,0,0,3141081,0,0,0,0
8,94,665.419354569167,1,0,286223.728493874,286224.775567285,0,10,4,1,1,28,5,44900650,41570909,74523279,30294030,0,0,0,0,0,40710419,1040060,0,3150171,0,40410709,0,0,0,0,0,0,1160200,0,1111030,0,0,40210419,0,1191121,0,32010709,-3171090,4141110,0,21901719,1080111,0,0,0,0
8,95,1209.13898595609,0,0,286226.469709257,286227.51677112,0,10,4,1,0,24,20,108744528,139296955,118696757,175706825,1140051,2070021,0,11210809,42001819,21211509,0,31110319,0,20501409,41011319,2060071,31402019,10710009,11900119,0,0,21712009,4080160,11101009,21200109,21601319,40900709,-4061131,11711209,4041111,0,40510519,2120120,1130120,0,20011409,0,41711219,40211719,30011719
8,96,593.982533959206,1,0,286229.916810616,286230.963873634,0,10,4,0,1,15,10,102912947,14273322,46365219,97695846,40010619,21800709,41101619,0,0,0,0,0,0,0,4161060,0,3020110,4071021,-3021131,0,0,0,20011319,1031181,11510009,3011001,10801709,0,0,0,0,2030030,21110019,0,41911409,1131150,11501719,0,0,20011519
8,97,1250.4930322757,1,0,286236.505107572,286237.552180984,0,10,5,0,1,33,10,78433459,108953088,5121350,89993067,0,4140121,0,30911419,0,2170181,30000919,0,11210819,31510719,0,41501509,0,31600619,0,3180081,0,1160160,0,0,0,0,4101200,1020150,0,0,0,42001019,0,20910019,0,10610419,-1140200,4130191,0,11201219
8,98,623.834716679994,1,0,286239.928685892,286240.975772392,0,10,5,1,1,28,5,44900650,41570909,74523279,30294030,0,0,0,0,0,40710419,1040060,0,3150171,0,40410709,0,0,0,0,0,0,1160200,0,1111030,0,0,40210419,0,1191121,0,32010709,-3171090,4141110,0,21901719,1080111,0,0,0,0
8,99,1693.40255181305,0,0,286242.611064612,286243.65812455,0,10,5,0,0,30,0,11280413,2322250,2010190,5171271,4090191,0,3150181,0,0,0,4040041,0,0,0,1201150,0,1121100,0,0,0,0,0,0,0,0,0,0,0,0,0,2010190,0,0,-2100081,0,0,3071190,0,0,0
8,100,1354.66962773353,0,0,286246.422874907,286247.469936769,0,10,5,1,0,9,20,200348005,90145409,128255296,105080206,30310909,40511009,41511809,30611719,3031100,10700509,40610909,0,-3060041,4061131,0,30910709,0,0,2150041,31611509,21412019,0,0,0,21500719,1030140,20912019,2090171,41410319,10910719,30401209,0,21811609,11011619,11612019,21411419,20000809,4021201,11201409,4010121
8,101,1700.81382023636,0,0,286249.940559243,286250.987618026,0,10,5,1,0,1,10,112686106,14260930,115412886,9093211,-4021181,31410309,20600709,0,11501709,3130170,30310219,0,11711809,1140110,10010709,0,0,3110111,0,0,0,0,41610809,21200519,0,0,31100719,0,1200030,20300809,0,0,0,0,3021080,2031061,0,0,0,4041070
8,102,1355.22127681179,0,0,286253.752360298,286254.799421776,0,10,5,0,0,15,5,66022129,87956811,34160499,2051000,20101909,0,0,0,0,41910209,0,4010011,0,3181160,3081141,0,0,41111709,-3020020,3080031,30401709,4081041,0,0,4160090,0,0,30000409,0,0,0,0,0,0,0,0,0,0,2051000,0
8,103,1206.07161702355,0,0,286257.246514666,286258.293591542,0,10,5,0,0,11,10,106444217,36673861,64114527,68683549,0,0,1000020,31612019,40100919,30600019,0,1051060,2080180,2191071,-1121160,0,0,3060111,30301519,0,0,0,12000909,0,12012009,0,40101609,0,0,0,0,10402019,31911019,0,0,0,20310419,2060091,4000001,0
8,104,802.267586812377,1,0,286260.623051527,286261.670090676,0,10,5,1,1,29,0,1081161,8442503,0,7393432,0,1081161,0,0,0,0,0,0,0,0,0,2140141,1171100,0,2001171,0,0,3130091,0,0,0,0,0,0,0,0,0,0,-3161121,0,1191161,0,0,3041150,0,0
8,105,927.244007994886,1,0,286263.623059226,286264.670126863,0,10,5,1,1,7,5,49392330,35202210,5311302,75933938,1100110,40211919,0,4060140,0,0,-4020161,0,0,0,30011009,0,2021131,0,0,3170070,0,0,0,0,0,0,4200171,1111131,0,0,0,0,0,41700319,0,11401009,2131091,0,20701519,0
8,106,1569.95134596946,0,0,286266.611342554,286267.658391328,0,10,5,0,0,5,5,55543268,5431322,35161801,57793479,0,11600219,0,0,-3041130,0,40901919,0,0,0,3081151,0,1160011,0,0,0,0,1190160,0,0,31000609,0,0,0,0,1010141,3151051,0,2120121,0,0,2161130,0,31500819,22011409,0
8,107,1922.36616765149,0,0,286270.340781982,286271.387853083,0,10,5,0,0,2,20,86973947,217349712,125107938,89217665,0,-2011070,41300909,31710009,10810909,0,1141050,0,0,11901419,11511709,40411709,20410609,30701019,31501309,40610619,30301319,0,0,4150120,41400109,1150030,4091111,11112019,40102009,3101031,20001509,21501619,0,10610619,0,2011190,2091200,21201009,10300719,21501309
8,108,880.663346673828,1,0,286274.352595664,286275.399659836,0,10,5,1,1,22,5,19872311,102512327,42942370,4180190,0,2050100,11501009,4190031,0,0,2131171,0,0,41100809,30200809,31210709,0,0,0,0,0,0,0,0,0,-3120170,3091180,4070111,0,1050100,31610809,0,0,0,4180190,0,0,0,0,0
8,109,1022.33706455445,0,0,286277.293795186,286278.340863593,0,10,5,0,0,27,0,2170061,1090191,11351292,4351021,0,0,0,0,0,0,0,2170061,0,1090191,0,0,0,0,0,0,0,0,3131001,3040031,0,0,4150150,0,0,0,-1030110,0,0,3170010,0,1181011,0,0,0,0
8,110,987.612815923058,1,0,286280.564430826,286281.611491149,0,10,5,1,1,14,10,18182599,18273702,174156884,61724721,0,0,0,0,4161180,0,2021010,12000409,0,2131011,0,0,10900619,-4141001,0,0,0,1101071,10210819,41110919,40411509,41210209,10301519,0,0,0,30911909,4021091,0,0,0,4021141,31602019,20010419,2070051,0
8,111,1421.11812415533,0,0,286283.787985741,286284.835063386,0,10,5,1,0,24,20,108744528,139296955,118696757,175706825,1140051,2070021,0,11210809,42001819,21211509,0,31110319,0,20501409,41011319,2060071,31402019,10710009,11900119,0,0,21712009,4080160,11101009,21200109,21601319,40900709,-4061131,11711209,4041111,0,40510519,2120120,1130120,0,20011409,0,41711219,40211719,30011719
8,112,975.255184108391,0,0,286287.446857974,286288.493923686,0,10,5,1,0,34,0,2010140,3222132,4061240,7122431,0,2010140,0,0,0,0,0,0,0,0,0,2041101,0,0,1181031,0,0,0,0,0,1060050,0,3001190,0,0,0,0,0,0,0,0,2041101,4060190,-1021140,0,0
8,113,993.602808506694,1,0,286290.576301867,286291.623400301,0,10,5,0,1,25,5,39651620,31222318,45131930,49762841,30500119,0,0,4050201,4061150,0,1040150,0,0,0,20310909,0,0,0,0,10911409,0,0,0,0,0,0,0,0,-2100160,2020061,41011709,0,0,3150101,4191150,40311519,0,0,0,2110071
8,114,1360.08679837687,1,0,286293.693987128,286294.741042446,0,10,5,1,1,18,20,169344813,59326708,128926277,161719696,11110719,1100011,22000409,20001119,20000509,21910409,20200209,41211019,11810409,0,1161090,0,1081001,11011819,2201080,10510009,31310509,-2051200,41900919,31811519,10602009,4200021,0,0,0,40411809,0,32001309,2041191,42001819,0,4171140,0,10101809,30901119,40501309
8,115,558.543412887957,1,0,286297.211669155,286298.258737562,0,10,5,0,1,16,20,59076389,100474236,127938903,177657625,11701819,0,0,1031031,20902009,2131030,3000081,20310419,0,10610709,0,2170000,21600209,31901509,0,-3181090,0,31010719,10200709,40901909,11610919,0,0,11611509,10300919,11701119,31611819,20700409,2180090,31601819,41800419,41501909,4040081,4020180,10301709,21511009
8,116,1102.95173944905,1,0,286299.988182379,286301.035241161,0,10,5,0,1,6,10,35753909,48192559,162605375,37642412,0,0,0,11601119,1141180,-2110001,0,0,20901609,0,2061171,20500019,0,0,3201130,0,21400209,1030030,30500909,0,40100419,41701119,0,40201719,0,10101209,0,0,0,31301309,0,0,4181001,0,1030011,1130091
8,117,690.353661018889,0,0,286303.16467851,286304.211749997,0,10,5,0,0,12,0,10152311,5150322,0,6222201,0,0,4041061,3060130,0,0,0,0,3051120,0,2100121,-3050201,0,0,0,0,0,0,0,0,0,0,0,0,0,0,0,0,0,0,0,1060100,0,3081070,2081031,0
8,118,1377.40195746301,0,0,286306.023533344,286307.070602135,0,10,5,1,0,19,0,4110150,5131211,4090332,9191221,4110150,0,0,0,0,0,0,0,0,3000090,0,0,2131121,0,0,0,0,0,-1070161,0,0,3020171,0,0,0,0,0,2010130,4040010,0,0,3141081,0,0,0,0
8,119,879.119653254747,1,0,286309.517696566,286310.564759968,0,10,5,0,1,10,20,178067173,170767216,169234964,69883730,41610109,0,11801409,31111209,30911409,0,10311009,20611409,31710619,-4030070,30111309,21300809,0,31111209,1080021,41211109,40901519,1021170,21811109,30100609,20710009,30200719,41510319,4001090,0,0,20901109,1140050,4040171,0,0,2020090,1081001,30501009,31101409,0
8,120,900.678236968815,1,0,286312.494195084,286313.541259256,0,10,5,1,1,4,10,29731440,83215636,87754617,54220648,4040010,0,0,-4061141,0,1120070,0,20510219,0,0,0,21601709,0,30611609,0,10501109,0,20501209,20211509,2011070,20810709,40411119,0,1160080,3150130,0,0,0,11100319,1030180,40010109,0,2080040,0,0,0
8,121,1099.69766443828,0,0,286325.859053769,286326.906119481,0,10,6,1,0,7,5,49392330,35202210,5311302,75933938,1100110,40211919,0,4060140,0,0,-4020161,0,0,0,30011009,0,2021131,0,0,3170070,0,0,0,0,0,0,4200171,1111131,0,0,0,0,0,41700319,0,11401009,2131091,0,20701519,0
8,122,626.218010031153,0,0,286329.094382329,286330.141441112,0,10,6,0,0,2,5,75933408,3141281,7212332,65242329,40500309,-1080070,0,10201909,0,3151011,0,0,21000109,2040100,0,0,0,1101181,0,0,0,0,0,0,1041161,0,0,0,2030030,0,4141141,0,0,0,0,2030001,41311219,21901109,0,0
8,123,1115.16924545867,0,0,286331.941469291,286332.988535003,0,10,6,0,0,6,10,119593589,16711851,71843800,84412866,0,0,0,41801609,0,-3161201,30100609,4020161,40510009,0,10410509,0,0,1060020,1101151,0,0,4140171,3190170,0,4191051,3151051,0,30701019,0,0,30610509,21200709,0,31910219,0,0,0,20301719,11000219,0
8,124,839.624198444653,0,0,286335.117974661,286336.165038449,0,10,6,1,0,9,20,200348005,90145409,128255296,105080206,30310909,40511009,41511809,30611719,3031100,10700509,40610909,0,-3060041,4061131,0,30910709,0,0,2150041,31611509,21412019,0,0,0,21500719,1030140,20912019,2090171,41410319,10910719,30401209,0,21811609,11011619,11612019,21411419,20000809,4021201,11201409,4010121
8,125,1148.9641983062,1,0,286338.141537737,286339.188599599,0,10,6,1,1,1,10,112686106,14260930,115412886,9093211,-4021181,31410309,20600709,0,11501709,3130170,30310219,0,11711809,1140110,10010709,0,0,3110111,0,0,0,0,41610809,21200519,0,0,31100719,0,1200030,20300809,0,0,0,0,3021080,2031061,0,0,0,4041070
8,126,789.309415908065,1,0,286341.506289017,286342.553354345,0,10,6,1,1,19,0,4110150,5131211,4090332,9191221,4110150,0,0,0,0,0,0,0,0,3000090,0,0,2131121,0,0,0,0,0,-1070161,0,0,3020171,0,0,0,0,0,2010130,4040010,0,0,3141081,0,0,0,0
8,127,755.848224216606,1,0,286344.482786381,286345.529851323,0,10,6,0,1,10,5,6181161,49613988,57124149,39540180,0,0,0,0,0,3040031,3141130,0,0,-4071080,3040180,0,31200909,0,0,0,11301819,0,31411009,2161140,20400819,3151181,0,0,0,0,0,0,0,4070000,4070071,0,0,0,0,31400109
8,128,872.765872569289,1,0,286347.341702423,286348.388703847,0,10,6,1,1,34,0,2010140,3222132,4061240,7122431,0,2010140,0,0,0,0,0,0,0,0,0,2041101,0,0,1181031,0,0,0,0,0,1060050,0,3001190,0,0,0,0,0,0,0,0,2041101,4060190,-1021140,0,0
8,129,1673.86039358098,0,0,286350.294675977,286351.341689719,0,10,6,0,0,5,20,158787956,146844536,168507544,100584818,0,11111319,31010909,31101819,-1041051,41700609,0,2021040,40801209,41210119,0,2100151,40601919,31110009,0,0,11411519,20410819,10310419,2040071,40011509,3121180,40210619,10610109,11201909,10100519,40901209,11111209,40811819,0,0,40401509,0,4150110,2000090,2110081
8,130,1052.92298283894,0,0,286354.106422753,286355.153480381,0,10,6,0,0,25,0,4100251,5031291,2320140,2122100,0,0,3020080,0,0,0,0,1080171,0,0,0,1000191,0,4031100,0,0,0,0,0,1200000,0,0,0,0,-1120140,0,0,0,0,0,1011050,0,1111050,0,0,0
8,131,663.970361521933,0,0,286357.212345146,286358.259400079,0,10,6,1,0,14,10,18182599,18273702,174156884,61724721,0,0,0,0,4161180,0,2021010,12000409,0,2131011,0,0,10900619,-4141001,0,0,0,1101071,10210819,41110919,40411509,41210209,10301519,0,0,0,30911909,4021091,0,0,0,4021141,31602019,20010419,2070051,0
8,132,606.202734750696,0,0,286359.977061241,286361.024144277,0,10,6,1,0,4,10,29731440,83215636,87754617,54220648,4040010,0,0,-4061141,0,1120070,0,20510219,0,0,0,21601709,0,30611609,0,10501109,0,20501209,20211509,2011070,20810709,40411119,0,1160080,3150130,0,0,0,11100319,1030180,40010109,0,2080040,0,0,0
8,133,623.855119629297,0,0,286362.812396885,286363.859459132,0,10,6,0,0,16,0,5272232,4120232,5280071,3150131,0,0,0,1141081,0,4131151,0,0,0,0,0,0,0,0,0,-2090121,2030111,0,0,4190000,0,0,1090071,0,0,0,0,0,0,0,0,0,2040030,0,1110101,0
8,134,627.237386594061,0,0,286365.518310193,286366.565380525,0,10,6,0,0,11,10,62832437,50983381,88555447,56473519,31111419,10910409,0,20810609,0,0,0,0,0,0,-4121120,0,0,1061061,0,0,4091181,41710019,1100201,1201070,4040040,0,10401109,40501609,0,11211009,20100409,3030020,0,0,21400709,0,0,1141181,0,30901609
8,135,1380.25798281888,0,0,286368.388938673,286369.435999765,0,10,6,0,0,33,5,46232050,72852919,27842350,17052451,0,0,0,4160201,0,1171030,0,40900819,0,2141081,0,0,40411019,30300819,0,0,0,0,1201141,0,0,0,3091180,21510009,0,2040020,0,10010319,0,0,0,0,-4041071,0,0,3001061
8,136,819.54848440364,1,0,286371.953676788,286373.000748274,0,10,6,0,1,15,0,4140171,9281381,2110131,3171280,0,0,0,4140171,0,0,0,0,0,1091030,0,0,0,4030050,-1130121,3030180,0,0,0,0,0,0,0,0,0,2110131,0,0,0,1171150,0,0,0,0,2000130,0
8,137,2650.63993335934,1,0,286374.965482001,286376.012541553,0,10,6,1,1,18,20,169344813,59326708,128926277,161719696,11110719,1100011,22000409,20001119,20000509,21910409,20200209,41211019,11810409,0,1161090,0,1081001,11011819,2201080,10510009,31310509,-2051200,41900919,31811519,10602009,4200021,0,0,0,40411809,0,32001309,2041191,42001819,0,4171140,0,10101809,30901119,40501309
8,138,735.061102255713,1,0,286379.730243136,286380.777298454,0,10,6,1,1,29,0,1081161,8442503,0,7393432,0,1081161,0,0,0,0,0,0,0,0,0,2140141,1171100,0,2001171,0,0,3130091,0,0,0,0,0,0,0,0,0,0,-3161121,0,1191161,0,0,3041150,0,0
8,139,584.055545681622,1,0,286382.683217075,286383.730337067,0,10,6,1,1,28,5,44900650,41570909,74523279,30294030,0,0,0,0,0,40710419,1040060,0,3150171,0,40410709,0,0,0,0,0,0,1160200,0,1111030,0,0,40210419,0,1191121,0,32010709,-3171090,4141110,0,21901719,1080111,0,0,0,0
8,140,754.082408268005,1,0,286385.342064286,286386.389126534,0,10,6,1,1,24,20,108744528,139296955,118696757,175706825,1140051,2070021,0,11210809,42001819,21211509,0,31110319,0,20501409,41011319,2060071,31402019,10710009,11900119,0,0,21712009,4080160,11101009,21200109,21601319,40900709,-4061131,11711209,4041111,0,40510519,2120120,1130120,0,20011409,0,41711219,40211719,30011719
8,141,745.238315139432,0,0,286388.247979828,286389.295039765,0,10,6,1,0,22,5,19872311,102512327,42942370,4180190,0,2050100,11501009,4190031,0,0,2131171,0,0,41100809,30200809,31210709,0,0,0,0,0,0,0,0,0,-3120170,3091180,4070111,0,1050100,31610809,0,0,0,4180190,0,0,0,0,0
8,142,1254.79458610062,1,0,286391.083312776,286392.130404281,0,10,6,0,1,27,20,94787258,158395185,167468504,116375886,0,3161040,4111151,2200011,0,21901809,42000009,11001319,10411919,31311719,30011419,1051080,0,2040130,40300319,40710419,11810009,1160090,0,40011619,31201819,0,21611619,20401919,20600219,30610309,-3031000,10110519,0,21401709,2031001,0,21511319,40210619,0,21110719
8,143,1980.4028821527,1,0,286394.565696578,286395.612774994,0,10,6,0,1,12,10,62824539,23602128,83213037,124605370,0,0,3011190,4081081,0,11700609,2030050,42001609,0,0,0,-2190010,10911009,0,0,0,10501109,0,21300819,0,0,0,40100509,0,21811709,0,0,30911409,4050131,0,2040061,40400509,1191041,4011010,42001209,0
8,144,1064.22620656667,1,0,286398.659871503,286399.706924896,0,10,6,0,1,30,20,120114716,108753426,111386207,165979217,31900809,0,0,0,40702009,4001151,11000619,20810119,11700009,0,10111909,3040161,41000609,0,0,21700619,11800109,21100019,4071021,0,20301819,41210909,30400509,10100809,3120110,2181030,0,21500619,21811109,-4110191,41811719,12010519,1081201,30111109,30411719,3131031
8,145,618.533804256003,0,0,286412.648244142,286413.695317553,0,10,7,1,0,22,5,19872311,102512327,42942370,4180190,0,2050100,11501009,4190031,0,0,2131171,0,0,41100809,30200809,31210709,0,0,0,0,0,0,0,0,0,-3120170,3091180,4070111,0,1050100,31610809,0,0,0,4180190,0,0,0,0,0
8,146,601.755665731616,1,0,286415.354172849,286416.401231246,0,10,7,0,1,11,0,5260271,8182272,8142410,0,3100191,0,0,0,0,2160080,0,0,0,0,-2121121,4010071,0,0,2051080,0,0,0,0,0,3091140,2010190,0,0,3041080,0,0,0,0,0,0,0,0,0,0,0
8,147,611.443593283184,1,0,286418.189495788,286419.236557651,0,10,7,1,1,14,10,18182599,18273702,174156884,61724721,0,0,0,0,4161180,0,2021010,12000409,0,2131011,0,0,10900619,-4141001,0,0,0,1101071,10210819,41110919,40411509,41210209,10301519,0,0,0,30911909,4021091,0,0,0,4021141,31602019,20010419,2070051,0
8,148,1363.33163431846,0,0,286421.036584675,286422.083643843,0,10,7,0,0,33,5,8061202,56091859,55463288,28082710,0,0,0,4021031,4040171,0,0,0,0,0,3190141,0,11000309,0,0,41901409,0,0,41800219,0,0,11501719,0,0,1020180,1141170,0,0,0,3091120,0,2040100,-2150081,0,0,20801409
8,149,1362.7753657056,0,0,286424.613086427,286425.660158684,0,10,7,0,0,2,20,148315435,160679206,132595145,118885556,30700419,-2050050,21010109,3130120,40610809,0,30511909,0,20302019,10810309,41510919,1071191,2131060,3141080,31501919,30010909,0,40501819,21811909,11010709,1140190,0,11910419,0,40900509,4010200,41811209,0,0,41010719,41811919,0,10200019,10411509,11300319,4151071
8,150,1068.85959673673,1,0,286428.083716985,286429.130781928,0,10,7,1,1,34,0,2010140,3222132,4061240,7122431,0,2010140,0,0,0,0,0,0,0,0,0,2041101,0,0,1181031,0,0,0,0,0,1060050,0,3001190,0,0,0,0,0,0,0,0,2041101,4060190,-1021140,0,0
8,151,1443.11941304477,1,0,286431.236698547,286432.283751555,0,10,7,1,1,1,10,112686106,14260930,115412886,9093211,-4021181,31410309,20600709,0,11501709,3130170,30310219,0,11711809,1140110,10010709,0,0,3110111,0,0,0,0,41610809,21200519,0,0,31100719,0,1200030,20300809,0,0,0,0,3021080,2031061,0,0,0,4041070
8,152,975.685955490917,1,0,286434.777917857,286435.824975484,0,10,7,0,1,5,20,160146524,159035967,158337594,118971219,30510019,20210019,21710009,20001809,-2201170,3090160,41311719,21111619,0,0,31801209,3161120,2071191,0,40200619,0,40601309,41200519,0,21201019,30511519,42001709,32000319,10911609,0,21711419,0,4160071,31900019,31410309,11210109,4050181,0,31010319,1100041,4130170
8,153,1261.49483158952,1,0,286437.872061599,286438.919133086,0,10,7,0,1,12,20,205636694,112216898,190120444,97876847,40900919,30100919,40711019,0,41701219,0,31511809,20710809,0,0,4090010,-1190111,2061181,41701419,10511409,1151130,10910019,40601619,20211519,31601709,40002019,41910919,30701609,3081010,21601509,1010150,0,21311919,10501509,0,2021090,40500019,3131201,0,20411109,0
8,154,677.231881709304,1,0,286441.213276367,286442.260337459,0,10,7,0,1,15,10,43472578,29961540,134332456,49744048,0,30211519,0,0,0,3160050,0,10101009,0,0,0,21600119,0,1130160,-3131101,4100160,0,0,0,30910109,0,0,40501719,21210209,41710419,0,0,0,0,20800519,1050020,11410519,2000180,1161160,11200519,2121131
8,155,2117.95212823199,1,0,286443.954485206,286445.001551303,0,10,7,1,1,18,20,169344813,59326708,128926277,161719696,11110719,1100011,22000409,20001119,20000509,21910409,20200209,41211019,11810409,0,1161090,0,1081001,11011819,2201080,10510009,31310509,-2051200,41900919,31811519,10602009,4200021,0,0,0,40411809,0,32001309,2041191,42001819,0,4171140,0,10101809,30901119,40501309
8,156,840.242445759941,0,0,286448.166294191,286449.213360673,0,10,7,1,0,9,20,200348005,90145409,128255296,105080206,30310909,40511009,41511809,30611719,3031100,10700509,40610909,0,-3060041,4061131,0,30910709,0,0,2150041,31611509,21412019,0,0,0,21500719,1030140,20912019,2090171,41410319,10910719,30401209,0,21811609,11011619,11612019,21411419,20000809,4021201,11201409,4010121
8,157,635.387780086603,0,0,286451.225157802,286452.272213505,0,10,7,1,0,28,5,44900650,41570909,74523279,30294030,0,0,0,0,0,40710419,1040060,0,3150171,0,40410709,0,0,0,0,0,0,1160200,0,1111030,0,0,40210419,0,1191121,0,32010709,-3171090,4141110,0,21901719,1080111,0,0,0,0
8,158,1415.50500836456,0,0,286453.978120654,286455.025185211,0,10,7,0,0,25,0,7532221,6182282,7221373,0,0,4191160,1140010,0,0,0,2201051,0,0,0,0,3131171,3051111,0,0,0,0,0,0,0,0,2010181,0,1141061,-4070131,0,0,0,0,0,0,0,0,0,0,0
8,159,969.821460195817,0,0,286457.507622907,286458.554636265,0,10,7,1,0,29,0,1081161,8442503,0,7393432,0,1081161,0,0,0,0,0,0,0,0,0,2140141,1171100,0,2001171,0,0,3130091,0,0,0,0,0,0,0,0,0,0,-3161121,0,1191161,0,0,3041150,0,0
8,160,621.067617263179,0,0,286460.625261587,286461.672320755,0,10,7,1,0,4,10,29731440,83215636,87754617,54220648,4040010,0,0,-4061141,0,1120070,0,20510219,0,0,0,21601709,0,30611609,0,10501109,0,20501209,20211509,2011070,20810709,40411119,0,1160080,3150130,0,0,0,11100319,1030180,40010109,0,2080040,0,0,0
8,161,523.389932757709,0,0,286463.437052249,286464.484119886,0,10,7,0,0,16,5,11811679,33059609,52812238,4051230,0,0,0,0,1001070,0,10810609,0,0,0,0,11302019,10101919,3011100,1181200,-3191030,1121160,3151181,41200919,0,0,0,0,11611319,0,0,0,0,0,0,0,3030070,0,1021160,0,0
8,162,1222.39742643433,0,0,286466.142962862,286467.19002742,0,10,7,1,0,19,0,4110150,5131211,4090332,9191221,4110150,0,0,0,0,0,0,0,0,3000090,0,0,2131121,0,0,0,0,0,-1070161,0,0,3020171,0,0,0,0,0,2010130,4040010,0,0,3141081,0,0,0,0
8,163,1516.38595305849,1,0,286469.448886334,286470.495943962,0,10,7,0,1,30,5,51512818,6263241,18851251,79223239,0,0,0,0,0,0,40401609,11111209,0,3151100,2081090,0,0,0,0,0,1031051,0,4151001,0,0,0,0,0,3100141,0,11600109,0,0,-1171000,40900809,30911219,0,4090041,0,2150170
8,164,1484.1035118443,1,0,286473.14304024,286474.190107876,0,10,7,0,1,6,10,75425510,35391891,75873749,118536585,32000719,0,0,4051070,0,-1031061,3031101,31201519,4110040,0,4010091,0,30310719,1071081,0,0,0,0,4041001,0,0,40601909,0,30110819,0,1120020,0,21411719,11710809,31611819,0,0,11800519,42001719,0,0
8,165,852.692468208261,1,0,286476.825437823,286477.87254665,0,10,7,1,1,7,5,49392330,35202210,5311302,75933938,1100110,40211919,0,4060140,0,0,-4020161,0,0,0,30011009,0,2021131,0,0,3170070,0,0,0,0,0,0,4200171,1111131,0,0,0,0,0,41700319,0,11401009,2131091,0,20701519,0
8,166,972.84378868062,0,0,286479.931402947,286480.978417844,0,10,7,0,0,27,10,34832889,76682867,40043681,106655795,1151020,1150010,0,30411709,0,0,0,2120150,0,0,0,0,20801709,31200719,0,0,21610309,3070130,30700419,0,1181141,4161060,0,0,0,0,-4001061,20711809,2110010,20110219,0,20811319,0,11810919,31101519,0
8,167,568.555092613678,0,0,286483.072567361,286484.119635768,0,10,7,0,0,10,0,4070131,9251312,9332230,2100060,0,0,0,0,0,0,0,4070131,0,-4060130,2161031,0,0,3030151,0,0,0,0,0,0,4171050,0,3051150,0,0,2110030,0,0,2100060,0,0,0,0,0,0,0
8,168,1493.67248645285,1,0,286485.719643621,286486.766725117,0,10,7,1,1,24,20,108744528,139296955,118696757,175706825,1140051,2070021,0,11210809,42001819,21211509,0,31110319,0,20501409,41011319,2060071,31402019,10710009,11900119,0,0,21712009,4080160,11101009,21200109,21601319,40900709,-4061131,11711209,4041111,0,40510519,2120120,1130120,0,20011409,0,41711219,40211719,30011719
8,169,1826.45737874554,0,0,286498.025670262,286499.072742518,0,10,8,0,0,6,10,57615800,85352179,68033578,58936078,21401709,0,4201001,0,0,-1001181,31011909,0,0,0,0,41500019,20101009,1011001,20700019,0,2040131,0,31700919,1150100,32001509,0,0,0,3181050,0,0,10310419,0,0,20511409,0,0,20812019,4161170,3141061
8,170,2233.93778613536,0,0,286502.061010063,286503.10807616,0,10,8,1,0,1,10,112686106,14260930,115412886,9093211,-4021181,31410309,20600709,0,11501709,3130170,30310219,0,11711809,1140110,10010709,0,0,3110111,0,0,0,0,41610809,21200519,0,0,31100719,0,1200030,20300809,0,0,0,0,3021080,2031061,0,0,0,4041070
8,171,1663.27396716224,0,0,286506.425760189,286507.472830905,0,10,8,0,0,25,0,6192322,0,11433151,4310251,3051191,0,0,0,0,3141131,0,0,0,0,0,0,0,0,0,0,0,0,0,0,3101031,0,4111000,1201040,-3020080,0,0,0,0,0,0,0,2200101,2110150,0,0
8,172,764.109101437498,0,0,286510.319932111,286511.366989739,0,10,8,1,0,7,5,49392330,35202210,5311302,75933938,1100110,40211919,0,4060140,0,0,-4020161,0,0,0,30011009,0,2021131,0,0,3170070,0,0,0,0,0,0,4200171,1111131,0,0,0,0,0,41700319,0,11401009,2131091,0,20701519,0
8,173,878.629597951658,1,0,286513.308196191,286514.355264983,0,10,8,0,1,12,5,1060020,84053989,11221311,63973818,0,1060020,0,0,0,0,0,0,0,0,4120000,-4160111,4060121,10100719,0,0,31111619,30501419,4041101,0,0,0,4070100,3110110,0,0,0,0,0,21212019,40600619,0,0,0,0,2161180
8,174,873.630494927056,1,0,286516.367051718,286517.41416093,0,10,8,1,1,22,5,19872311,102512327,42942370,4180190,0,2050100,11501009,4190031,0,0,2131171,0,0,41100809,30200809,31210709,0,0,0,0,0,0,0,0,0,-3120170,3091180,4070111,0,1050100,31610809,0,0,0,4180190,0,0,0,0,0
8,175,492.61653854046,1,0,286519.355324652,286520.40238228,0,10,8,1,1,4,10,29731440,83215636,87754617,54220648,4040010,0,0,-4061141,0,1120070,0,20510219,0,0,0,21601709,0,30611609,0,10501109,0,20501209,20211509,2011070,20810709,40411119,0,1160080,3150130,0,0,0,11100319,1030180,40010109,0,2080040,0,0,0
8,176,994.039739191066,0,0,286521.931820629,286522.978883647,0,10,8,1,0,34,0,2010140,3222132,4061240,7122431,0,2010140,0,0,0,0,0,0,0,0,0,2041101,0,0,1181031,0,0,0,0,0,1060050,0,3001190,0,0,0,0,0,0,0,0,2041101,4060190,-1021140,0,0
8,177,1075.95096254954,1,0,286525.037742638,286526.084797956,0,10,8,0,1,33,10,119513987,77925779,14010860,73112880,31510309,32000509,4090041,0,0,0,20001719,31911409,0,40900519,2101061,1191180,0,0,1021191,0,10910909,21800919,0,10910809,0,3100051,0,0,0,0,0,0,20311119,0,4171161,4040091,-3190190,0,0,41400319
8,178,622.73218849441,1,0,286528.226055146,286529.273071968,0,10,8,1,1,28,5,44900650,41570909,74523279,30294030,0,0,0,0,0,40710419,1040060,0,3150171,0,40410709,0,0,0,0,0,0,1160200,0,1111030,0,0,40210419,0,1191121,0,32010709,-3171090,4141110,0,21901719,1080111,0,0,0,0
8,179,1230.16632359941,1,0,286531.096632426,286532.143683894,0,10,8,0,1,2,5,8322121,77965829,47521921,32982138,0,-4151111,0,0,0,4171010,0,0,0,40702019,4091100,0,1040120,1131071,0,31001519,0,0,3050091,0,0,0,0,3170121,41301709,0,0,20900519,0,0,10000609,0,0,2081010,0,0
8,180,521.019343170337,1,0,286534.390780711,286535.437853738,0,10,8,0,1,5,10,88074707,5021221,37250720,54535166,10510209,41710109,12011319,0,-1151081,1091080,0,21600909,0,0,0,3000160,0,0,0,2021061,0,0,0,10000319,0,21000009,0,2040091,0,2190111,2020190,20010609,11300619,0,10811319,0,0,1101110,0,11311509
8,181,636.486843635794,0,0,286536.979054184,286538.026106808,0,10,8,0,0,11,20,113034955,109274536,158636156,115948626,0,0,0,30000309,0,10311219,11711509,30011309,31000609,2180150,-2160201,10210019,0,31312009,21400619,11001119,31010419,0,30310819,40211809,0,3161150,30610819,0,12011519,2030021,40300019,12001919,10100209,4051110,21310919,21610319,1021160,40701809,2091031,3060150
8,182,693.591567629483,0,0,286539.684982506,286540.73202743,0,10,8,1,0,29,0,1081161,8442503,0,7393432,0,1081161,0,0,0,0,0,0,0,0,0,2140141,1171100,0,2001171,0,0,3130091,0,0,0,0,0,0,0,0,0,0,-3161121,0,1191161,0,0,3041150,0,0
8,183,890.836710052099,0,0,286542.543815397,286543.590906131,0,10,8,1,0,19,0,4110150,5131211,4090332,9191221,4110150,0,0,0,0,0,0,0,0,3000090,0,0,2131121,0,0,0,0,0,-1070161,0,0,3020171,0,0,0,0,0,2010130,4040010,0,0,3141081,0,0,0,0
8,184,1036.19373438414,0,0,286545.567382322,286546.61443841,0,10,8,1,0,24,20,108744528,139296955,118696757,175706825,1140051,2070021,0,11210809,42001819,21211509,0,31110319,0,20501409,41011319,2060071,31402019,10710009,11900119,0,0,21712009,4080160,11101009,21200109,21601319,40900709,-4061131,11711209,4041111,0,40510519,2120120,1130120,0,20011409,0,41711219,40211719,30011719
8,185,1736.77610326558,0,0,286548.802727051,286549.849774285,0,10,8,0,0,30,20,109430799,208665434,214145304,103844270,0,41000309,31310209,4020061,0,1090001,0,0,32010219,4041141,20000009,11800119,40810819,40001709,30501109,0,21200009,40310519,41810519,41210209,31610519,20500119,2130011,11011009,3051180,31011719,31810019,21800019,0,-3191081,0,0,3201161,31301509,40300409,4050091
8,186,831.088844046462,1,0,286552.673341287,286553.720402764,0,10,8,1,1,18,20,169344813,59326708,128926277,161719696,11110719,1100011,22000409,20001119,20000509,21910409,20200209,41211019,11810409,0,1161090,0,1081001,11011819,2201080,10510009,31310509,-2051200,41900919,31811519,10602009,4200021,0,0,0,40411809,0,32001309,2041191,42001819,0,4171140,0,10101809,30901119,40501309
8,187,1031.44254616927,0,0,286555.696900128,286556.743968149,0,10,8,0,0,27,0,1000020,13550474,2071151,6071270,0,0,0,1000020,0,0,0,0,0,0,4050011,0,0,4150071,4150191,0,0,1200201,0,0,0,0,0,0,0,0,-2071151,0,0,0,2060070,0,4011200,0,0,0
8,188,625.845752772875,1,0,286558.920467361,286559.967526528,0,10,8,0,1,16,20,111166675,134177298,127627055,139266474,3151140,0,31011009,21500019,21511519,10711719,2070060,21211209,0,32000009,40810419,4100080,41301719,0,1011051,-3101170,1151031,10701819,10212009,30411519,0,4170180,31811119,0,30011919,21010309,0,31711209,31310209,0,2020100,20410309,20601819,21601519,0,11611309
8,189,957.730221329257,1,0,286561.708732673,286562.75579492,0,10,8,1,1,14,10,18182599,18273702,174156884,61724721,0,0,0,0,4161180,0,2021010,12000409,0,2131011,0,0,10900619,-4141001,0,0,0,1101071,10210819,41110919,40411509,41210209,10301519,0,0,0,30911909,4021091,0,0,0,4021141,31602019,20010419,2070051,0
8,190,501.282779674511,1,0,286564.838180415,286565.885240738,0,10,8,1,1,9,20,200348005,90145409,128255296,105080206,30310909,40511009,41511809,30611719,3031100,10700509,40610909,0,-3060041,4061131,0,30910709,0,0,2150041,31611509,21412019,0,0,0,21500719,1030140,20912019,2090171,41410319,10910719,30401209,0,21811609,11011619,11612019,21411419,20000809,4021201,11201409,4010121
8,191,852.279405109584,1,0,286567.497034171,286568.544096033,0,10,8,0,1,15,5,47512710,38231391,46491911,50401518,0,4120090,2151100,0,40211419,0,1030101,0,0,0,3150130,31800219,0,0,-1111001,0,2170041,0,0,0,3190121,0,3000071,40301719,0,0,0,30301109,0,0,0,0,0,0,20100409,0
8,192,850.011215079576,1,0,286570.591185228,286571.63825248,0,10,8,0,1,10,0,1010151,3041151,8411252,10241153,0,0,0,0,1010151,0,0,0,0,-3041151,0,0,0,0,0,0,0,0,3190061,0,0,1030051,0,0,0,0,4191140,4111021,0,0,3010111,0,0,0,0,3120021
8,193,730.527032050304,1,0,286581.473654337,286582.520724669,0,10,9,1,1,28,5,44900650,41570909,74523279,30294030,0,0,0,0,0,40710419,1040060,0,3150171,0,40410709,0,0,0,0,0,0,1160200,0,1111030,0,0,40210419,0,1191121,0,32010709,-3171090,4141110,0,21901719,1080111,0,0,0,0
8,194,914.173813420348,1,0,286584.403101387,286585.450160554,0,10,9,0,1,27,5,47221299,51193910,53123068,21611509,1100200,0,0,0,3070180,2140100,0,40910819,0,4121030,0,1051040,0,41000519,0,3000161,0,2021160,0,0,0,31710909,0,0,20401019,0,-1011140,0,0,0,0,21611509,0,0,0,0
8,195,614.115222357214,1,0,286587.509013001,286588.556079483,0,10,9,1,1,9,20,200348005,90145409,128255296,105080206,30310909,40511009,41511809,30611719,3031100,10700509,40610909,0,-3060041,4061131,0,30910709,0,0,2150041,31611509,21412019,0,0,0,21500719,1030140,20912019,2090171,41410319,10910719,30401209,0,21811609,11011619,11612019,21411419,20000809,4021201,11201409,4010121
8,196,740.350465814117,0,0,286590.379637246,286591.426704498,0,10,9,1,0,34,0,2010140,3222132,4061240,7122431,0,2010140,0,0,0,0,0,0,0,0,0,2041101,0,0,1181031,0,0,0,0,0,1060050,0,3001190,0,0,0,0,0,0,0,0,2041101,4060190,-1021140,0,0
8,197,667.443864280358,0,0,286593.226727288,286594.273793,0,10,9,0,0,10,10,68552320,45140608,126675306,80835860,0,0,0,4020151,0,4020051,0,30311009,30201109,-4140090,10600409,0,0,30400109,0,0,0,0,0,41201319,20300019,2160040,40111719,0,21902019,0,1000190,1131181,0,0,2040120,31901709,0,41611719,4151131,0
8,198,1322.4260675488,1,0,286596.038531423,286597.085597905,0,10,9,1,1,19,0,4110150,5131211,4090332,9191221,4110150,0,0,0,0,0,0,0,0,3000090,0,0,2131121,0,0,0,0,0,-1070161,0,0,3020171,0,0,0,0,0,2010130,4040010,0,0,3141081,0,0,0,0
8,199,1285.64766724594,0,0,286599.450353805,286600.497393725,0,10,9,0,0,33,20,228020622,139325625,118352136,61695277,40111409,20401419,40111219,30010919,10501009,41301519,31610309,10811619,3161200,0,10211209,30101609,0,31310609,30400709,30100319,4201140,3000030,1160080,31210019,40510009,3061100,0,0,12000809,30410119,0,31201719,10210309,10011909,0,0,-4110080,4160160,2001100,0
8,200,1011.1019788892,1,0,286602.979783685,286604.026840158,0,10,9,1,1,18,20,169344813,59326708,128926277,161719696,11110719,1100011,22000409,20001119,20000509,21910409,20200209,41211019,11810409,0,1161090,0,1081001,11011819,2201080,10510009,31310509,-2051200,41900919,31811519,10602009,4200021,0,0,0,40411809,0,32001309,2041191,42001819,0,4171140,0,10101809,30901119,40501309
8,201,1316.36254739715,1,0,286606.144523494,286607.191584202,0,10,9,0,1,2,20,176899247,68916647,157667784,115675965,2091051,-1181021,30510919,40110909,0,41901619,40901719,20202009,0,0,0,1131071,0,21911809,3150130,20010109,11101719,11611809,2121200,0,21611609,0,21310119,40011619,20201009,11810509,40601719,4090090,21311409,0,21900609,11911309,2031030,41300119,10100219,3031180
8,202,904.399654595181,1,0,286609.650445349,286610.697509906,0,10,9,0,1,30,0,4391051,2201261,4121151,12280310,0,0,0,3201040,0,1190011,0,0,0,0,0,1001080,0,0,0,0,0,1200181,0,0,0,0,0,0,0,4121151,0,0,4130020,-4000110,0,4150180,0,0,0,0
8,203,1025.4190620617,1,0,286612.744594866,286613.791655573,0,10,9,0,1,25,20,145038884,114984447,126465530,150879945,40802019,10312009,20710619,40011319,0,1080200,20311609,11811109,0,0,0,41100019,30411019,0,1160081,22001809,20311519,0,41801209,0,3011041,3050011,11100709,2020131,-3060111,41811409,20610909,30311809,30601709,0,41600709,2080071,21910819,10202019,2161000,12011809
8,204,782.077924231999,1,0,286615.991686293,286617.03875162,0,10,9,1,1,7,5,49392330,35202210,5311302,75933938,1100110,40211919,0,4060140,0,0,-4020161,0,0,0,30011009,0,2021131,0,0,3170070,0,0,0,0,0,0,4200171,1111131,0,0,0,0,0,41700319,0,11401009,2131091,0,20701519,0
8,205,1218.75646564877,1,0,286618.968185197,286620.015255913,0,10,9,0,1,11,5,43701119,47723409,80185609,33790609,41500909,0,1150160,1050050,0,0,0,0,0,2141010,-4081090,41501309,0,0,0,0,0,0,3091030,0,4001110,31701619,0,0,1180031,40211819,0,0,0,0,0,0,30700609,0,3090000,0
8,206,584.230702894274,0,0,286622.356465676,286623.403530233,0,10,9,1,0,22,5,19872311,102512327,42942370,4180190,0,2050100,11501009,4190031,0,0,2131171,0,0,41100809,30200809,31210709,0,0,0,0,0,0,0,0,0,-3120170,3091180,4070111,0,1050100,31610809,0,0,0,4180190,0,0,0,0,0
8,207,1865.62407680321,0,0,286625.027104242,286626.074148396,0,10,9,0,0,12,10,39312432,117203528,82822747,110575938,0,1181041,3191151,0,0,30910119,0,4030121,0,40711519,0,-1120061,0,42000909,31311019,0,2060020,0,0,0,0,0,41001319,0,31710409,0,10111019,31501809,0,0,2100100,31410619,0,41501119,3051110,1011181
8,208,1047.18590970151,1,0,286629.109482423,286630.15654852,0,10,9,1,1,24,20,108744528,139296955,118696757,175706825,1140051,2070021,0,11210809,42001819,21211509,0,31110319,0,20501409,41011319,2060071,31402019,10710009,11900119,0,0,21712009,4080160,11101009,21200109,21601319,40900709,-4061131,11711209,4041111,0,40510519,2120120,1130120,0,20011409,0,41711219,40211719,30011719
8,209,773.392435046844,0,0,286632.215392112,286633.262462059,0,10,9,1,0,29,0,1081161,8442503,0,7393432,0,1081161,0,0,0,0,0,0,0,0,0,2140141,1171100,0,2001171,0,0,3130091,0,0,0,0,0,0,0,0,0,0,-3161121,0,1191161,0,0,3041150,0,0
8,210,2245.56553200819,0,0,286635.13307591,286636.180139312,0,10,9,1,0,1,10,112686106,14260930,115412886,9093211,-4021181,31410309,20600709,0,11501709,3130170,30310219,0,11711809,1140110,10010709,0,0,3110111,0,0,0,0,41610809,21200519,0,0,31100719,0,1200030,20300809,0,0,0,0,3021080,2031061,0,0,0,4041070
8,211,780.513442936353,0,0,286639.627245291,286640.674308694,0,10,9,0,0,16,10,74981929,71505651,106544238,75394048,30710419,0,0,0,0,0,4171201,40100309,0,3120181,2151130,0,21611409,2160181,1020141,-1141090,40301519,0,41401609,32001209,0,31101319,0,0,2040101,0,0,21901119,0,0,1071001,21511919,0,0,0,30910009
8,212,669.283977651503,0,0,286642.474334563,286643.521394501,0,10,9,0,0,15,5,7442223,3200342,46174817,38572979,0,0,1131081,0,0,0,4180121,2131021,0,0,0,0,0,0,-2130181,1070161,0,0,0,0,0,10511609,0,0,20511809,11101319,4050080,3140181,3031160,21600819,0,0,0,10800819,0,0
8,213,758.723112638108,0,0,286645.250843937,286646.297900795,0,10,9,0,0,5,0,8432292,8321381,5211110,0,0,0,0,4120151,-2141051,0,0,0,2171090,4050090,0,2120190,0,2151101,0,0,0,0,0,3121100,0,0,0,0,2090010,0,0,0,0,0,0,0,0,0,0,0
8,214,647.403566574212,0,0,286648.086166107,286649.133231434,0,10,9,0,0,6,0,9442542,0,11230362,3020120,0,0,0,0,1120181,-4060071,3101090,1161200,0,0,0,0,0,0,0,0,0,0,4150101,0,0,0,4020071,0,3060190,0,0,0,0,0,0,0,0,0,0,3020120
8,215,681.756712787319,1,0,286650.803848057,286651.850897986,0,10,9,1,1,4,10,29731440,83215636,87754617,54220648,4040010,0,0,-4061141,0,1120070,0,20510219,0,0,0,21601709,0,30611609,0,10501109,0,20501209,20211509,2011070,20810709,40411119,0,1160080,3150130,0,0,0,11100319,1030180,40010109,0,2080040,0,0,0
8,216,841.035465360619,0,0,286653.615684529,286654.662694036,0,10,9,1,0,14,10,18182599,18273702,174156884,61724721,0,0,0,0,4161180,0,2021010,12000409,0,2131011,0,0,10900619,-4141001,0,0,0,1101071,10210819,41110919,40411509,41210209,10301519,0,0,0,30911909,4021091,0,0,0,4021141,31602019,20010419,2070051,0
8,217,1003.25724447612,0,0,286666.498120531,286667.545190477,0,10,10,1,0,1,10,112686106,14260930,115412886,9093211,-4021181,31410309,20600709,0,11501709,3130170,30310219,0,11711809,1140110,10010709,0,0,3110111,0,0,0,0,41610809,21200519,0,0,31100719,0,1200030,20300809,0,0,0,0,3021080,2031061,0,0,0,4041070
8,218,1021.19142073207,0,0,286669.651107866,286670.698175888,0,10,10,1,0,29,0,1081161,8442503,0,7393432,0,1081161,0,0,0,0,0,0,0,0,0,2140141,1171100,0,2001171,0,0,3130091,0,0,0,0,0,0,0,0,0,0,-3161121,0,1191161,0,0,3041150,0,0
8,219,628.487739828415,0,0,286672.874664321,286673.921738887,0,10,10,1,0,9,20,200348005,90145409,128255296,105080206,30310909,40511009,41511809,30611719,3031100,10700509,40610909,0,-3060041,4061131,0,30910709,0,0,2150041,31611509,21412019,0,0,0,21500719,1030140,20912019,2090171,41410319,10910719,30401209,0,21811609,11011619,11612019,21411419,20000809,4021201,11201409,4010121
8,220,1374.16405079421,1,0,286675.709992265,286676.757062212,0,10,10,1,1,18,20,169344813,59326708,128926277,161719696,11110719,1100011,22000409,20001119,20000509,21910409,20200209,41211019,11810409,0,1161090,0,1081001,11011819,2201080,10510009,31310509,-2051200,41900919,31811519,10602009,4200021,0,0,0,40411809,0,32001309,2041191,42001819,0,4171140,0,10101809,30901119,40501309
8,221,2083.26214115368,1,0,286679.168854567,286680.215918354,0,10,10,0,1,2,5,26363270,5111332,14841481,52621847,0,-1041161,0,0,1060150,4150050,0,20111909,0,0,0,2041151,0,2020030,1050151,0,0,0,0,10801119,0,0,0,1030201,3010161,0,0,0,0,20301319,21210319,0,0,0,11110209,0
8,222,1118.54997259798,0,0,286683.486555149,286684.533621246,0,10,10,0,0,33,20,59854770,181227963,228455386,119145237,1120061,0,21410209,0,0,1040041,21611619,10501809,4171031,40801019,11201209,21901619,21111119,0,2091070,31700509,40610409,11811009,31900909,31510119,41900409,1000031,40211919,0,40811519,1010071,40110409,0,1160190,0,21000819,41901719,-3170081,10700809,41211619,0
8,223,772.001571080182,0,0,286686.710194754,286687.757181934,0,10,10,0,0,5,0,5061150,5130230,4191031,8371370,0,0,0,4061140,-1000010,0,0,0,0,4000030,1130200,0,0,0,0,0,0,0,0,0,0,0,4191031,0,0,0,0,0,0,0,0,4130070,0,3140100,1101200,0
8,224,607.102388516068,1,0,286689.663095166,286690.710148174,0,10,10,1,1,14,10,18182599,18273702,174156884,61724721,0,0,0,0,4161180,0,2021010,12000409,0,2131011,0,0,10900619,-4141001,0,0,0,1101071,10210819,41110919,40411509,41210209,10301519,0,0,0,30911909,4021091,0,0,0,4021141,31602019,20010419,2070051,0
8,225,1324.05984186335,0,0,286692.510173659,286693.55724399,0,10,10,1,0,24,20,108744528,139296955,118696757,175706825,1140051,2070021,0,11210809,42001819,21211509,0,31110319,0,20501409,41011319,2060071,31402019,10710009,11900119,0,0,21712009,4080160,11101009,21200109,21601319,40900709,-4061131,11711209,4041111,0,40510519,2120120,1130120,0,20011409,0,41711219,40211719,30011719
8,226,1026.2786798412,0,0,286696.086693504,286697.133751901,0,10,10,0,0,27,5,47793019,19062699,13481299,69484129,4070150,0,0,0,0,0,41611709,2111160,0,0,3011090,4140000,11911609,0,0,0,0,0,0,11310209,0,0,0,0,0,0,-2171090,0,0,4170050,2091090,1001161,0,0,40910509,21311319
8,227,903.53233757196,1,0,286699.192607813,286700.23967006,0,10,10,1,1,34,0,2010140,3222132,4061240,7122431,0,2010140,0,0,0,0,0,0,0,0,0,2041101,0,0,1181031,0,0,0,0,0,1060050,0,3001190,0,0,0,0,0,0,0,0,2041101,4060190,-1021140,0,0
8,228,960.814143589232,1,0,286702.169145982,286703.216203995,0,10,10,0,1,30,20,118335697,204670135,89316247,142669397,31911819,0,0,21111109,21711419,40400209,0,3201141,0,31800919,2090151,4051091,40901009,11111119,40901609,31100509,30812019,11901709,0,31601009,0,10512019,3000121,31101919,12000019,0,1101160,30111719,0,-4080131,1111031,3050070,20601509,21111709,22001609,40601619
8,229,1006.04320690036,0,0,286705.180906539,286706.227971097,0,10,10,0,0,12,20,151427867,121297187,230867412,58834278,41510119,2061071,10911509,41300509,2171141,11111809,1050090,41311619,0,4081110,0,-1091031,0,10310309,30711319,40411309,3080200,31611909,41110419,0,31111909,31910409,32012009,11810119,20000509,41002019,21910019,0,0,10111909,0,11800309,0,31710019,2051011,3161030
8,230,571.504663443193,1,0,286708.404476467,286709.451545259,0,10,10,0,1,10,0,7192161,6323301,0,7502231,0,0,0,3061100,0,4131061,0,0,0,-1171120,1031010,0,4121171,0,0,0,0,0,0,0,0,0,0,0,0,0,0,2170190,0,0,0,3131000,0,0,2201041,0
8,231,1068.48041014746,1,0,286711.204509651,286712.251569204,0,10,10,0,1,6,0,3160112,2131171,3081080,6243173,0,0,0,0,0,-2080071,0,0,1080041,0,0,0,1090110,0,1041061,0,0,0,0,0,0,0,3081080,0,0,0,0,0,0,0,0,4121061,1061001,0,0,1061111
8,232,593.271896010265,1,0,286714.451607238,286715.498661786,0,10,10,0,1,16,10,86663637,80445199,64702389,48391569,4040090,31311819,0,0,0,0,0,10011519,41300209,3040000,4040051,0,40301809,10211419,0,-1051201,21800719,0,40800009,2191190,0,0,0,0,1200171,0,20511019,0,0,0,4080091,3011140,11000119,0,0,30300219
8,233,645.213523646817,0,0,286717.192807223,286718.239866005,0,10,10,1,0,28,5,44900650,41570909,74523279,30294030,0,0,0,0,0,40710419,1040060,0,3150171,0,40410709,0,0,0,0,0,0,1160200,0,1111030,0,0,40210419,0,1191121,0,32010709,-3171090,4141110,0,21901719,1080111,0,0,0,0
8,234,541.771048796363,0,0,286720.039897649,286721.087018411,0,10,10,1,0,22,5,19872311,102512327,42942370,4180190,0,2050100,11501009,4190031,0,0,2131171,0,0,41100809,30200809,31210709,0,0,0,0,0,0,0,0,0,-3120170,3091180,4070111,0,1050100,31610809,0,0,0,4180190,0,0,0,0,0
8,235,1016.75051113125,1,0,286722.734039621,286723.781131126,0,10,10,1,1,19,0,4110150,5131211,4090332,9191221,4110150,0,0,0,0,0,0,0,0,3000090,0,0,2131121,0,0,0,0,0,-1070161,0,0,3020171,0,0,0,0,0,2010130,4040010,0,0,3141081,0,0,0,0
8,236,749.227280670311,0,0,286725.863497373,286726.910555001,0,10,10,0,0,11,10,64654919,109828427,42626762,61331799,0,21301909,0,0,0,0,41211909,2141101,0,41310619,-2091181,0,30601719,0,4111080,11411909,0,20301919,3071171,0,11801619,1071171,4071191,0,20600519,2011091,0,0,20200309,0,0,0,0,1130171,40001319,0
8,237,1880.04663924221,1,0,286728.710600118,286729.757645042,0,10,10,0,1,25,10,63901569,87285119,83324470,67013817,21010409,0,0,41810119,1081041,0,0,0,0,0,20700409,0,0,1111041,31111819,0,3151041,31210809,41201009,0,4161081,0,31700119,0,-1181140,4080090,1001031,0,0,21401909,0,21510009,21101819,3000080,0,0
8,238,535.711763252039,0,0,286732.793038353,286733.840045166,0,10,10,0,0,15,5,56422529,45463218,36862680,6300312,0,0,0,31410609,3090101,20910619,0,0,1011200,0,0,20612019,0,0,-4050180,20801019,0,0,0,4171041,0,0,2191030,0,30500609,0,0,2030051,0,0,0,3140130,0,0,1130131,0
8,239,708.210460143164,1,0,286735.522422731,286736.569488828,0,10,10,1,1,4,10,29731440,83215636,87754617,54220648,4040010,0,0,-4061141,0,1120070,0,20510219,0,0,0,21601709,0,30611609,0,10501109,0,20501209,20211509,2011070,20810709,40411119,0,1160080,3150130,0,0,0,11100319,1030180,40010109,0,2080040,0,0,0
8,240,866.421330953017,0,0,286738.47539975,286739.522467002,0,10,10,1,0,7,5,49392330,35202210,5311302,75933938,1100110,40211919,0,4060140,0,0,-4020161,0,0,0,30011009,0,2021131,0,0,3170070,0,0,0,0,0,0,4200171,1111131,0,0,0,0,0,41700319,0,11401009,2131091,0,20701519,0
8,241,1065.65441173734,0,0,286747.651964405,286748.699035506,0,10,11,0,0,25,5,2202081,43842559,80512129,27782800,0,0,1051060,0,0,0,0,1151021,0,0,0,0,0,1030031,0,0,31800909,11011619,0,3181041,0,41510319,0,0,-4120160,31700609,0,0,0,1110181,0,20401419,3090060,3181140,0,0
8,242,848.034825583454,0,0,286750.828478244,286751.875539337,0,10,11,0,0,27,5,2020181,56291438,53813969,19954179,0,0,2020181,0,0,0,0,0,0,31700219,20511109,0,0,0,0,0,4080110,0,30111309,0,0,0,20401419,0,0,2120131,-1181110,0,0,3120150,1031160,0,1160080,4031070,10611719,0
8,243,1898.3557674801,1,0,286753.746156652,286754.7932189,0,10,11,0,1,12,5,75834577,19001761,22653731,4060090,0,41411519,0,2111130,0,0,0,12001409,20310519,11910609,0,-3050021,4041131,0,0,0,0,0,4091060,11211419,2191100,0,0,3160091,0,2000061,0,0,0,0,0,4060090,0,0,0,0
8,244,600.831374467816,1,0,286757.722669414,286758.769776317,0,10,11,1,1,22,5,19872311,102512327,42942370,4180190,0,2050100,11501009,4190031,0,0,2131171,0,0,41100809,30200809,31210709,0,0,0,0,0,0,0,0,0,-3120170,3091180,4070111,0,1050100,31610809,0,0,0,4180190,0,0,0,0,0
8,245,576.225439726841,1,0,286760.499283498,286761.546235262,0,10,11,1,1,28,5,44900650,41570909,74523279,30294030,0,0,0,0,0,40710419,1040060,0,3150171,0,40410709,0,0,0,0,0,0,1160200,0,1111030,0,0,40210419,0,1191121,0,32010709,-3171090,4141110,0,21901719,1080111,0,0,0,0
8,246,760.091648902744,1,0,286763.299202733,286764.34627037,0,10,11,1,1,7,5,49392330,35202210,5311302,75933938,1100110,40211919,0,4060140,0,0,-4020161,0,0,0,30011009,0,2021131,0,0,3170070,0,0,0,0,0,0,4200171,1111131,0,0,0,0,0,41700319,0,11401009,2131091,0,20701519,0
8,247,681.415637431201,0,0,286766.263938384,286767.311004866,0,10,11,1,0,19,0,4110150,5131211,4090332,9191221,4110150,0,0,0,0,0,0,0,0,3000090,0,0,2131121,0,0,0,0,0,-1070161,0,0,3020171,0,0,0,0,0,2010130,4040010,0,0,3141081,0,0,0,0
8,248,770.574520807713,1,0,286769.075739055,286770.122802457,0,10,11,0,1,10,10,67583968,22011591,144825146,66233588,21510319,11111609,1081121,3170000,0,0,30710919,0,0,-3001021,2080130,2200021,4020000,0,0,10710419,0,0,0,0,41700209,40911709,41811719,0,20401509,0,0,0,22011419,0,0,0,1151160,1060190,42010819,0
8,249,860.503326111939,0,0,286772.075766772,286773.122837103,0,10,11,0,0,11,0,4241162,11432512,4130240,0,0,0,2041151,0,0,2200011,0,0,0,0,-2051201,4070101,0,0,0,4121170,1190040,0,0,0,2100100,2030140,0,0,0,0,0,0,0,0,0,0,0,0,0,0
8,250,1060.75963313924,1,0,286775.028748025,286776.075802188,0,10,11,0,1,2,10,44992228,79356316,39133222,77863708,0,-2181000,0,0,11811009,0,0,31000219,0,1091120,11800709,0,0,21701919,0,10801009,2161040,31800519,2070121,30911909,0,4061081,1060101,1030010,0,0,0,0,0,0,22011109,31201309,0,4051071,20600219,0
8,251,1831.14119875245,0,0,286778.311140757,286779.35820108,0,10,11,1,0,18,20,169344813,59326708,128926277,161719696,11110719,1100011,22000409,20001119,20000509,21910409,20200209,41211019,11810409,0,1161090,0,1081001,11011819,2201080,10510009,31310509,-2051200,41900919,31811519,10602009,4200021,0,0,0,40411809,0,32001309,2041191,42001819,0,4171140,0,10101809,30901119,40501309
8,252,978.934256068897,1,0,286782.252414963,286783.299421006,0,10,11,1,1,29,0,1081161,8442503,0,7393432,0,1081161,0,0,0,0,0,0,0,0,0,2140141,1171100,0,2001171,0,0,3130091,0,0,0,0,0,0,0,0,0,0,-3161121,0,1191161,0,0,3041150,0,0
8,253,1476.04935860727,0,0,286785.464156195,286786.511213823,0,10,11,0,0,6,0,8360171,2000031,1170080,7161201,3170070,0,0,0,4010070,-1180031,0,0,0,0,0,0,0,0,0,0,2000031,0,0,0,0,0,0,0,0,1170080,0,0,0,0,2081020,4060150,0,0,0,1020031
8,254,1431.40235624742,1,0,286789.193605632,286790.240665954,0,10,11,1,1,1,10,112686106,14260930,115412886,9093211,-4021181,31410309,20600709,0,11501709,3130170,30310219,0,11711809,1140110,10010709,0,0,3110111,0,0,0,0,41610809,21200519,0,0,31100719,0,1200030,20300809,0,0,0,0,3021080,2031061,0,0,0,4041070
8,255,487.282134476118,0,0,286792.840711149,286793.887775706,0,10,11,1,0,9,20,200348005,90145409,128255296,105080206,30310909,40511009,41511809,30611719,3031100,10700509,40610909,0,-3060041,4061131,0,30910709,0,0,2150041,31611509,21412019,0,0,0,21500719,1030140,20912019,2090171,41410319,10910719,30401209,0,21811609,11011619,11612019,21411419,20000809,4021201,11201409,4010121
8,256,938.272369559854,1,0,286795.440733245,286796.487797803,0,10,11,1,1,34,0,2010140,3222132,4061240,7122431,0,2010140,0,0,0,0,0,0,0,0,0,2041101,0,0,1181031,0,0,0,0,0,1060050,0,3001190,0,0,0,0,0,0,0,0,2041101,4060190,-1021140,0,0
8,257,1132.70691194339,0,0,286798.617262099,286799.664361687,0,10,11,1,0,24,20,108744528,139296955,118696757,175706825,1140051,2070021,0,11210809,42001819,21211509,0,31110319,0,20501409,41011319,2060071,31402019,10710009,11900119,0,0,21712009,4080160,11101009,21200109,21601319,40900709,-4061131,11711209,4041111,0,40510519,2120120,1130120,0,20011409,0,41711219,40211719,30011719
8,258,574.201315059327,0,0,286801.84080123,286802.887869636,0,10,11,0,0,5,0,7092132,1171101,3051100,11453472,0,0,4021081,0,-3071051,0,0,0,0,0,0,0,0,0,0,0,0,1171101,0,3051100,0,0,0,0,0,0,0,0,0,0,0,1031201,3180100,0,3191151,4051020
8,259,972.469991596881,1,0,286804.499663839,286805.546719542,0,10,11,0,1,30,20,161670322,111436368,98853667,125557138,11811909,30500519,21600809,41501109,3021120,10310619,10710409,21002009,11211819,30201419,41311409,11211209,4150081,0,3051131,0,0,21511119,41910819,0,11900809,0,11410019,31501919,0,0,2130101,31610219,20501309,-3091010,3071110,2100041,0,3081021,31101309,31001119
8,260,1385.26824972359,0,0,286807.64086367,286808.687925918,0,10,11,1,0,14,10,18182599,18273702,174156884,61724721,0,0,0,0,4161180,0,2021010,12000409,0,2131011,0,0,10900619,-4141001,0,0,0,1101071,10210819,41110919,40411509,41210209,10301519,0,0,0,30911909,4021091,0,0,0,4021141,31602019,20010419,2070051,0
8,261,1540.93645338435,0,0,286811.135023427,286812.18213572,0,10,11,0,0,33,20,194737494,132985427,162917886,121164668,0,20101509,31500319,40311719,41501319,0,31311319,30011309,0,2050170,31910019,20001419,30811219,4200011,21910809,20000609,0,2101171,30510919,4011110,0,20611709,31810419,4071001,40901609,0,31001119,2040151,0,30311119,20601009,31201819,-1110170,31710209,4190191,0
8,262,530.591397488024,0,0,286814.876246895,286815.923305293,0,10,11,0,0,15,20,121596708,136057196,112045777,257140303,40400509,0,20810709,30011809,3061201,3120191,4181170,20011119,0,11601619,40301009,10710809,3071161,4010180,-4041190,0,20810319,41510909,31601719,0,21401709,30110519,0,20700719,4180031,4051080,0,42010719,30611719,41001709,0,40900409,20602019,0,41801919,40211809
8,263,546.719721925911,0,0,286817.629213597,286818.676280849,0,10,11,1,0,4,10,29731440,83215636,87754617,54220648,4040010,0,0,-4061141,0,1120070,0,20510219,0,0,0,21601709,0,30611609,0,10501109,0,20501209,20211509,2011070,20810709,40411119,0,1160080,3150130,0,0,0,11100319,1030180,40010109,0,2080040,0,0,0
8,264,516.778998193331,1,0,286820.39394817,286821.44103467,0,10,11,0,1,16,10,144265608,6213391,123654457,61522518,4061061,0,41710309,0,31910409,21011219,40311319,2201171,3060120,4141140,1001200,0,0,0,0,-1071051,0,0,0,30100809,0,0,40000909,31110509,20211019,1201090,1030121,0,40510809,21011709,0,0,0,0,0,0
8,265,491.947091417387,1,0,286830.558764971,286831.605831068,0,10,12,0,1,10,20,175755274,72174379,203828475,129144745,41210609,0,21111709,20901019,0,20211009,41510619,30810309,0,-1171010,0,3171161,0,10110419,21210219,1000050,31311419,4200101,41902019,3110021,31110419,41811119,31600209,2100170,2071000,10011609,40111909,0,2110170,21800309,41401419,20911519,11410909,31510419,0,0
8,266,897.214358265046,1,0,286833.229390448,286834.276452695,0,10,12,1,1,7,5,49392330,35202210,5311302,75933938,1100110,40211919,0,4060140,0,0,-4020161,0,0,0,30011009,0,2021131,0,0,3170070,0,0,0,0,0,0,4200171,1111131,0,0,0,0,0,41700319,0,11401009,2131091,0,20701519,0
8,267,1082.34362432268,1,0,286836.229418935,286837.276485802,0,10,12,0,1,30,0,6100231,2172151,0,14312342,2090121,0,0,0,0,0,0,4010110,0,0,0,0,0,1111050,0,0,1061101,0,0,0,0,0,0,0,0,0,0,0,3020061,-4160081,0,4101000,0,0,0,3031200
8,268,1018.59601394972,0,0,286839.441214062,286840.488279004,0,10,12,0,0,33,0,1010091,7201130,2190121,12551682,0,0,0,0,0,0,1010091,0,0,0,0,3050040,0,0,0,0,0,4151090,2190121,0,0,0,0,0,0,0,0,0,4180111,0,2070171,0,-2150200,0,0,4151200
8,269,555.055666598491,0,0,286842.58243545,286843.629495773,0,10,12,0,0,27,10,71225260,68582739,105122997,33290510,0,21211409,2030181,0,21011319,4181041,21611219,1180091,0,11600119,2111001,3060091,0,20701319,0,31110209,0,0,20211119,0,41110019,41800719,0,0,0,0,-2001140,2130080,0,1060111,0,30100319,0,0,0,0
8,270,761.032108508516,1,0,286845.276576653,286846.32363505,0,10,12,1,1,19,0,4110150,5131211,4090332,9191221,4110150,0,0,0,0,0,0,0,0,3000090,0,0,2131121,0,0,0,0,0,-1070161,0,0,3020171,0,0,0,0,0,2010130,4040010,0,0,3141081,0,0,0,0
8,271,1403.58007274335,1,0,286848.206022163,286849.253110972,0,10,12,0,1,5,5,43310818,9393424,76395329,1190131,0,0,0,0,-1010080,0,11900519,0,30400219,0,0,1121171,0,0,1070161,4031081,3171011,0,0,4020191,0,40801809,20411219,10011109,1151001,0,0,0,0,0,0,0,0,0,0,1190131
8,272,429.728546005208,0,0,286851.758992021,286852.806065047,0,10,12,1,0,14,10,18182599,18273702,174156884,61724721,0,0,0,0,4161180,0,2021010,12000409,0,2131011,0,0,10900619,-4141001,0,0,0,1101071,10210819,41110919,40411509,41210209,10301519,0,0,0,30911909,4021091,0,0,0,4021141,31602019,20010419,2070051,0
8,273,1086.32912515895,0,0,286854.394321967,286855.441391529,0,10,12,1,0,29,0,1081161,8442503,0,7393432,0,1081161,0,0,0,0,0,0,0,0,0,2140141,1171100,0,2001171,0,0,3130091,0,0,0,0,0,0,0,0,0,0,-3161121,0,1191161,0,0,3041150,0,0
8,274,548.06285072118,0,0,286857.547296599,286858.594364236,0,10,12,0,0,15,20,97034577,131875928,172299185,139198295,21301909,0,20710519,11200709,0,0,0,2120021,41701419,1081000,30400309,3051160,22001519,41701709,-1040011,31600219,1000001,0,4180010,21301209,10911509,41101219,0,30201909,31701519,1091191,31810619,10711009,21210909,0,3141021,21800509,30011519,21211819,0,31111509
8,275,1869.43865497597,1,0,286860.206153819,286861.253221071,0,10,12,0,1,12,20,162585335,88974818,219058723,139904196,0,31410809,21901509,0,30700019,31710909,1170030,4091150,41600909,21300519,0,-3071131,30002019,20501019,11900019,1050001,1150110,0,0,22011909,30210309,41601319,10601409,41610209,2111140,30911309,40001119,30011309,3190050,0,40711919,3190200,0,41400609,21400109,0
8,276,1062.31680023484,1,0,286864.265102506,286865.312086992,0,10,12,1,1,9,20,200348005,90145409,128255296,105080206,30310909,40511009,41511809,30611719,3031100,10700509,40610909,0,-3060041,4061131,0,30910709,0,0,2150041,31611509,21412019,0,0,0,21500719,1030140,20912019,2090171,41410319,10910719,30401209,0,21811609,11011619,11612019,21411419,20000809,4021201,11201409,4010121
8,277,967.044351797085,1,0,286867.406234584,286868.453298756,0,10,12,1,1,34,0,2010140,3222132,4061240,7122431,0,2010140,0,0,0,0,0,0,0,0,0,2041101,0,0,1181031,0,0,0,0,0,1060050,0,3001190,0,0,0,0,0,0,0,0,2041101,4060190,-1021140,0,0
8,278,699.037995364051,1,0,286870.559213835,286871.606278008,0,10,12,1,1,24,20,108744528,139296955,118696757,175706825,1140051,2070021,0,11210809,42001819,21211509,0,31110319,0,20501409,41011319,2060071,31402019,10710009,11900119,0,0,21712009,4080160,11101009,21200109,21601319,40900709,-4061131,11711209,4041111,0,40510519,2120120,1130120,0,20011409,0,41711219,40211719,30011719
8,279,983.072586357594,1,0,286873.312175918,286874.359243554,0,10,12,0,1,2,5,68463689,9202282,11171392,74421347,4121101,-1030160,32011219,0,0,0,0,0,31301209,0,0,0,0,0,4021050,2151051,3030181,0,0,0,4101171,0,0,4060110,0,0,3010111,0,0,10511109,0,0,0,32010119,0,31900119
8,280,1704.28847783478,0,0,286876.523982208,286877.571044456,0,10,12,1,0,1,10,112686106,14260930,115412886,9093211,-4021181,31410309,20600709,0,11501709,3130170,30310219,0,11711809,1140110,10010709,0,0,3110111,0,0,0,0,41610809,21200519,0,0,31100719,0,1200030,20300809,0,0,0,0,3021080,2031061,0,0,0,4041070
8,281,589.993953472003,1,0,286880.359316697,286881.406432839,0,10,12,1,1,4,10,29731440,83215636,87754617,54220648,4040010,0,0,-4061141,0,1120070,0,20510219,0,0,0,21601709,0,30611609,0,10501109,0,20501209,20211509,2011070,20810709,40411119,0,1160080,3150130,0,0,0,11100319,1030180,40010109,0,2080040,0,0,0
8,282,1412.79565315926,0,0,286883.15940724,286884.206410973,0,10,12,1,0,18,20,169344813,59326708,128926277,161719696,11110719,1100011,22000409,20001119,20000509,21910409,20200209,41211019,11810409,0,1161090,0,1081001,11011819,2201080,10510009,31310509,-2051200,41900919,31811519,10602009,4200021,0,0,0,40411809,0,32001309,2041191,42001819,0,4171140,0,10101809,30901119,40501309
8,283,1103.69047953282,0,0,286886.653519262,286887.700566881,0,10,12,0,0,25,0,2180010,8232413,13432523,0,2180010,0,0,0,0,0,0,0,0,2131161,0,4100081,2001171,0,0,0,0,0,3071091,0,0,0,2050041,4201200,-4110191,0,0,0,0,0,0,0,0,0,0,0
8,284,1974.13302288624,0,0,286889.830010004,286890.877078026,0,10,12,0,0,6,10,50204180,74293330,97704637,77884918,41801809,3131061,0,0,0,-2101110,0,3170200,0,1031191,0,1150201,0,0,41611319,30500619,0,0,30801219,0,10000909,20011619,4090050,30800709,2000131,0,0,3181181,0,21102019,0,21700309,0,0,31901409,0
8,285,1093.16911152564,1,0,286893.935946256,286894.983004654,0,10,12,1,1,22,5,19872311,102512327,42942370,4180190,0,2050100,11501009,4190031,0,0,2131171,0,0,41100809,30200809,31210709,0,0,0,0,0,0,0,0,0,-3120170,3091180,4070111,0,1050100,31610809,0,0,0,4180190,0,0,0,0,0
8,286,909.774479572661,0,0,286897.171277511,286898.218334754,0,10,12,1,0,28,5,44900650,41570909,74523279,30294030,0,0,0,0,0,40710419,1040060,0,3150171,0,40410709,0,0,0,0,0,0,1160200,0,1111030,0,0,40210419,0,1191121,0,32010709,-3171090,4141110,0,21901719,1080111,0,0,0,0
8,287,505.393392813858,0,0,286900.159541591,286901.206599989,0,10,12,0,0,16,10,34661699,98577449,76763588,84713189,2121080,0,30410619,2130000,0,0,0,0,0,0,30802009,3141001,20311719,0,0,-1151070,40010609,3161041,0,0,0,11301509,21701519,3060141,40700419,0,0,40002009,0,0,0,10500419,0,2020161,31010519,1180081
8,288,550.717541540507,0,0,286902.865446045,286903.912509833,0,10,12,0,0,11,5,107845798,38322340,32070610,9162120,0,1091171,0,0,41201209,4051100,30001209,0,31501109,0,-4140031,0,30111219,4071090,0,0,0,0,0,0,0,0,0,0,30000419,2070191,0,0,0,0,0,2001010,3080030,4081080,0,0
8,289,1024.4697482558,1,0,286915.524403355,286916.571475227,0,10,13,0,1,12,10,109235888,92285278,76143137,23851799,30610619,0,41611709,0,0,30711409,3121070,0,3181081,0,20601619,-1031080,3180180,3070161,40100919,20111319,4190000,0,0,21710109,40811009,0,0,11601819,0,0,2020200,0,0,21700719,0,0,0,2151080,0,0
8,290,427.340248192195,1,0,286918.712681987,286919.759747314,0,10,13,0,1,15,20,140945503,151895847,124347315,90706796,3110120,10410519,0,11700809,11600819,20900109,41011109,10800909,31411109,0,41110719,30800819,0,40010609,-4111180,31811509,4051011,0,4120090,10400219,32011819,2111010,20501719,3180040,40311309,11711109,0,31111919,30811809,0,10700619,0,0,4071050,11010319,3001080
8,291,948.347567813471,1,0,286921.32447465,286922.371536128,0,10,13,1,1,7,5,49392330,35202210,5311302,75933938,1100110,40211919,0,4060140,0,0,-4020161,0,0,0,30011009,0,2021131,0,0,3170070,0,0,0,0,0,0,4200171,1111131,0,0,0,0,0,41700319,0,11401009,2131091,0,20701519,0
8,292,619.533162913285,1,0,286924.442153366,286925.489216769,0,10,13,0,1,16,0,6281281,9170363,4130091,3301121,0,4100110,0,0,0,2181171,0,0,0,4050031,0,0,3000141,0,0,-2120191,0,0,4130091,0,0,0,0,0,0,0,0,0,0,2151031,0,0,1150090,0,0,0
8,293,776.837065757718,0,0,286927.159838781,286928.206958388,0,10,13,0,0,2,5,24644110,61981449,17471859,29621441,0,-2201131,1041160,0,0,0,0,0,21401819,0,1170011,0,0,0,0,20801419,40010019,0,0,0,0,0,0,0,3060190,4101050,10310619,21100209,3170091,3201041,0,0,0,0,2150100,0
8,294,585.315137985162,0,0,286930.183394542,286931.230466029,0,10,13,1,0,4,10,29731440,83215636,87754617,54220648,4040010,0,0,-4061141,0,1120070,0,20510219,0,0,0,21601709,0,30611609,0,10501109,0,20501209,20211509,2011070,20810709,40411119,0,1160080,3150130,0,0,0,11100319,1030180,40010109,0,2080040,0,0,0
8,295,553.835340309888,0,0,286932.912844364,286933.959923549,0,10,13,1,0,22,5,19872311,102512327,42942370,4180190,0,2050100,11501009,4190031,0,0,2131171,0,0,41100809,30200809,31210709,0,0,0,0,0,0,0,0,0,-3120170,3091180,4070111,0,1050100,31610809,0,0,0,4180190,0,0,0,0,0
8,296,546.619247121271,0,0,286935.654044734,286936.701110061,0,10,13,1,0,14,10,18182599,18273702,174156884,61724721,0,0,0,0,4161180,0,2021010,12000409,0,2131011,0,0,10900619,-4141001,0,0,0,1101071,10210819,41110919,40411509,41210209,10301519,0,0,0,30911909,4021091,0,0,0,4021141,31602019,20010419,2070051,0
8,297,1219.13372742711,0,0,286938.336426533,286939.383496865,0,10,13,0,0,30,5,27910281,43581029,55552949,12752451,0,0,3140011,20600219,0,0,0,0,4170051,0,0,0,31700009,1080011,0,0,10801009,0,0,0,0,0,42001409,10411409,3140131,0,0,0,0,-3191060,0,0,4200100,4170170,0,1191121
8,298,709.657913364936,0,0,286941.713048085,286942.760000619,0,10,13,1,0,34,0,2010140,3222132,4061240,7122431,0,2010140,0,0,0,0,0,0,0,0,0,2041101,0,0,1181031,0,0,0,0,0,1060050,0,3001190,0,0,0,0,0,0,0,0,2041101,4060190,-1021140,0,0
8,299,625.685224018525,1,0,286944.60708758,286945.654154447,0,10,13,0,1,11,20,181437226,46831909,123069116,150719144,3110061,3180171,10610409,40812019,41212009,30502019,30210319,21800219,0,0,-3170191,0,20901609,0,20700019,2060090,0,0,11310219,1121140,10710509,31611819,11411509,20511609,31111019,4101161,1180131,31501919,21211109,0,20111219,0,30601009,21111019,4181150,22001719
8,300,669.331327895634,0,0,286947.395355202,286948.44241745,0,10,13,1,0,9,20,200348005,90145409,128255296,105080206,30310909,40511009,41511809,30611719,3031100,10700509,40610909,0,-3060041,4061131,0,30910709,0,0,2150041,31611509,21412019,0,0,0,21500719,1030140,20912019,2090171,41410319,10910719,30401209,0,21811609,11011619,11612019,21411419,20000809,4021201,11201409,4010121
8,301,531.745125481393,0,0,286950.277761177,286951.324858071,0,10,13,0,0,10,10,44501890,37883539,138546047,82074067,0,0,40501709,0,0,4000181,0,0,0,-4081040,0,0,1040020,0,1040041,0,11411719,20310719,41011409,2121051,0,2190030,1010100,0,20501219,31311519,40400719,0,10001709,0,0,30010509,0,0,41011719,1050130
8,302,1572.9551963741,0,0,286952.877773265,286953.924855531,0,10,13,1,0,1,10,112686106,14260930,115412886,9093211,-4021181,31410309,20600709,0,11501709,3130170,30310219,0,11711809,1140110,10010709,0,0,3110111,0,0,0,0,41610809,21200519,0,0,31100719,0,1200030,20300809,0,0,0,0,3021080,2031061,0,0,0,4041070
8,303,993.179351498839,1,0,286956.607220007,286957.654285719,0,10,13,1,1,19,0,4110150,5131211,4090332,9191221,4110150,0,0,0,0,0,0,0,0,3000090,0,0,2131121,0,0,0,0,0,-1070161,0,0,3020171,0,0,0,0,0,2010130,4040010,0,0,3141081,0,0,0,0
8,304,1493.413407763,1,0,286959.771952886,286960.819025913,0,10,13,0,1,6,5,35832759,26661410,60033980,2200031,0,0,0,20701319,10001219,-4000171,0,0,1130050,0,0,0,0,0,4031160,20600219,0,2030031,0,0,40600209,11101509,0,1100160,3061021,4171081,0,0,0,0,0,0,0,2200031,0,0
8,305,1408.80630270112,0,0,286963.442631873,286964.489655624,0,10,13,0,0,33,10,157225256,15163129,80494911,65724908,0,3111000,40901419,41700109,0,41201909,30310819,0,0,4051110,0,11112019,0,0,0,0,0,0,1171020,0,4101051,1050011,0,0,3160011,30811009,40201809,0,0,21411419,1060011,0,-1150150,10301319,0,31802009
8,306,1303.5772239673,1,0,286966.9367489,286967.983808067,0,10,13,0,1,25,0,4382362,1070051,8232290,6181160,2131130,0,0,1151041,0,0,0,0,1100191,0,0,0,0,1070051,0,0,0,0,0,0,0,0,0,0,-4161130,0,4071160,0,0,4170000,0,0,0,0,0,2011160
8,307,674.72501588054,0,0,286970.348555883,286971.395616206,0,10,13,0,0,27,0,10211472,4080141,6211272,5002250,0,0,2001071,0,0,0,4180201,0,4030200,0,0,0,0,0,0,4080141,0,0,4161081,0,0,0,0,0,0,0,-2050191,0,0,0,0,1001160,0,0,0,4001090
8,308,654.995766642969,1,0,286973.160348084,286974.207407252,0,10,13,0,1,5,20,91304747,198095015,190147586,127663577,10300609,0,21310919,0,-4031160,10900509,4150031,40611519,0,21910309,30010219,20700809,40211219,1060071,40210209,3091170,0,40901009,21010119,11701509,0,40210319,30901119,41201609,3170111,1151181,40801619,0,31110019,0,4101021,40100619,2040200,30101309,20210409,0
8,309,1349.05574197182,1,0,286976.066258236,286977.113312399,0,10,13,1,1,24,20,108744528,139296955,118696757,175706825,1140051,2070021,0,11210809,42001819,21211509,0,31110319,0,20501409,41011319,2060071,31402019,10710009,11900119,0,0,21712009,4080160,11101009,21200109,21601319,40900709,-4061131,11711209,4041111,0,40510519,2120120,1130120,0,20011409,0,41711219,40211719,30011719
8,310,818.08678759262,1,0,286979.466294268,286980.513357671,0,10,13,1,1,18,20,169344813,59326708,128926277,161719696,11110719,1100011,22000409,20001119,20000509,21910409,20200209,41211019,11810409,0,1161090,0,1081001,11011819,2201080,10510009,31310509,-2051200,41900919,31811519,10602009,4200021,0,0,0,40411809,0,32001309,2041191,42001819,0,4171140,0,10101809,30901119,40501309
8,311,670.876561140176,0,0,286982.46633161,286983.513443132,0,10,13,1,0,28,5,44900650,41570909,74523279,30294030,0,0,0,0,0,40710419,1040060,0,3150171,0,40410709,0,0,0,0,0,0,1160200,0,1111030,0,0,40210419,0,1191121,0,32010709,-3171090,4141110,0,21901719,1080111,0,0,0,0
8,312,733.505090058316,0,0,286985.289885523,286986.336948925,0,10,13,1,0,29,0,1081161,8442503,0,7393432,0,1081161,0,0,0,0,0,0,0,0,0,2140141,1171100,0,2001171,0,0,3130091,0,0,0,0,0,0,0,0,0,0,-3161121,0,1191161,0,0,3041150,0,0
8,313,1007.09107064176,0,0,286994.384100869,286995.43117197,0,10,14,1,0,24,20,108744528,139296955,118696757,175706825,1140051,2070021,0,11210809,42001819,21211509,0,31110319,0,20501409,41011319,2060071,31402019,10710009,11900119,0,0,21712009,4080160,11101009,21200109,21601319,40900709,-4061131,11711209,4041111,0,40510519,2120120,1130120,0,20011409,0,41711219,40211719,30011719
8,314,731.858996965457,1,0,286997.63120423,286998.67828996,0,10,14,1,1,18,20,169344813,59326708,128926277,161719696,11110719,1100011,22000409,20001119,20000509,21910409,20200209,41211019,11810409,0,1161090,0,1081001,11011819,2201080,10510009,31310509,-2051200,41900919,31811519,10602009,4200021,0,0,0,40411809,0,32001309,2041191,42001819,0,4171140,0,10101809,30901119,40501309
8,315,1860.31815991737,1,0,287000.548883793,287001.595944885,0,10,14,0,1,15,20,119578975,56853332,179488005,197147213,0,11501519,11102009,0,41600409,10201909,41012019,0,4161110,4190171,0,0,4200121,3120031,-2141201,1100180,30801619,11300009,41602009,1121070,21210909,11801219,30810619,30600319,41301809,1040051,0,0,41201109,30511719,31310619,20901219,20600019,0,40910519,11712009
8,316,725.50791100366,0,0,287004.560689391,287005.607756258,0,10,14,1,0,29,0,1081161,8442503,0,7393432,0,1081161,0,0,0,0,0,0,0,0,0,2140141,1171100,0,2001171,0,0,3130091,0,0,0,0,0,0,0,0,0,0,-3161121,0,1191161,0,0,3041150,0,0
8,317,1075.23339538602,0,0,287007.537200228,287008.584302896,0,10,14,1,0,4,10,29731440,83215636,87754617,54220648,4040010,0,0,-4061141,0,1120070,0,20510219,0,0,0,21601709,0,30611609,0,10501109,0,20501209,20211509,2011070,20810709,40411119,0,1160080,3150130,0,0,0,11100319,1030180,40010109,0,2080040,0,0,0
8,318,758.899424807169,0,0,287010.74899574,287011.796056447,0,10,14,1,0,22,5,19872311,102512327,42942370,4180190,0,2050100,11501009,4190031,0,0,2131171,0,0,41100809,30200809,31210709,0,0,0,0,0,0,0,0,0,-3120170,3091180,4070111,0,1050100,31610809,0,0,0,4180190,0,0,0,0,0
8,319,1772.31492928695,1,0,287013.56079333,287014.607854038,0,10,14,0,1,2,10,89824090,64824037,80738796,23753481,0,-4080140,0,41301119,40301619,2040011,0,2101201,0,0,0,21401909,0,31410819,0,0,0,12011309,4201040,11011319,0,31201909,11111709,0,0,3001000,20211819,0,4101101,0,0,11401209,0,4121101,4130070,0
8,320,630.31553447945,1,0,287017.52553899,287018.572603163,0,10,14,0,1,16,5,64692630,3360141,29182520,52811428,4130201,0,3141100,0,0,11710219,41610919,0,4100191,2200010,0,0,0,0,0,-1160131,0,0,0,0,2171160,0,0,1160171,21710019,4141170,0,0,0,0,0,21601319,0,0,0,31210109
8,321,839.263490051962,0,0,287020.325571789,287021.372627492,0,10,14,0,0,30,0,3091100,4191291,1021170,10253313,0,0,0,0,0,0,0,0,3091100,0,0,1041201,0,3150090,0,0,0,0,0,0,0,0,0,0,1021170,0,0,2021010,3130121,-3081181,0,0,2021001,0,0,0
8,322,774.806396628264,0,0,287023.255039627,287024.302079161,0,10,14,0,0,5,0,5222473,5212081,5071190,2030160,0,1041121,0,3150171,-1031181,0,0,0,0,3121060,0,0,0,2091021,0,0,0,0,0,0,0,0,0,1021100,0,4050090,0,0,0,0,0,2030160,0,0,0,0
8,323,889.913958613761,0,0,287026.266815967,287027.313872055,0,10,14,0,0,6,5,34942220,66413118,18153891,5121101,30802019,0,0,3080010,0,-1060191,0,0,0,31200419,0,0,0,20001119,0,4101161,0,11110419,10801719,1131051,0,0,4081031,0,0,0,2140090,0,0,0,0,0,0,0,1071020,4050081
8,324,1178.17195638781,0,0,287029.219787597,287030.266844455,0,10,14,1,0,7,5,49392330,35202210,5311302,75933938,1100110,40211919,0,4060140,0,0,-4020161,0,0,0,30011009,0,2021131,0,0,3170070,0,0,0,0,0,0,4200171,1111131,0,0,0,0,0,41700319,0,11401009,2131091,0,20701519,0
8,325,1069.77811362594,1,0,287032.655121084,287033.702179097,0,10,14,1,1,34,0,2010140,3222132,4061240,7122431,0,2010140,0,0,0,0,0,0,0,0,0,2041101,0,0,1181031,0,0,0,0,0,1060050,0,3001190,0,0,0,0,0,0,0,0,2041101,4060190,-1021140,0,0
8,326,953.792840591632,1,0,287035.819909398,287036.866921986,0,10,14,0,1,12,20,101574728,143194387,120743368,261870662,11711419,2031140,4191081,40200109,0,0,0,3130170,40310809,41510119,31910119,-4160191,31500309,0,0,20510919,2001011,11601719,0,3101051,0,40111609,0,21700009,30200109,4030081,21600509,31110919,20812009,40800309,21710509,40500909,31111619,3021160,31301319,41501909
8,327,958.5451837047,1,0,287038.914008101,287039.961073813,0,10,14,1,1,19,0,4110150,5131211,4090332,9191221,4110150,0,0,0,0,0,0,0,0,3000090,0,0,2131121,0,0,0,0,0,-1070161,0,0,3020171,0,0,0,0,0,2010130,4040010,0,0,3141081,0,0,0,0
8,328,1308.11899341643,0,0,287042.031692591,287043.078751759,0,10,14,0,0,27,5,25703371,12041769,27092090,63133339,1071160,0,0,0,1031061,2190040,1010201,20400909,0,0,0,0,0,0,0,2031160,10010609,0,0,0,0,21900809,0,0,3111110,0,-2080171,0,40211709,0,0,0,2121011,20800619,0,0
8,329,853.103221568745,1,0,287045.490547964,287046.537607901,0,10,14,0,1,11,10,50032718,22033732,54114008,147376765,1101010,4110080,10700319,0,3111090,0,31010219,0,0,10811209,-4061201,4090131,0,0,0,0,0,3071191,0,0,0,0,30401619,0,2001180,21711209,0,2150200,11701319,20110309,41001219,0,32012009,0,40401709,0
8,330,1100.64312850591,0,0,287048.525920102,287049.572945393,0,10,14,1,0,9,20,200348005,90145409,128255296,105080206,30310909,40511009,41511809,30611719,3031100,10700509,40610909,0,-3060041,4061131,0,30910709,0,0,2150041,31611509,21412019,0,0,0,21500719,1030140,20912019,2090171,41410319,10910719,30401209,0,21811609,11011619,11612019,21411419,20000809,4021201,11201409,4010121
8,331,1541.16627509939,1,0,287051.796498767,287052.843568329,0,10,14,0,1,33,0,3051071,4261112,5302330,6212181,0,0,0,3051071,0,0,0,0,0,0,0,0,0,0,3100091,0,0,1161021,2030160,1201040,0,0,2071130,0,0,0,0,0,2131111,0,0,0,-4081070,0,0,0
8,332,460.230542812496,1,0,287055.561252204,287056.608324075,0,10,14,1,1,28,5,44900650,41570909,74523279,30294030,0,0,0,0,0,40710419,1040060,0,3150171,0,40410709,0,0,0,0,0,0,1160200,0,1111030,0,0,40210419,0,1191121,0,32010709,-3171090,4141110,0,21901719,1080111,0,0,0,0
8,333,2086.80801658193,1,0,287058.090689398,287059.137803231,0,10,14,1,1,1,10,112686106,14260930,115412886,9093211,-4021181,31410309,20600709,0,11501709,3130170,30310219,0,11711809,1140110,10010709,0,0,3110111,0,0,0,0,41610809,21200519,0,0,31100719,0,1200030,20300809,0,0,0,0,3021080,2031061,0,0,0,4041070
8,334,1812.12027760921,0,0,287062.267206318,287063.314267795,0,10,14,0,0,25,20,89436488,78114757,161697947,169368114,3001121,20600709,30201419,21211519,11311719,3110001,0,0,0,10701109,0,4000101,31311419,0,11300309,0,20801819,0,41501619,40400419,1020180,4021121,31710709,10302019,-1131161,0,31610719,20310209,10100509,10400519,30811619,1181061,40701919,3151050,11700209,41011019
8,335,557.431645574979,1,0,287066.184893195,287067.231958522,0,10,14,0,1,10,10,51892598,26124301,107842998,124716446,0,20110009,0,0,0,30611419,0,1171170,0,-1181010,0,0,0,0,2061201,2080171,0,20801919,2140200,0,30600309,0,31710709,2090071,0,1101090,40200619,2101180,10300219,40901209,30402019,0,0,0,0,41011819
8,336,531.641955953091,0,0,287068.937861822,287069.984931768,0,10,14,1,0,14,10,18182599,18273702,174156884,61724721,0,0,0,0,4161180,0,2021010,12000409,0,2131011,0,0,10900619,-4141001,0,0,0,1101071,10210819,41110919,40411509,41210209,10301519,0,0,0,30911909,4021091,0,0,0,4021141,31602019,20010419,2070051,0
8,337,702.9318754212,0,0,287074.808526873,287075.855587195,0,10,15,1,0,29,0,1081161,8442503,0,7393432,0,1081161,0,0,0,0,0,0,0,0,0,2140141,1171100,0,2001171,0,0,3130091,0,0,0,0,0,0,0,0,0,0,-3161121,0,1191161,0,0,3041150,0,0
8,338,511.475776031148,1,0,287077.74973217,287078.796791723,0,10,15,0,1,11,0,2161141,5201081,9262271,6070072,0,0,0,0,2161141,0,0,0,0,0,-2090011,0,0,3111070,0,0,0,0,0,0,0,3081050,0,0,3031050,3150171,0,0,3070051,3000021,0,0,0,0,0,0
