sub_id,Trial,RT,Resp,Error,Fix_onset,Disp_onset,q1,q2,block,repeat,tid,tloc,d_setsize,quad1,quad2,quad3,quad4,loc1,loc2,loc3,loc4,loc5,loc6,loc7,loc8,loc9,loc10,loc11,loc12,loc13,loc14,loc15,loc16,loc17,loc18,loc19,loc20,loc21,loc22,loc23,loc24,loc25,loc26,loc27,loc28,loc29,loc30,loc31,loc32,loc33,loc34,loc35,loc36
9,1,1260.38137439173,0,0,287828.006241432,287829.053281737,0,20,1,0,0,17,0,10322552,1070140,7252360,0,0,2020150,1121081,0,0,3050120,4131201,0,0,0,0,0,0,0,0,0,-1070140,0,0,0,3021140,0,0,0,1110030,3121190,0,0,0,0,0,0,0,0,0,0
9,2,1675.98445812473,1,0,287831.488511285,287832.535541581,0,20,1,0,1,34,5,4262192,77103279,12712670,38472912,3161011,0,1101181,0,0,0,0,0,0,30210809,0,0,21311109,1170161,21410009,3001191,0,0,0,10511619,2201051,0,0,0,0,0,0,30300709,0,0,0,3011081,0,-4100041,1061081,0
9,3,1719.97779671801,1,0,287835.335469285,287836.382491882,0,20,1,0,1,32,20,168249646,183597345,115262986,133608167,0,31901919,0,40611209,3201071,40200719,1121010,20001809,31211909,31710609,41200719,3091011,31311419,41611019,0,21710419,10902009,2060140,11110819,0,41000719,10801119,1140001,40200009,11010319,0,0,11211519,4051200,2071161,0,-3161050,30801819,40300609,0,42010809
9,4,600.826604815666,0,0,287839.170654794,287840.217674696,0,20,1,1,0,21,5,14181939,75541739,47653619,6272200,0,0,0,0,4180030,0,0,0,10001909,0,2031021,42000409,0,31510309,0,0,0,0,30501009,0,-3041031,2160180,10900309,1051090,0,0,0,0,0,0,2171130,2041040,0,2060030,0,0
9,5,2621.44357408397,1,0,287841.994104383,287843.041136604,0,20,1,1,1,29,10,46952327,90065660,43320869,75215028,10610509,0,0,0,11900809,0,20400919,4040090,0,10610019,0,40211819,0,32011509,0,1061081,2071101,4100131,0,0,0,0,0,40300809,0,0,3020060,4011030,-4201001,0,20300519,0,22011219,21610119,3081140,0
9,6,1663.56407757849,0,0,287846.699856008,287847.746883224,0,20,1,0,0,31,5,44023180,73974338,7302202,45464320,0,0,0,0,0,3121171,40902009,0,0,0,0,1171190,0,1101020,31601809,40100319,0,0,0,2190040,0,0,0,2081031,0,0,3031131,0,31000919,0,-2101051,0,0,2061141,10301209,0
9,7,1018.91345664626,1,0,287850.464463544,287851.511481136,0,20,1,0,1,27,10,87222397,43772699,89774430,57961919,0,3111031,11600619,0,0,10100019,0,21800409,40610319,0,0,0,10011909,0,0,0,31600709,2160081,1030160,40601709,1161181,4160020,0,40800309,0,0,-2021051,0,20100009,31610719,0,2130131,4121060,0,0,0
9,8,675.130614661612,0,0,287853.723194651,287854.770220712,0,20,1,1,0,22,0,3041101,1050071,6441451,10332382,0,0,0,0,3041101,0,0,0,0,1050071,0,0,0,0,0,0,0,0,0,0,0,-3140161,2140120,0,0,0,1161170,0,0,0,2011111,0,4191080,0,0,4130191
9,9,2631.59768935293,1,0,287856.593706488,287857.640730624,0,20,1,0,1,5,20,144344997,167853555,70856647,129873555,20110009,30801709,0,10511019,-4151181,40200219,4000190,4170151,30400519,20610019,11601309,30400309,41001009,30710109,30500719,0,0,3030081,0,0,20611509,4171190,11600409,11211609,3161021,0,20100909,0,0,10700209,21501419,20410709,2040120,31300709,3110170,40810219
9,10,1402.7122206171,0,0,287861.299460422,287862.346486483,0,20,1,1,0,33,20,148692537,126975455,170806247,159545376,0,2110190,31710109,42000409,1171201,31600609,0,40100019,0,41300519,0,10510119,0,31310309,2051180,11101409,0,30701919,1080121,10700019,20910019,2030051,40101519,31001809,20611319,4161071,40210319,41810009,0,30500009,40011219,21101209,-3021090,21011809,0,2090031
9,11,778.979993308894,0,0,287864.805250235,287865.852269752,0,20,1,0,0,23,0,6142241,9391352,3130120,8211001,0,0,3011190,0,0,0,0,0,3131051,4161131,0,0,0,0,2100080,0,3130141,0,0,0,0,0,-3130120,0,0,0,0,0,0,0,4050000,0,0,4161001,0,0
9,12,1183.96854837192,1,0,287867.652227483,287868.699249309,0,20,1,1,1,9,10,99994158,5241212,88374368,114312567,20310219,0,0,31912009,1160090,0,41301709,3120041,-2190090,1150021,0,0,0,0,0,0,3001131,1090060,4171031,0,0,0,31301809,31201009,21700519,0,0,0,2190101,20610319,0,40000109,20411319,0,31100719,0
9,13,1400.39668040117,1,0,287870.922740705,287871.969754063,0,20,1,0,1,35,10,12272583,55403039,104522547,143117895,4051171,0,3051200,0,0,3110031,0,2060181,0,0,0,3091011,0,0,31601309,20710719,0,0,0,0,41710519,0,0,0,0,41610019,21202009,20900009,0,11310709,40611819,40801709,1091140,21201319,-4070030,3131160
9,14,1286.62685782183,1,0,287874.581448176,287875.628534676,0,20,1,1,1,8,10,63433597,37392389,80513890,117288366,0,0,10201619,0,21910219,30311609,0,-1010150,0,0,0,0,4021080,0,2071000,0,31300309,0,0,0,0,40702019,4160191,3090041,0,2051020,30510619,20711009,0,1091090,30012019,41311309,3051020,0,0,21111919
9,15,1468.02046272205,1,0,287878.040176126,287879.087196798,0,20,1,1,1,25,20,128863786,133382926,93024787,138887766,0,40700509,0,4041121,0,31610219,31711309,10700319,10100309,3170081,40700019,31510419,11501419,0,11510219,3080050,0,31910719,21600709,0,1070101,11100409,3101120,20401209,-4051120,31700119,0,11400909,2191141,1180031,0,20600019,40711709,10800419,10702019,41301519
9,16,881.739162490703,0,0,287881.722435508,287882.76944925,0,20,1,0,0,4,20,100113888,186325664,178526454,143284068,41601419,31801009,0,-1070001,10600509,0,10910819,0,4130131,0,0,41000209,41511019,30211909,11010309,1180190,20601019,40811009,10001719,30400219,0,4090160,40910119,41811019,20301709,0,31011509,31600009,2081070,40910019,2051200,40500219,1061081,22010309,0,3070161
9,17,809.633664728608,0,0,287884.722348892,287885.769374183,0,20,1,1,0,19,0,1041170,6300291,5200211,6431271,0,0,0,1041170,0,0,0,0,0,2160161,0,0,0,0,4140130,0,0,0,-2120100,0,0,3080111,0,0,0,0,0,1140040,0,4170121,1121110,0,0,0,0,0
9,18,969.076410634443,1,0,287887.686971365,287888.733996656,0,20,1,1,1,6,5,55114829,44440869,4422431,67226539,0,0,41701819,0,0,-3201101,10211909,0,0,0,3130160,41310709,0,0,0,0,0,0,0,0,1170101,0,0,0,0,1051180,2201150,1051100,2021020,31011919,0,0,32011319,0,0,1131181
9,19,1371.11731962068,0,0,287890.781003854,287891.82802491,0,20,1,1,0,15,20,210488844,50525800,95577616,109434907,10410719,31611709,41401519,41601009,20600819,20311819,2130140,1010101,41411009,21411619,11711309,0,0,11301419,-2000141,1021181,3080131,0,21311809,0,0,1151161,11300309,11011809,30701909,20100619,0,0,4111091,2100051,20511309,20600719,10901519,0,30700009,20510209
9,20,837.947928346694,0,0,287894.369136046,287895.416161722,0,20,1,0,0,7,0,10304271,4140231,4241272,0,2041040,0,3051141,0,0,0,-2201020,3011070,0,0,1030030,0,0,0,0,3110201,0,0,0,0,0,0,2040101,0,2201171,0,0,0,0,0,0,0,0,0,0,0
9,21,1217.73116453551,1,0,287897.34553255,287898.392552067,0,20,1,1,1,1,5,49332972,83512357,13723550,7232181,-1120051,0,42010609,2101191,0,0,4101121,0,0,0,0,0,40800319,0,11511019,0,0,31201019,0,1050101,0,0,0,1051080,1011050,0,10611319,0,0,3121040,0,0,4111141,0,0,0
9,22,873.278490500525,0,0,287900.686613736,287901.733636332,0,20,1,0,0,3,10,78283490,77413539,67224588,98282168,0,0,-2001031,3160100,2010131,40900609,0,30211619,0,1001181,0,0,0,0,30910319,4000030,0,41502009,3011141,0,22001019,20300609,0,0,0,0,21911819,2080080,0,0,41111519,0,10600309,40300109,0,4190151
9,23,1710.05042339675,1,0,287903.721825345,287904.768846402,0,20,1,1,1,18,0,6373252,6302341,6121361,4180070,3111051,0,0,0,0,0,2161140,0,1101061,0,0,0,4201201,0,0,0,0,-2101140,0,2121200,0,4000161,0,0,0,0,0,0,0,0,0,0,4180070,0,0,0
9,24,1993.0155929178,1,0,287907.521715323,287908.568738305,0,20,1,0,1,36,5,44511009,95454277,9221290,45142239,0,0,0,0,1020110,0,3190090,40300809,0,0,0,41310309,0,1041130,0,21701019,31401819,0,0,0,0,3131050,0,3010150,0,0,3080090,40101119,0,0,3011030,0,0,0,0,-2030090
9,25,694.846005295403,0,0,287922.344830766,287923.391857982,0,20,2,0,0,3,10,36782619,41543158,139944856,37692169,0,30511309,-2200150,0,0,0,0,4071160,0,4161140,0,10300609,0,20000219,0,3040190,0,4041000,3031181,0,0,10900319,31800709,31200119,0,21611109,41401419,4000161,1190080,0,0,0,11600709,0,20901219,0
9,26,603.076316707302,1,0,287925.203572036,287926.250605026,0,20,2,0,1,5,0,8141221,6100311,1141080,10412491,0,0,0,0,-4121030,0,0,4020191,0,0,0,0,0,0,0,2020110,4080201,0,0,0,0,0,0,1141080,0,0,0,0,0,2151180,0,0,0,4121180,0,4140131
9,27,1461.14544488955,1,0,287928.00350667,287929.050528881,0,20,2,0,1,36,10,36803099,65314246,49562272,109036887,11911609,0,0,0,0,21801409,0,0,3090081,10400809,21311509,21901819,11700109,0,0,0,0,0,40301119,0,0,0,4030001,4030131,0,0,1201021,41811419,41910909,4111010,0,0,4100180,3141070,10901219,-3061080
9,28,1834.75044264924,1,0,287931.532822602,287932.579860982,0,20,2,1,1,33,20,148692537,126975455,170806247,159545376,0,2110190,31710109,42000409,1171201,31600609,0,40100019,0,41300519,0,10510119,0,31310309,2051180,11101409,0,30701919,1080121,10700019,20910019,2030051,40101519,31001809,20611319,4161071,40210319,41810009,0,30500009,40011219,21101209,-3021090,21011809,0,2090031
9,29,1114.49271894526,0,0,287935.568008419,287936.615023316,0,20,2,1,0,25,20,128863786,133382926,93024787,138887766,0,40700509,0,4041121,0,31610219,31711309,10700319,10100309,3170081,40700019,31510419,11501419,0,11510219,3080050,0,31910719,21600709,0,1070101,11100409,3101120,20401209,-4051120,31700119,0,11400909,2191141,1180031,0,20600019,40711709,10800419,10702019,41301519
9,30,1397.24962454056,1,0,287938.850270649,287939.897287086,0,20,2,1,1,29,10,46952327,90065660,43320869,75215028,10610509,0,0,0,11900809,0,20400919,4040090,0,10610019,0,40211819,0,32011509,0,1061081,2071101,4100131,0,0,0,0,0,40300809,0,0,3020060,4011030,-4201001,0,20300519,0,22011219,21610119,3081140,0
9,31,740.710639220197,0,0,287942.320759157,287943.367777904,0,20,2,0,0,17,5,3200161,27703381,7530193,126174876,0,3200161,0,0,0,0,0,0,0,0,0,0,0,20200109,2191110,0,-2111071,3201091,0,0,0,3180011,2160001,0,0,0,2190181,2051130,30011119,41000909,0,11900909,0,41210809,0,0
9,32,608.518509834539,1,0,287945.203031166,287946.250052223,0,20,2,1,1,21,5,14181939,75541739,47653619,6272200,0,0,0,0,4180030,0,0,0,10001909,0,2031021,42000409,0,31510309,0,0,0,0,30501009,0,-3041031,2160180,10900309,1051090,0,0,0,0,0,0,2171130,2041040,0,2060030,0,0
9,33,1639.12367611192,0,0,287947.979427747,287949.026448418,0,20,2,0,0,34,20,208726722,154526379,118457536,97451859,40501009,30810509,30700409,10800519,10600719,41500519,30611309,1191020,12010709,3120071,0,41011309,41810119,30601419,3071051,1171070,3131131,30610209,12011719,0,0,31511919,3011051,0,20000019,41610909,10311919,0,30810519,0,31600619,32000609,2040001,-1000111,0,0
9,34,658.973803103436,1,0,287951.673442681,287952.720470667,0,20,2,1,1,9,10,99994158,5241212,88374368,114312567,20310219,0,0,31912009,1160090,0,41301709,3120041,-2190090,1150021,0,0,0,0,0,0,3001131,1090060,4171031,0,0,0,31301809,31201009,21700519,0,0,0,2190101,20610319,0,40000109,20411319,0,31100719,0
9,35,1421.48753663059,0,0,287954.49689381,287955.543917562,0,20,2,0,0,27,5,25252020,41701710,12752020,60353259,0,20800609,0,0,0,1191041,2070200,1190170,0,40511619,0,0,0,0,0,0,0,1190091,0,0,0,0,0,0,11611009,0,-1141011,0,0,11311409,41900709,0,3001091,1050030,0,3090020
9,36,840.311203734018,0,0,287958.037969145,287959.084994051,0,20,2,1,0,1,5,49332972,83512357,13723550,7232181,-1120051,0,42010609,2101191,0,0,4101121,0,0,0,0,0,40800319,0,11511019,0,0,31201019,0,1050101,0,0,0,1051080,1011050,0,10611319,0,0,3121040,0,0,4111141,0,0,0
9,37,808.937655296177,1,0,287961.061412497,287962.108441253,0,20,2,1,1,6,5,55114829,44440869,4422431,67226539,0,0,41701819,0,0,-3201101,10211909,0,0,0,3130160,41310709,0,0,0,0,0,0,0,0,1170101,0,0,0,0,1051180,2201150,1051100,2021020,31011919,0,0,32011319,0,0,1131181
9,38,1529.18075042544,0,1,287964.073096448,287965.120119429,0,20,2,0,1,31,10,110094727,44133288,99654098,67814598,0,41700409,0,3171170,40211219,0,0,22011919,3000010,0,10511109,2091150,0,1021020,30510009,0,0,0,0,0,0,0,41510209,4161140,3081011,40100619,10801119,1041160,0,0,-3161010,0,0,0,41811119,21801309
9,39,686.674054013565,0,0,287967.790638272,287968.837665873,0,20,2,1,0,19,0,1041170,6300291,5200211,6431271,0,0,0,1041170,0,0,0,0,0,2160161,0,0,0,0,4140130,0,0,0,-2120100,0,0,3080111,0,0,0,0,0,1140040,0,4170121,1121110,0,0,0,0,0
9,40,623.16203978844,1,0,287970.719979072,287971.767003594,0,20,2,1,1,8,10,63433597,37392389,80513890,117288366,0,0,10201619,0,21910219,30311609,0,-1010150,0,0,0,0,4021080,0,2071000,0,31300309,0,0,0,0,40702019,4160191,3090041,0,2051020,30510619,20711009,0,1091090,30012019,41311309,3051020,0,0,21111919
9,41,870.600317080971,0,0,287973.531663099,287974.578680691,0,20,2,1,0,15,20,210488844,50525800,95577616,109434907,10410719,31611709,41401519,41601009,20600819,20311819,2130140,1010101,41411009,21411619,11711309,0,0,11301419,-2000141,1021181,3080131,0,21311809,0,0,1151161,11300309,11011809,30701909,20100619,0,0,4111091,2100051,20511309,20600719,10901519,0,30700009,20510209
9,42,1192.94930266915,1,0,287976.496284802,287977.543307783,0,20,2,1,1,22,0,3041101,1050071,6441451,10332382,0,0,0,0,3041101,0,0,0,0,1050071,0,0,0,0,0,0,0,0,0,0,0,-3140161,2140120,0,0,0,1161170,0,0,0,2011111,0,4191080,0,0,4130191
9,43,1517.22039829474,0,0,287979.813839484,287980.860861695,0,20,2,0,0,35,0,0,4311232,3181281,6242332,0,0,0,0,0,0,0,0,0,1130131,0,0,0,0,0,0,3181101,0,0,0,1040051,1031170,0,0,0,1110060,0,3091151,0,1121060,0,0,0,0,-2030121,0
9,44,1466.04599797865,0,0,287983.401974371,287984.448996198,0,20,2,0,0,4,20,120763486,87926708,89205557,158726003,0,30910319,0,-4120111,22011319,41610119,10800909,0,11310709,0,4121030,4050121,4021050,11610019,2011051,21111109,30601519,10400809,21311609,0,3081010,31000619,21101119,1100180,1201001,10410019,0,31401219,20611309,0,21800709,11001019,42000609,20810919,0,11100219
9,45,1029.38785945298,1,0,287987.013639997,287988.060665673,0,20,2,1,1,18,0,6373252,6302341,6121361,4180070,3111051,0,0,0,0,0,2161140,0,1101061,0,0,0,4201201,0,0,0,0,-2101140,0,2121200,0,4000161,0,0,0,0,0,0,0,0,0,0,4180070,0,0,0
9,46,1443.89534427319,0,0,287990.131206305,287991.178223512,0,20,2,0,0,7,0,5190181,5101061,5262221,3252161,0,0,2020101,0,0,0,-3170080,0,0,0,0,0,4060011,1041050,0,0,0,0,0,0,0,0,2141021,0,3121200,0,0,0,0,2051080,0,0,0,0,1201081,0
9,47,1435.80461974489,0,0,287993.778163227,287994.825236638,0,20,2,0,0,32,20,91824287,161675876,129246487,183248824,0,41501409,1081031,11710619,11910119,11100819,4020081,0,10500209,0,0,30901809,40611409,4110010,41411219,0,3040010,41601419,11610619,0,31010309,10810319,3071021,40911319,30701709,1131191,0,20011809,22000119,40101909,0,-3111010,42011309,20001319,31901309,4110040
9,48,795.974864857271,1,0,287997.378062521,287998.425077803,0,20,2,0,1,23,5,20631681,22822500,14893981,58894350,0,0,0,4130131,4140000,0,11310519,0,1051031,0,0,21701419,0,1121081,0,0,0,0,0,2111141,0,11701709,-1081131,0,0,0,0,41012019,0,0,3010131,0,10701019,4171181,0,0
9,49,1553.49295993801,0,0,288003.648465644,288004.695495555,0,20,3,0,0,31,0,7382150,3151171,5290211,5191141,0,0,1051000,4190070,0,0,2141080,0,0,0,0,0,0,0,0,0,0,3151171,0,0,0,0,0,4130151,1160060,0,0,0,0,0,-3160120,0,0,2031021,0,0
9,50,1231.80803196738,0,0,288007.460140048,288008.507158794,0,20,3,0,0,35,5,36812879,15800339,54394998,7383192,0,0,20501719,2130021,0,10110009,0,4071130,0,4000030,0,11800309,0,0,0,0,0,0,0,1141080,0,0,0,10511709,0,40602019,2140190,0,2021140,0,0,0,0,0,-1191031,4171021
9,51,1503.26325371861,0,0,288010.930629325,288011.977647687,0,20,3,0,0,5,0,9302272,4300142,8391321,0,0,0,2101100,0,-2001040,0,2130051,0,3070081,1150011,0,0,0,0,0,0,3150131,0,4201140,4190181,0,0,0,0,0,0,0,0,0,0,0,0,0,0,0,0
9,52,1780.90518311365,0,0,288014.518759978,288015.565803747,0,20,3,1,0,22,0,3041101,1050071,6441451,10332382,0,0,0,0,3041101,0,0,0,0,1050071,0,0,0,0,0,0,0,0,0,0,0,-3140161,2140120,0,0,0,1161170,0,0,0,2011111,0,4191080,0,0,4130191
9,53,1127.65761389164,0,0,288018.553945795,288019.601008042,0,20,3,0,0,7,20,164744886,198334954,114374937,97734867,0,41010119,4000020,12000719,30911809,40800919,-3050030,30910119,2061151,21010019,20110519,32010009,11611609,0,30010819,41810219,40711609,1060151,30501609,11501319,3110120,21600409,4180070,0,40400209,3081201,0,20410619,4100091,20612019,0,10901219,0,0,41710919,0
9,54,1848.91777590383,1,0,288021.906791773,288022.953815524,0,20,3,1,1,33,20,148692537,126975455,170806247,159545376,0,2110190,31710109,42000409,1171201,31600609,0,40100019,0,41300519,0,10510119,0,31310309,2051180,11101409,0,30701919,1080121,10700019,20910019,2030051,40101519,31001809,20611319,4161071,40210319,41810009,0,30500009,40011219,21101209,-3021090,21011809,0,2090031
9,55,945.509870536625,0,0,288025.977267346,288027.024294177,0,20,3,0,0,32,20,175467904,136445246,148403916,75968737,0,22011919,30210619,0,1001000,10210319,40111409,30910919,41011719,0,30600819,31410219,1000101,1200160,20100919,20800509,30311409,1021110,31601919,0,0,40710909,4080060,0,41801009,0,30210019,2091021,10111019,11710209,4011080,-3041061,0,11501619,11700709,21802019
9,56,1096.05886333156,1,0,288029.106591516,288030.153614882,0,20,3,0,1,34,10,77362717,82445899,44782669,69785608,11410609,0,4140080,0,0,41011219,0,0,20800809,0,31311619,22010119,20911909,2020120,0,0,4161061,2031071,0,41601609,3181060,0,0,0,0,0,0,4161191,0,1111070,0,0,10310109,-1181110,21710909,31311219
9,57,2411.23294655699,1,0,288032.412383716,288033.459405542,0,20,3,0,1,3,10,36942520,40115010,33753579,138837146,0,31801209,-1030111,0,0,0,4111200,0,0,0,4061201,1040040,1070190,0,11301619,2040141,0,20601819,0,0,21501619,0,0,0,0,1041051,11210909,31111209,0,4011171,0,31111609,41801119,0,10501919,20300119
9,58,1066.25557068037,1,0,288036.96519805,288038.012224881,0,20,3,1,1,1,5,49332972,83512357,13723550,7232181,-1120051,0,42010609,2101191,0,0,4101121,0,0,0,0,0,40800319,0,11511019,0,0,31201019,0,1050101,0,0,0,1051080,1011050,0,10611319,0,0,3121040,0,0,4111141,0,0,0
9,59,1273.36341288174,0,0,288040.165107122,288041.212133568,0,20,3,1,0,29,10,46952327,90065660,43320869,75215028,10610509,0,0,0,11900809,0,20400919,4040090,0,10610019,0,40211819,0,32011509,0,1061081,2071101,4100131,0,0,0,0,0,40300809,0,0,3020060,4011030,-4201001,0,20300519,0,22011219,21610119,3081140,0
9,60,958.526555506978,0,0,288043.565013037,288044.612040638,0,20,3,0,0,17,5,80043168,26771690,3081070,18162941,3050200,0,0,42001519,0,0,31801319,0,3190130,1000061,0,0,0,0,11700809,10000809,-4070011,0,0,0,3081070,0,0,0,0,0,0,2180071,0,2061160,0,10901509,0,3020201,0,0
9,61,1690.67803298822,1,0,288046.623762315,288047.670781831,0,20,3,1,1,8,10,63433597,37392389,80513890,117288366,0,0,10201619,0,21910219,30311609,0,-1010150,0,0,0,0,4021080,0,2071000,0,31300309,0,0,0,0,40702019,4160191,3090041,0,2051020,30510619,20711009,0,1091090,30012019,41311309,3051020,0,0,21111919
9,62,1514.37900145538,0,0,288050.505998137,288051.553019964,0,20,3,0,0,36,5,10562163,73913366,35443130,3201290,3190021,1201071,0,0,4111010,0,0,0,2060061,20611219,0,0,0,20600619,10900719,0,0,21800809,0,0,3071030,0,0,0,0,31202019,1170081,0,2021120,0,0,0,0,0,0,-1180170
9,63,1264.14937229129,0,0,288054.094136489,288055.14116101,0,20,3,0,0,4,10,49662809,52154259,65161928,69555619,0,31410619,12010109,-3041081,0,3201000,0,0,0,0,0,1090060,4120110,11911219,0,0,3131051,31901819,0,0,1140071,0,0,11410119,21700019,30911719,0,3151021,41701309,0,0,10711809,11810419,0,2181061,0
9,64,1290.40293989237,1,0,288057.494043944,288058.541065771,0,20,3,0,1,27,0,2171132,7251332,6251010,7180151,0,0,0,1031111,0,1140021,0,0,0,4181161,0,0,0,3070171,0,0,0,0,0,0,0,0,0,0,4070010,0,-2181000,0,0,0,4060140,0,3120011,0,0,0
9,65,620.573177351616,0,0,288060.858656254,288061.905677311,0,20,3,1,0,15,20,210488844,50525800,95577616,109434907,10410719,31611709,41401519,41601009,20600819,20311819,2130140,1010101,41411009,21411619,11711309,0,0,11301419,-2000141,1021181,3080131,0,21311809,0,0,1151161,11300309,11011809,30701909,20100619,0,0,4111091,2100051,20511309,20600719,10901519,0,30700009,20510209
9,66,649.894113885239,0,0,288063.717402913,288064.764408957,0,20,3,0,0,23,20,91185727,93445516,96264765,136323674,2200201,1081200,12011019,3080150,0,0,31401619,30411119,11000419,4170060,2120030,2031171,0,20902009,10510019,21201909,10910209,21600109,3180070,20310109,20400509,0,-1061020,10500419,30701419,10111219,0,11200209,0,30612009,10600309,0,31700319,0,11400509,40810319
9,67,769.749014405534,1,0,288066.552666184,288067.599636811,0,20,3,1,1,19,0,1041170,6300291,5200211,6431271,0,0,0,1041170,0,0,0,0,0,2160161,0,0,0,0,4140130,0,0,0,-2120100,0,0,3080111,0,0,0,0,0,1140040,0,4170121,1121110,0,0,0,0,0
9,68,2798.03825559793,1,0,288069.376059184,288070.423087555,0,20,3,1,1,9,10,99994158,5241212,88374368,114312567,20310219,0,0,31912009,1160090,0,41301709,3120041,-2190090,1150021,0,0,0,0,0,0,3001131,1090060,4171031,0,0,0,31301809,31201009,21700519,0,0,0,2190101,20610319,0,40000109,20411319,0,31100719,0
9,69,1644.29793640738,1,0,288074.281808422,288075.328838718,0,20,3,1,1,6,5,55114829,44440869,4422431,67226539,0,0,41701819,0,0,-3201101,10211909,0,0,0,3130160,41310709,0,0,0,0,0,0,0,0,1170101,0,0,0,0,1051180,2201150,1051100,2021020,31011919,0,0,32011319,0,0,1131181
9,70,1161.82289924473,1,0,288078.105231064,288079.15225751,0,20,3,1,1,18,0,6373252,6302341,6121361,4180070,3111051,0,0,0,0,0,2161140,0,1101061,0,0,0,4201201,0,0,0,0,-2101140,0,2121200,0,4000161,0,0,0,0,0,0,0,0,0,0,4180070,0,0,0
9,71,1457.123372762,1,0,288081.411030963,288082.458050094,0,20,3,1,1,25,20,128863786,133382926,93024787,138887766,0,40700509,0,4041121,0,31610219,31711309,10700319,10100309,3170081,40700019,31510419,11501419,0,11510219,3080050,0,31910719,21600709,0,1070101,11100409,3101120,20401209,-4051120,31700119,0,11400909,2191141,1180031,0,20600019,40711709,10800419,10702019,41301519
9,72,933.913306507748,1,0,288084.952110147,288085.999125429,0,20,3,1,1,21,5,14181939,75541739,47653619,6272200,0,0,0,0,4180030,0,0,0,10001909,0,2031021,42000409,0,31510309,0,0,0,0,30501009,0,-3041031,2160180,10900309,1051090,0,0,0,0,0,0,2171130,2041040,0,2060030,0,0
9,73,899.779587984085,1,0,288100.281080076,288101.328175815,0,20,4,1,1,8,10,63433597,37392389,80513890,117288366,0,0,10201619,0,21910219,30311609,0,-1010150,0,0,0,0,4021080,0,2071000,0,31300309,0,0,0,0,40702019,4160191,3090041,0,2051020,30510619,20711009,0,1091090,30012019,41311309,3051020,0,0,21111919
9,74,1723.19029591745,0,0,288103.398649463,288104.4456736,0,20,4,0,0,27,20,141658176,103723765,158619986,126475166,20802009,3151140,11110819,0,30601119,40501609,2040011,2151150,31300319,11001309,0,10810709,0,30001219,30900119,0,0,21010409,41400209,21001509,3191090,31611609,4151110,11611919,3200101,41401409,-1051030,31310109,31400409,0,3031111,20211119,0,0,20311309,20211109
9,75,512.422244879417,0,0,288107.351482891,288108.398507028,0,20,4,1,0,21,5,14181939,75541739,47653619,6272200,0,0,0,0,4180030,0,0,0,10001909,0,2031021,42000409,0,31510309,0,0,0,0,30501009,0,-3041031,2160180,10900309,1051090,0,0,0,0,0,0,2171130,2041040,0,2060030,0,0
9,76,1001.4273749548,0,0,288109.998471765,288111.045493592,0,20,4,1,0,25,20,128863786,133382926,93024787,138887766,0,40700509,0,4041121,0,31610219,31711309,10700319,10100309,3170081,40700019,31510419,11501419,0,11510219,3080050,0,31910719,21600709,0,1070101,11100409,3101120,20401209,-4051120,31700119,0,11400909,2191141,1180031,0,20600019,40711709,10800419,10702019,41301519
9,77,698.693305195775,0,0,288113.163090696,288114.210114448,0,20,4,1,0,9,10,99994158,5241212,88374368,114312567,20310219,0,0,31912009,1160090,0,41301709,3120041,-2190090,1150021,0,0,0,0,0,0,3001131,1090060,4171031,0,0,0,31301809,31201009,21700519,0,0,0,2190101,20610319,0,40000109,20411319,0,31100719,0
9,78,933.350493607577,0,0,288115.998301228,288117.045329213,0,20,4,1,0,15,20,210488844,50525800,95577616,109434907,10410719,31611709,41401519,41601009,20600819,20311819,2130140,1010101,41411009,21411619,11711309,0,0,11301419,-2000141,1021181,3080131,0,21311809,0,0,1151161,11300309,11011809,30701909,20100619,0,0,4111091,2100051,20511309,20600719,10901519,0,30700009,20510209
9,79,1477.07859409275,0,0,288119.174688415,288120.221710627,0,20,4,0,0,32,10,166456844,45632799,8471413,46202281,30110219,0,40011309,1021041,40500209,21600219,11801319,10511219,10901309,0,1101050,0,0,10000219,0,0,30510519,4021011,0,0,3120111,0,0,0,0,3160201,2191101,0,0,0,0,-1011011,4091161,41100109,0,0
9,80,1228.473500174,1,0,288122.89222408,288123.939248986,0,20,4,0,1,4,5,8302272,37131151,78285247,5141171,0,0,2081151,-2190101,0,0,0,4031020,0,0,4011011,0,31010009,0,0,0,0,2110131,11800009,11400709,0,2161191,11311319,0,0,41612019,0,0,0,2020040,0,0,0,3121131,0,0
9,81,1087.04192278674,1,0,288126.362722597,288127.409747503,0,20,4,1,1,29,10,46952327,90065660,43320869,75215028,10610509,0,0,0,11900809,0,20400919,4040090,0,10610019,0,40211819,0,32011509,0,1061081,2071101,4100131,0,0,0,0,0,40300809,0,0,3020060,4011030,-4201001,0,20300519,0,22011219,21610119,3081140,0
9,82,778.384073753841,1,0,288129.63322042,288130.680237627,0,20,4,1,1,22,0,3041101,1050071,6441451,10332382,0,0,0,0,3041101,0,0,0,0,1050071,0,0,0,0,0,0,0,0,0,0,0,-3140161,2140120,0,0,0,1161170,0,0,0,2011111,0,4191080,0,0,4130191
9,83,1137.78709166218,1,0,288132.597839428,288133.644866259,0,20,4,1,1,18,0,6373252,6302341,6121361,4180070,3111051,0,0,0,0,0,2161140,0,1101061,0,0,0,4201201,0,0,0,0,-2101140,0,2121200,0,4000161,0,0,0,0,0,0,0,0,0,0,4180070,0,0,0
9,84,748.606958426535,0,0,288135.833042876,288136.880075097,0,20,4,1,0,19,0,1041170,6300291,5200211,6431271,0,0,0,1041170,0,0,0,0,0,2160161,0,0,0,0,4140130,0,0,0,-2120100,0,0,3080111,0,0,0,0,0,1140040,0,4170121,1121110,0,0,0,0,0
9,85,1796.37021973031,1,0,288138.727082757,288139.774098809,0,20,4,1,1,33,20,148692537,126975455,170806247,159545376,0,2110190,31710109,42000409,1171201,31600609,0,40100019,0,41300519,0,10510119,0,31310309,2051180,11101409,0,30701919,1080121,10700019,20910019,2030051,40101519,31001809,20611319,4161071,40210319,41810009,0,30500009,40011219,21101209,-3021090,21011809,0,2090031
9,86,590.24633775698,1,0,288142.715255986,288143.762225458,0,20,4,0,1,17,0,12411232,2200090,3192070,5162141,0,0,0,4070000,4171051,0,4170181,0,0,0,0,0,0,0,0,0,-2200090,0,2061050,0,1131020,0,0,0,0,0,0,0,0,0,0,1001130,0,0,4161011,0
9,87,1048.60742035089,0,0,288145.526898053,288146.573914875,0,20,4,1,0,6,5,55114829,44440869,4422431,67226539,0,0,41701819,0,0,-3201101,10211909,0,0,0,3130160,41310709,0,0,0,0,0,0,0,0,1170101,0,0,0,0,1051180,2201150,1051100,2021020,31011919,0,0,32011319,0,0,1131181
9,88,1966.17034031078,1,0,288148.750326315,288149.79735815,0,20,4,0,1,31,10,89365359,51395180,65013947,45232878,4140071,0,0,0,1010041,41901609,0,31312019,11001619,3101160,31411219,10610419,0,1081171,0,3161061,0,2030150,0,11501719,0,11801309,0,41710919,0,0,0,11500219,0,0,-1010000,31701509,0,1021150,0,0
9,89,827.768405666575,0,0,288152.83256668,288153.879657029,0,20,4,0,0,3,20,124145067,167279405,153326826,133385316,30311219,0,-1000121,10711709,0,0,0,41911509,40210509,1120131,30511509,21011909,42012019,41110609,0,10411819,0,21101409,0,31512009,41411109,31611119,20100609,0,3160070,21501719,4030191,21910619,3160130,1090050,31710009,10300019,20301909,1011190,3090081,40811309
9,90,1530.34217766253,1,0,288155.856017732,288156.903042638,0,20,4,0,1,35,0,8181101,8241260,8361381,4071011,0,4080050,0,4101051,0,0,0,0,0,0,0,0,0,0,0,4201080,0,4040180,3140180,0,0,2151191,0,0,0,3070010,0,0,0,0,0,0,0,0,-4071011,0
9,91,1492.44161613751,0,0,288159.561801693,288160.60881967,0,20,4,0,0,34,20,139618537,138168004,186946624,74368810,0,20611709,2041181,41500219,1151181,30910819,31601919,0,11801509,10001119,10601209,40301409,21310709,0,4151140,0,41300809,10501609,40910209,31200219,0,10011409,40410519,32001909,31311319,0,1101040,0,11502019,0,2191081,2191030,41111309,-3141011,3131041,11101319
9,92,796.454911178444,0,0,288163.208753226,288164.255777747,0,20,4,0,0,23,5,59041360,31301290,41291630,35111110,0,0,0,4000161,0,40310909,0,11700109,3030181,0,0,0,2060100,22010019,0,3110051,3081060,1040060,0,0,40111509,0,-1180121,0,0,0,0,0,0,0,3111101,32000009,0,0,0,0
9,93,1108.19514258765,1,0,288166.138085172,288167.185107769,0,20,4,0,1,5,10,63342119,87875857,47972860,105065826,0,30411909,0,0,-2030101,0,0,30900109,0,40001319,1091050,4111190,1061080,0,10210509,31400709,0,0,41711719,0,2170000,0,3081060,0,0,1010081,0,40000419,0,0,0,4151160,10101619,10311109,40501519,0
9,94,962.870839925017,1,0,288169.314469665,288170.3615092,0,20,4,0,1,36,0,3010141,15872682,0,4101010,0,0,0,0,3010141,0,0,0,0,0,0,4161080,1061181,0,1140090,3170071,2190150,4150110,0,0,0,0,0,0,0,0,0,0,0,0,0,0,0,0,0,-4101010
9,95,874.472639407031,0,0,288172.44379499,288173.490813737,0,20,4,0,0,7,5,5371372,34073589,76355129,0,0,2070160,0,0,0,0,-1161111,2140101,0,1010011,1161160,0,0,20701709,0,0,0,11200709,0,1131160,1180031,2021101,0,20500709,0,30212019,21310109,0,0,0,0,0,0,0,0,0
9,96,1393.76033842564,1,0,288175.561351289,288176.608436249,0,20,4,1,1,1,5,49332972,83512357,13723550,7232181,-1120051,0,42010609,2101191,0,0,4101121,0,0,0,0,0,40800319,0,11511019,0,0,31201019,0,1050101,0,0,0,1051080,1011050,0,10611319,0,0,3121040,0,0,4111141,0,0,0
9,97,645.11751831742,0,0,288182.219985617,288183.267016297,0,20,5,1,0,19,0,1041170,6300291,5200211,6431271,0,0,0,1041170,0,0,0,0,0,2160161,0,0,0,0,4140130,0,0,0,-2120100,0,0,3080111,0,0,0,0,0,1140040,0,4170121,1121110,0,0,0,0,0
9,98,1596.64900851203,0,0,288184.996387202,288186.043467927,0,20,5,0,0,31,10,29272069,35814618,88695245,16571090,3190031,1020170,10311709,0,10600119,4150040,0,0,0,0,0,3031110,0,0,20601819,2170080,0,10011609,0,10410809,31712009,0,10001409,0,20900909,11600019,4070090,2150191,0,0,-3120180,0,11300719,0,0,0
9,99,1046.9855798292,0,0,288188.760985499,288189.808012715,0,20,5,1,0,33,20,148692537,126975455,170806247,159545376,0,2110190,31710109,42000409,1171201,31600609,0,40100019,0,41300519,0,10510119,0,31310309,2051180,11101409,0,30701919,1080121,10700019,20910019,2030051,40101519,31001809,20611319,4161071,40210319,41810009,0,30500009,40011219,21101209,-3021090,21011809,0,2090031
9,100,555.008936207742,1,0,288192.007947194,288193.054976335,0,20,5,1,1,21,5,14181939,75541739,47653619,6272200,0,0,0,0,4180030,0,0,0,10001909,0,2031021,42000409,0,31510309,0,0,0,0,30501009,0,-3041031,2160180,10900309,1051090,0,0,0,0,0,0,2171130,2041040,0,2060030,0,0
9,101,1439.8497894872,1,0,288194.643178591,288195.690256621,0,20,5,0,1,4,0,7322161,7411492,4141180,5210212,0,0,0,-3151111,0,0,0,0,4171050,0,2030191,0,1180111,0,0,4201190,0,0,0,0,0,0,0,0,0,0,4141180,3120041,0,0,0,0,0,0,2090171,0
9,102,921.656149497721,1,0,288198.290129738,288199.337216238,0,20,5,1,1,9,10,99994158,5241212,88374368,114312567,20310219,0,0,31912009,1160090,0,41301709,3120041,-2190090,1150021,0,0,0,0,0,0,3001131,1090060,4171031,0,0,0,31301809,31201009,21700519,0,0,0,2190101,20610319,0,40000109,20411319,0,31100719,0
9,103,1150.43652389431,0,0,288201.37240321,288202.419422342,0,20,5,1,0,25,20,128863786,133382926,93024787,138887766,0,40700509,0,4041121,0,31610219,31711309,10700319,10100309,3170081,40700019,31510419,11501419,0,11510219,3080050,0,31910719,21600709,0,1070101,11100409,3101120,20401209,-4051120,31700119,0,11400909,2191141,1180031,0,20600019,40711709,10800419,10702019,41301519
9,104,1441.42158509931,1,0,288204.61936991,288205.666400591,0,20,5,1,1,6,5,55114829,44440869,4422431,67226539,0,0,41701819,0,0,-3201101,10211909,0,0,0,3130160,41310709,0,0,0,0,0,0,0,0,1170101,0,0,0,0,1051180,2201150,1051100,2021020,31011919,0,0,32011319,0,0,1131181
9,105,1127.90937832324,0,0,288208.289852181,288209.336877088,0,20,5,0,0,32,5,5121251,51410918,44432609,34054291,0,0,1091050,0,0,0,4030201,0,0,0,0,10200509,0,0,0,0,41210409,0,0,11111109,30311319,0,0,0,3010181,0,0,2121010,0,3111070,21700819,-1070111,0,3000150,0,3051131
9,106,754.849100427236,1,0,288211.630941452,288212.677955579,0,20,5,0,1,23,20,90585129,86425067,180587825,143128623,0,20011909,2030201,3041091,21900419,0,3100190,40501319,0,20511519,10901719,0,1060111,40800509,2040000,0,0,11111209,41210419,4081030,20411809,40400809,-3150011,20511409,0,20211519,30610819,21611409,10910219,30801809,21910319,4071130,0,31301709,10910019,11612009
9,107,493.948738323525,0,0,288214.524972093,288215.571998154,0,20,5,1,0,15,20,210488844,50525800,95577616,109434907,10410719,31611709,41401519,41601009,20600819,20311819,2130140,1010101,41411009,21411619,11711309,0,0,11301419,-2000141,1021181,3080131,0,21311809,0,0,1151161,11300309,11011809,30701909,20100619,0,0,4111091,2100051,20511309,20600719,10901519,0,30700009,20510209
9,108,1135.1477993303,1,1,288217.136667361,288218.183688417,0,20,5,1,0,18,0,6373252,6302341,6121361,4180070,3111051,0,0,0,0,0,2161140,0,1101061,0,0,0,4201201,0,0,0,0,-2101140,0,2121200,0,4000161,0,0,0,0,0,0,0,0,0,0,4180070,0,0,0
9,109,967.682466958649,1,0,288220.418932671,288221.466001078,0,20,5,1,1,22,0,3041101,1050071,6441451,10332382,0,0,0,0,3041101,0,0,0,0,1050071,0,0,0,0,0,0,0,0,0,0,0,-3140161,2140120,0,0,0,1161170,0,0,0,2011111,0,4191080,0,0,4130191
9,110,1670.74321454857,0,0,288223.512984794,288224.559990452,0,20,5,0,0,35,5,51802960,37871659,42811170,36391580,0,0,0,40500609,4141101,4081120,3080130,0,0,3070181,0,11200519,0,0,21600909,0,0,2000050,0,0,0,40700019,2111151,0,0,0,0,3141160,30200419,0,0,0,0,0,-3050001,0
9,111,1636.71844004421,1,0,288227.312852829,288228.35987658,0,20,5,0,1,3,5,36082109,48383492,51212118,27511879,0,0,-1181180,0,30700909,4200020,0,0,0,0,0,1171041,3180071,0,42011309,2021071,0,0,0,0,30810109,0,0,0,20402009,0,0,0,1070140,0,0,0,4110070,1131150,21200519,0
9,112,1197.84446625272,0,0,288231.065691339,288232.11271509,0,20,5,1,0,29,10,46952327,90065660,43320869,75215028,10610509,0,0,0,11900809,0,20400919,4040090,0,10610019,0,40211819,0,32011509,0,1061081,2071101,4100131,0,0,0,0,0,40300809,0,0,3020060,4011030,-4201001,0,20300519,0,22011219,21610119,3081140,0
9,113,919.667826150544,1,0,288234.347963193,288235.394976166,0,20,5,1,1,8,10,63433597,37392389,80513890,117288366,0,0,10201619,0,21910219,30311609,0,-1010150,0,0,0,0,4021080,0,2071000,0,31300309,0,0,0,0,40702019,4160191,3090041,0,2051020,30510619,20711009,0,1091090,30012019,41311309,3051020,0,0,21111919
9,114,1163.17141742911,1,0,288237.371401157,288238.418424908,0,20,5,0,1,17,0,7400473,8162321,5190111,0,0,0,0,2080201,4160121,0,1160151,0,0,0,0,0,2031160,0,0,3020101,-3111060,0,0,0,0,0,1180020,0,0,4010091,0,0,0,0,0,0,0,0,0,0
9,115,1189.68752841465,0,0,288240.79484166,288241.841860022,0,20,5,0,0,5,20,134607287,177117883,123243855,104175088,31700619,21700819,30401409,1171111,-4070021,3041180,31410119,11112009,0,30211209,30411909,10511019,0,1071010,10511309,31300609,21800109,41300709,41400709,10510809,0,40010109,10811309,0,0,20510919,0,41001419,11201009,2000011,0,3010200,2131080,0,41701219,3130150
9,116,2598.28894218663,0,0,288244.077093497,288245.124119943,0,20,5,0,0,7,20,143976565,106594105,88643678,143055376,41210509,10701919,4171060,0,20700409,11711609,-4080031,10801019,40600009,4051020,30110019,10610019,0,41200209,0,10512019,0,10110819,10510709,0,4030131,41801309,20100709,11110709,1090111,0,0,41900109,40702009,4171030,10000009,20100419,2200200,0,2071091,21910509
9,117,2680.56318373419,0,0,288248.82990352,288249.876925346,0,20,5,1,0,1,5,49332972,83512357,13723550,7232181,-1120051,0,42010609,2101191,0,0,4101121,0,0,0,0,0,40800319,0,11511019,0,0,31201019,0,1050101,0,0,0,1051080,1011050,0,10611319,0,0,3121040,0,0,4111141,0,0,0
9,118,1360.44004239375,1,0,288253.723887196,288254.770917107,0,20,5,0,1,27,10,43011740,94222826,57614749,72393240,1100021,0,0,41911719,0,0,0,0,0,0,0,0,2110060,30810319,0,10901519,20000119,30400809,0,20310409,0,0,0,20201219,1001061,11901909,-4200151,1201030,2100081,2071071,0,0,32000119,3020030,0,32000909
9,119,1620.91232795501,0,0,288257.135560213,288258.18257742,0,20,5,0,0,36,0,3191242,3201060,7432483,2200140,0,0,1121081,2070161,0,0,0,0,0,0,0,0,0,0,0,3201060,0,0,2130041,0,0,0,0,0,1171090,1120191,3011161,0,0,0,0,0,0,0,0,-2200140
9,120,1203.26202188153,1,0,288260.958976695,288262.006005451,0,20,5,0,1,34,10,65274370,40404170,139156326,75402978,40400719,2111181,0,0,21601409,0,0,1161061,0,3121011,0,2181090,32011009,0,0,3091060,0,0,0,20311319,20311219,3171131,2141110,0,10310019,42000709,40910819,0,31601609,0,0,0,0,-3001060,0,40800309
9,121,843.904429289978,1,0,288269.076395948,288270.12341739,0,20,6,0,1,23,0,6281090,4030131,10231243,1011191,0,0,0,0,0,0,2160060,4121030,0,0,0,0,0,4030131,0,0,0,0,2000151,0,1181050,3030041,-4020001,0,0,0,0,0,0,0,1011191,0,0,0,0,0
9,122,739.08302426571,0,0,288272.029256708,288273.07627969,0,20,6,0,0,34,0,4181040,2181051,5400210,6183391,0,0,1161020,0,0,0,0,3020020,0,0,2181051,0,0,0,0,0,0,0,0,0,3200160,0,0,0,0,0,2200050,0,0,0,0,1111000,0,-4071190,0,1001201
9,123,781.876439519692,1,0,288275.017475363,288276.064473322,0,20,6,0,1,17,20,162656223,139236515,64366529,133195286,0,11210119,21812019,3101020,41400619,11810119,40110509,22001409,11210409,30911719,20910819,0,10910909,3150020,30611019,0,-1041020,41701009,3191160,10211809,3130041,4180180,0,0,30301009,3151121,10201209,21301409,40500409,0,0,20201309,10100309,40001709,1090141,0
9,124,695.694459311198,0,0,288277.864395637,288278.911445566,0,20,6,1,0,15,20,210488844,50525800,95577616,109434907,10410719,31611709,41401519,41601009,20600819,20311819,2130140,1010101,41411009,21411619,11711309,0,0,11301419,-2000141,1021181,3080131,0,21311809,0,0,1151161,11300309,11011809,30701909,20100619,0,0,4111091,2100051,20511309,20600719,10901519,0,30700009,20510209
9,125,1710.30180295929,0,0,288280.7349452,288281.781926605,0,20,6,0,0,31,20,198156712,106306775,152387087,59594189,22000919,41911509,20000009,31312009,20211619,0,20200109,10710519,31810019,12010719,4191170,31901409,3071030,0,21911509,21610519,11610419,0,41301319,11202009,4050071,0,3111131,0,40101219,30810119,21811219,2170010,0,30211909,-3160191,1000050,20001909,0,3050120,0
9,126,1095.55687423563,1,0,288284.593621796,288285.640636693,0,20,6,0,1,5,10,60174739,47795049,80032980,75913847,0,0,0,20811219,-4101020,31111409,0,0,4151091,3091031,0,0,10411419,11411519,21811009,0,1070071,0,31710919,41111719,0,3110181,3080121,0,1020040,0,0,0,0,20911119,0,31611309,0,0,20311409,3080010
9,127,941.149802645668,1,0,288287.769998205,288288.817022726,0,20,6,0,1,27,10,58856311,67643670,87262739,42604037,11011609,3201061,0,0,0,3191161,40301319,1151161,0,0,20410209,0,2160111,0,1031041,42001309,0,2041000,21210609,0,0,1160051,0,0,30401019,30411019,-4080041,21101419,0,0,0,0,0,10600609,0,10902009
9,128,971.850824309513,1,0,288290.95814749,288292.005167776,0,20,6,0,1,32,5,33741279,15312702,93532376,5131242,0,31610109,0,0,0,0,0,2131170,0,0,4100200,0,4110160,0,3081181,0,4021161,0,0,0,0,0,31510219,21500719,20210819,20310619,0,2050121,0,0,0,-1061101,0,0,0,2020020
9,129,773.045050154906,1,0,288294.111000474,288295.158019991,0,20,6,1,1,19,0,1041170,6300291,5200211,6431271,0,0,0,1041170,0,0,0,0,0,2160161,0,0,0,0,4140130,0,0,0,-2120100,0,0,3080111,0,0,0,0,0,1140040,0,4170121,1121110,0,0,0,0,0
9,130,1028.72688148636,0,0,288297.04038208,288298.087375805,0,20,6,1,0,22,0,3041101,1050071,6441451,10332382,0,0,0,0,3041101,0,0,0,0,1050071,0,0,0,0,0,0,0,0,0,0,0,-3140161,2140120,0,0,0,1161170,0,0,0,2011111,0,4191080,0,0,4130191
9,131,1895.7386527909,0,0,288300.240244957,288301.287265629,0,20,6,1,0,1,5,49332972,83512357,13723550,7232181,-1120051,0,42010609,2101191,0,0,4101121,0,0,0,0,0,40800319,0,11511019,0,0,31201019,0,1050101,0,0,0,1051080,1011050,0,10611319,0,0,3121040,0,0,4111141,0,0,0
9,132,1495.69954077015,0,0,288304.287196336,288305.334210078,0,20,6,1,0,25,20,128863786,133382926,93024787,138887766,0,40700509,0,4041121,0,31610219,31711309,10700319,10100309,3170081,40700019,31510419,11501419,0,11510219,3080050,0,31910719,21600709,0,1070101,11100409,3101120,20401209,-4051120,31700119,0,11400909,2191141,1180031,0,20600019,40711709,10800419,10702019,41301519
9,133,809.104728396051,1,0,288307.898843869,288308.945870315,0,20,6,1,1,21,5,14181939,75541739,47653619,6272200,0,0,0,0,4180030,0,0,0,10001909,0,2031021,42000409,0,31510309,0,0,0,0,30501009,0,-3041031,2160180,10900309,1051090,0,0,0,0,0,0,2171130,2041040,0,2060030,0,0
9,134,1104.5280044782,1,0,288310.769376493,288311.816377916,0,20,6,1,1,9,10,99994158,5241212,88374368,114312567,20310219,0,0,31912009,1160090,0,41301709,3120041,-2190090,1150021,0,0,0,0,0,0,3001131,1090060,4171031,0,0,0,31301809,31201009,21700519,0,0,0,2190101,20610319,0,40000109,20411319,0,31100719,0
9,135,1477.53785253735,1,0,288314.122206687,288315.169244682,0,20,6,1,1,18,0,6373252,6302341,6121361,4180070,3111051,0,0,0,0,0,2161140,0,1101061,0,0,0,4201201,0,0,0,0,-2101140,0,2121200,0,4000161,0,0,0,0,0,0,0,0,0,0,4180070,0,0,0
9,136,1036.10119363293,0,0,288317.698578323,288318.745596684,0,20,6,0,0,35,5,54683980,26101780,24331910,15621880,4090031,0,20600619,0,0,21701119,1151021,4081140,3060050,0,0,22010719,0,4091061,0,0,0,0,0,0,0,0,3130001,21201909,0,0,0,0,11400609,0,0,0,0,1171160,-3050111,0
9,137,1525.47357638832,0,0,288320.910254881,288321.957276323,0,20,6,1,0,8,10,63433597,37392389,80513890,117288366,0,0,10201619,0,21910219,30311609,0,-1010150,0,0,0,0,4021080,0,2071000,0,31300309,0,0,0,0,40702019,4160191,3090041,0,2051020,30510619,20711009,0,1091090,30012019,41311309,3051020,0,0,21111919
9,138,1891.19187893812,1,0,288324.545443932,288325.592467298,0,20,6,0,1,36,10,81885039,119703469,54212738,15613121,0,0,21711109,0,3141091,31210919,0,21701719,4120201,31000209,0,4061021,40401109,3140111,0,0,0,41101019,10210319,21600509,0,0,1091201,0,0,0,21310709,0,1061061,0,0,0,0,10210719,2160141,-2181200
9,139,952.182398817968,1,0,288328.486509103,288329.533533625,0,20,6,1,1,29,10,46952327,90065660,43320869,75215028,10610509,0,0,0,11900809,0,20400919,4040090,0,10610019,0,40211819,0,32011509,0,1061081,2071101,4100131,0,0,0,0,0,40300809,0,0,3020060,4011030,-4201001,0,20300519,0,22011219,21610119,3081140,0
9,140,1310.41821511462,0,0,288331.627604225,288332.698149476,0,20,6,0,0,3,5,69413030,32311528,14641800,12502313,4140090,0,-1060091,2201121,30300909,0,0,0,31710819,20900619,0,0,0,0,11410909,0,0,0,0,0,0,0,4130091,0,10511709,0,0,4100201,2141071,0,0,0,3081021,0,0,3180020
9,141,1292.14142361889,0,0,288335.027506676,288336.074529272,0,20,6,1,0,6,5,55114829,44440869,4422431,67226539,0,0,41701819,0,0,-3201101,10211909,0,0,0,3130160,41310709,0,0,0,0,0,0,0,0,1170101,0,0,0,0,1051180,2201150,1051100,2021020,31011919,0,0,32011319,0,0,1131181
9,142,1023.91332958359,1,0,288338.509830423,288339.556783727,0,20,6,0,1,4,20,134648885,116195077,185356685,112043756,1011160,0,32000009,-2071050,4131110,30811309,11500619,31211819,21911809,40101719,0,41911219,4070111,10110809,0,0,0,20001219,31910209,31701309,20410419,41811519,40210309,0,12001809,3151061,4160050,31800419,10210619,20910109,0,3080010,4041171,21600109,20401319,0
9,143,1262.57680676645,0,0,288341.697911185,288342.744932242,0,20,6,1,0,33,20,148692537,126975455,170806247,159545376,0,2110190,31710109,42000409,1171201,31600609,0,40100019,0,41300519,0,10510119,0,31310309,2051180,11101409,0,30701919,1080121,10700019,20910019,2030051,40101519,31001809,20611319,4161071,40210319,41810009,0,30500009,40011219,21101209,-3021090,21011809,0,2090031
9,144,1361.20803956874,0,0,288345.074284052,288346.121313578,0,20,6,0,0,7,0,7361092,5371222,7191251,3260300,0,0,0,0,3201041,0,-4160051,0,0,0,0,2181171,3190051,0,0,0,0,0,0,0,3051150,0,0,0,4140101,0,0,0,0,0,0,1130130,0,0,0,2130170
9,145,858.261933317408,1,0,288362.556150081,288363.603176142,0,20,7,1,1,1,5,49332972,83512357,13723550,7232181,-1120051,0,42010609,2101191,0,0,4101121,0,0,0,0,0,40800319,0,11511019,0,0,31201019,0,1050101,0,0,0,1051080,1011050,0,10611319,0,0,3121040,0,0,4111141,0,0,0
9,146,846.022484533023,0,0,288365.544304832,288366.591320884,0,20,7,1,0,19,0,1041170,6300291,5200211,6431271,0,0,0,1041170,0,0,0,0,0,2160161,0,0,0,0,4140130,0,0,0,-2120100,0,0,3080111,0,0,0,0,0,1140040,0,4170121,1121110,0,0,0,0,0
9,147,548.110050847754,0,0,288368.650100189,288369.697121245,0,20,7,0,0,7,5,62956297,42201128,10281361,1120021,0,2061070,2111130,11611109,0,20801119,-2110000,21111719,3150150,0,0,21201119,0,0,0,0,0,21000009,0,0,0,4000171,4100110,0,2181080,0,0,0,0,1120021,0,0,0,0,0,0
9,148,941.532838798594,0,0,288371.367669345,288372.414700026,0,20,7,1,0,9,10,99994158,5241212,88374368,114312567,20310219,0,0,31912009,1160090,0,41301709,3120041,-2190090,1150021,0,0,0,0,0,0,3001131,1090060,4171031,0,0,0,31301809,31201009,21700519,0,0,0,2190101,20610319,0,40000109,20411319,0,31100719,0
9,149,1319.62725124322,1,0,288374.414648441,288375.461667958,0,20,7,1,1,25,20,128863786,133382926,93024787,138887766,0,40700509,0,4041121,0,31610219,31711309,10700319,10100309,3170081,40700019,31510419,11501419,0,11510219,3080050,0,31910719,21600709,0,1070101,11100409,3101120,20401209,-4051120,31700119,0,11400909,2191141,1180031,0,20600019,40711709,10800419,10702019,41301519
9,150,877.329049690161,0,0,288377.849841418,288378.896866709,0,20,7,0,0,27,10,73222737,86613950,49926311,77874989,20911409,0,21510009,0,0,0,0,0,30801319,0,0,40911209,0,3171111,41511509,0,0,1020121,0,3011141,0,2091141,0,20600009,20101709,3061120,-1061191,30111319,10411919,0,3001071,31300619,0,0,0,3050061
9,151,1810.28848333517,0,0,288380.943880066,288381.990901123,0,20,7,0,0,32,20,89305257,131207448,140297706,150847804,1200041,11301319,0,3080170,0,0,41511309,11811709,20400709,3061011,10401309,2011150,0,31200919,41000909,41512009,0,2020141,2030031,0,3140200,31810409,40112019,0,10701809,31601319,20901919,11411119,31000209,11301119,10911909,-2201001,0,21611319,31300509,31110619
9,152,484.782047918998,0,0,288384.92023307,288385.967256821,0,20,7,1,0,21,5,14181939,75541739,47653619,6272200,0,0,0,0,4180030,0,0,0,10001909,0,2031021,42000409,0,31510309,0,0,0,0,30501009,0,-3041031,2160180,10900309,1051090,0,0,0,0,0,0,2171130,2041040,0,2060030,0,0
9,153,514.097210078035,0,0,288387.473102068,288388.52012428,0,20,7,1,0,22,0,3041101,1050071,6441451,10332382,0,0,0,0,3041101,0,0,0,0,1050071,0,0,0,0,0,0,0,0,0,0,0,-3140161,2140120,0,0,0,1161170,0,0,0,2011111,0,4191080,0,0,4130191
9,154,1584.33564717416,0,0,288390.143617446,288391.190643507,0,20,7,1,0,33,20,148692537,126975455,170806247,159545376,0,2110190,31710109,42000409,1171201,31600609,0,40100019,0,41300519,0,10510119,0,31310309,2051180,11101409,0,30701919,1080121,10700019,20910019,2030051,40101519,31001809,20611319,4161071,40210319,41810009,0,30500009,40011219,21101209,-3021090,21011809,0,2090031
9,155,748.370977351442,0,0,288393.884687314,288394.93171453,0,20,7,1,0,15,20,210488844,50525800,95577616,109434907,10410719,31611709,41401519,41601009,20600819,20311819,2130140,1010101,41411009,21411619,11711309,0,0,11301419,-2000141,1021181,3080131,0,21311809,0,0,1151161,11300309,11011809,30701909,20100619,0,0,4111091,2100051,20511309,20600719,10901519,0,30700009,20510209
9,156,840.690005279612,1,0,288396.696374421,288397.743410491,0,20,7,1,1,8,10,63433597,37392389,80513890,117288366,0,0,10201619,0,21910219,30311609,0,-1010150,0,0,0,0,4021080,0,2071000,0,31300309,0,0,0,0,40702019,4160191,3090041,0,2051020,30510619,20711009,0,1091090,30012019,41311309,3051020,0,0,21111919
9,157,1098.94068108406,0,0,288399.708058371,288400.755084432,0,20,7,0,0,23,0,0,13112384,10230391,2020120,0,0,0,0,0,0,0,0,0,3000011,0,4030111,0,2071121,0,0,0,4011141,4070031,0,4030170,0,-2130190,0,0,0,0,2020120,0,0,0,0,0,0,0,0
9,158,794.863867515232,1,0,288402.955026611,288404.002046513,0,20,7,0,1,17,5,53374049,38993081,36781240,3101171,10411119,0,40901919,0,0,0,2061011,0,0,0,2131080,0,4071151,0,0,30700719,-2090131,0,0,20200909,0,10210109,3170081,0,3200141,0,0,0,0,0,0,2011141,0,1090030,0,0
9,159,1944.36538155423,1,0,288405.825533828,288406.872563739,0,20,7,1,1,29,10,46952327,90065660,43320869,75215028,10610509,0,0,0,11900809,0,20400919,4040090,0,10610019,0,40211819,0,32011509,0,1061081,2071101,4100131,0,0,0,0,0,40300809,0,0,3020060,4011030,-4201001,0,20300519,0,22011219,21610119,3081140,0
9,160,1034.73073261557,1,0,288409.837186981,288410.884216122,0,20,7,1,1,6,5,55114829,44440869,4422431,67226539,0,0,41701819,0,0,-3201101,10211909,0,0,0,3130160,41310709,0,0,0,0,0,0,0,0,1170101,0,0,0,0,1051180,2201150,1051100,2021020,31011919,0,0,32011319,0,0,1131181
9,161,645.232621580362,1,0,288412.966514231,288414.013536058,0,20,7,0,1,4,10,33251778,95113147,54361869,14992879,0,0,0,-2140050,0,10900019,0,0,20211709,31510809,20800019,0,0,0,30611009,1090101,11101209,0,10900309,0,0,0,12000319,4201071,20210019,4000070,3050081,0,10800509,0,0,0,2000180,1001130,1191060,0
9,162,1368.82988165598,1,0,288415.684089162,288416.731108294,0,20,7,0,1,31,5,53163590,34754279,47782971,6101320,0,3081131,0,0,4201140,30201219,11510009,0,4170091,0,21101409,0,2141061,0,0,11511809,0,0,0,40700809,4031091,0,0,0,3051071,0,0,0,0,0,-4050160,0,2051160,0,0,0
9,163,1291.03581572417,1,0,288419.248692155,288420.295711672,0,20,7,0,1,5,20,142937818,127955197,97394996,276158554,41100719,1050041,10412019,2120201,-1191101,4151100,21300419,40811309,20800909,0,41101509,20000209,0,0,41100019,21501219,2071120,2181121,0,0,20600909,0,2081050,0,41901909,10900919,21910209,40711319,42010819,30001509,0,40401719,40700709,1030061,40501509,40800909
9,164,770.297583832871,1,0,288422.601533129,288423.648556495,0,20,7,0,1,3,0,12501381,0,3241231,7380270,2110030,0,-4161051,0,0,0,3160170,0,3070130,0,0,0,0,0,0,0,0,0,0,2141041,1100190,0,0,0,0,0,0,3200140,0,0,0,0,0,0,0,4180130
9,165,1230.42255750624,1,0,288425.507337416,288426.554357703,0,20,7,0,1,36,20,228097086,141328165,58913097,90375106,40311219,40111119,0,40911919,21500309,1130041,2120161,40301109,41711209,21100419,10900309,30701619,0,4111171,41300819,11511919,0,21701909,11010519,1010060,0,0,0,4141110,2040080,30510409,10200919,11411419,0,21311019,21500019,1150121,10010609,20800919,0,-4191000
9,166,780.985254968982,0,0,288428.977828234,288430.02485083,0,20,7,1,0,18,0,6373252,6302341,6121361,4180070,3111051,0,0,0,0,0,2161140,0,1101061,0,0,0,4201201,0,0,0,0,-2101140,0,2121200,0,4000161,0,0,0,0,0,0,0,0,0,0,4180070,0,0,0
9,167,1486.49204452522,1,0,288432.001272741,288433.048302267,0,20,7,0,1,35,0,4341242,1111110,8213171,8201271,0,0,0,0,0,0,3200081,0,1141161,0,0,0,0,0,0,1111110,0,0,0,0,0,3051040,1141061,0,0,4021070,0,0,4161201,0,0,0,0,0,-4040070,0
9,168,1687.67687736545,0,0,288435.612938752,288436.659965583,0,20,7,0,0,34,10,21411760,118747246,55445029,57563149,0,0,2020040,0,0,12011509,4180181,3200030,0,2111091,0,11111209,11112009,0,0,31911819,31001109,31500009,0,0,0,1050141,40312009,2071070,12011809,0,0,0,0,0,21800319,31600609,0,-1041061,0,3121160
9,169,1695.15358912759,0,0,288446.624393266,288447.671416632,0,20,8,0,0,36,20,113803999,151302322,188236784,83054090,30710819,0,1041031,0,1031121,0,41010809,0,40010219,20611419,30501409,21201519,1050020,11901419,11811309,31611809,11811809,10801609,0,41611409,40800719,0,11301609,21301019,41411519,31810509,0,0,30100119,10111009,1080040,3131161,30400419,1010010,4121131,-3100201
9,170,1339.08240834717,0,0,288450.518408124,288451.565427255,0,20,8,1,0,15,20,210488844,50525800,95577616,109434907,10410719,31611709,41401519,41601009,20600819,20311819,2130140,1010101,41411009,21411619,11711309,0,0,11301419,-2000141,1021181,3080131,0,21311809,0,0,1151161,11300309,11011809,30701909,20100619,0,0,4111091,2100051,20511309,20600719,10901519,0,30700009,20510209
9,171,750.376623996999,1,0,288454.035953104,288455.082978011,0,20,8,0,1,7,0,11233464,3150081,3051061,5221222,1171151,4041061,2020151,0,0,0,-4001101,0,0,0,0,0,0,0,0,0,0,3150081,0,0,0,0,0,3051061,0,0,0,1041171,4180051,0,0,0,0,0,0,0
9,172,736.263185215648,0,0,288456.977052922,288458.024073594,0,20,8,1,0,1,5,49332972,83512357,13723550,7232181,-1120051,0,42010609,2101191,0,0,4101121,0,0,0,0,0,40800319,0,11511019,0,0,31201019,0,1050101,0,0,0,1051080,1011050,0,10611319,0,0,3121040,0,0,4111141,0,0,0
9,173,892.423753917683,1,0,288459.76520929,288460.823994754,0,20,8,1,1,6,5,55114829,44440869,4422431,67226539,0,0,41701819,0,0,-3201101,10211909,0,0,0,3130160,41310709,0,0,0,0,0,0,0,0,1170101,0,0,0,0,1051180,2201150,1051100,2021020,31011919,0,0,32011319,0,0,1131181
9,174,1068.51067201933,0,0,288462.776888236,288463.823901978,0,20,8,0,0,32,0,7222282,3031090,3151291,3201331,2051020,4070101,0,1101161,0,0,0,0,0,0,0,3031090,0,0,0,0,0,0,0,0,0,0,0,0,2020131,0,1131160,0,0,0,2161140,-1040191,0,0,0,0
9,175,888.738137728069,1,0,288466.082681591,288467.129706497,0,20,8,1,1,18,0,6373252,6302341,6121361,4180070,3111051,0,0,0,0,0,2161140,0,1101061,0,0,0,4201201,0,0,0,0,-2101140,0,2121200,0,4000161,0,0,0,0,0,0,0,0,0,0,4180070,0,0,0
9,176,713.065822608769,1,0,288469.047301369,288470.094323965,0,20,8,0,1,5,5,42534370,7081101,108664187,7471262,1121161,0,0,0,-1101190,40312019,0,0,0,0,4080021,3001080,0,0,0,0,0,0,20810919,10600509,0,0,41211809,31910909,4130041,0,0,0,3140011,0,2180161,0,0,0,0,2151090
9,177,656.550088955555,0,0,288471.976626771,288473.023662071,0,20,8,0,0,3,20,170546435,134373906,110254847,88524625,31700509,3051110,-1061061,31110509,20801009,30600319,10711009,41510909,0,0,41701019,21100709,0,32000609,1080150,4121190,31200219,3170010,0,40300909,10300019,2171151,11511219,0,3071031,11200309,31700209,20501709,0,31110809,0,0,10800919,11310009,10611119,4190060
9,178,1361.87440698268,0,0,288474.682494654,288475.729499542,0,20,8,0,0,34,0,4001060,3040171,8143231,8182440,0,4001060,0,0,0,0,0,0,0,0,0,0,0,0,0,0,3040171,0,0,0,1051001,0,0,3091200,0,4001030,0,0,0,0,4101090,0,2010180,-2071170,0,0
9,179,2873.05906275287,0,0,288478.141162935,288479.188183992,0,20,8,0,0,31,20,78605818,206526973,219097444,68973228,20300719,0,2031081,40601719,0,1070050,4201040,0,10401209,40411019,30601309,10500019,31700019,30800009,10301509,1200151,30801519,20211419,40910609,41511619,41110619,4141050,0,40200709,0,30111219,21111619,10110609,1061180,0,-3121201,0,1180110,32000109,21500019,0
9,180,971.852364076767,0,0,288483.223424473,288484.270407033,0,20,8,0,0,35,5,75522439,4211212,16900360,83795200,41200909,0,0,3011011,0,0,31310519,0,0,0,0,0,3020101,0,0,0,1191111,0,0,0,1190150,0,0,0,0,4110091,11600119,41300909,0,0,4121171,31111809,3070180,0,-4191131,0
9,181,936.490235209931,0,0,288486.411520633,288487.458546309,0,20,8,0,0,23,10,58744118,69854499,83987078,42622539,0,12010619,20201009,0,4090140,0,1131041,0,21311309,3140181,3201090,0,31711819,31801409,0,0,0,0,31211709,11201709,10300419,4100031,-4081041,2091150,21001019,0,0,0,0,41601409,0,0,0,0,1021130,0
9,182,1115.25532661472,1,0,288489.446729548,288490.493753684,0,20,8,1,1,25,20,128863786,133382926,93024787,138887766,0,40700509,0,4041121,0,31610219,31711309,10700319,10100309,3170081,40700019,31510419,11501419,0,11510219,3080050,0,31910719,21600709,0,1070101,11100409,3101120,20401209,-4051120,31700119,0,11400909,2191141,1180031,0,20600019,40711709,10800419,10702019,41301519
9,183,1018.73098511714,1,0,288492.658454227,288493.705444486,0,20,8,1,1,8,10,63433597,37392389,80513890,117288366,0,0,10201619,0,21910219,30311609,0,-1010150,0,0,0,0,4021080,0,2071000,0,31300309,0,0,0,0,40702019,4160191,3090041,0,2051020,30510619,20711009,0,1091090,30012019,41311309,3051020,0,0,21111919
9,184,694.386361923534,0,0,288495.846550387,288496.893575293,0,20,8,0,0,17,10,69273628,107403589,53243938,60052610,11010409,4041061,0,0,1100140,31910109,0,0,21211909,0,41810419,0,0,21401919,0,40910119,-2161101,1120031,0,0,0,0,2121010,10611409,40511519,0,0,0,30800619,21901619,0,1050070,0,0,4150111,2150191
9,185,1977.4069658597,1,0,288498.693535719,288499.74056024,0,20,8,1,1,22,0,3041101,1050071,6441451,10332382,0,0,0,0,3041101,0,0,0,0,1050071,0,0,0,0,0,0,0,0,0,0,0,-3140161,2140120,0,0,0,1161170,0,0,0,2011111,0,4191080,0,0,4130191
9,186,1408.49471918773,1,0,288502.893416304,288503.940436206,0,20,8,0,1,27,5,1180110,63115589,77214128,4011071,0,1180110,0,0,0,0,0,0,0,4181180,1120040,4131101,10801919,1181130,0,41700219,0,0,0,0,40811809,20010509,4091071,0,0,10100609,-2200130,0,0,0,4011071,0,0,0,0,0
9,187,853.819483832922,0,0,288506.458026227,288507.505044589,0,20,8,0,0,4,10,47545650,117435126,40193369,44091759,0,30101709,1011071,-1071050,11200709,0,4161111,0,0,4111060,20502019,20510209,30411219,0,0,41900619,0,0,3000071,0,0,11510609,0,4191120,0,20301509,1190060,0,3071121,0,30410619,0,0,10610019,0,0
9,188,961.033036292065,1,0,288509.516760491,288510.563782702,0,20,8,1,1,9,10,99994158,5241212,88374368,114312567,20310219,0,0,31912009,1160090,0,41301709,3120041,-2190090,1150021,0,0,0,0,0,0,3001131,1090060,4171031,0,0,0,31301809,31201009,21700519,0,0,0,2190101,20610319,0,40000109,20411319,0,31100719,0
9,189,703.615416015964,1,0,288512.693141904,288513.740169505,0,20,8,1,1,21,5,14181939,75541739,47653619,6272200,0,0,0,0,4180030,0,0,0,10001909,0,2031021,42000409,0,31510309,0,0,0,0,30501009,0,-3041031,2160180,10900309,1051090,0,0,0,0,0,0,2171130,2041040,0,2060030,0,0
9,190,982.453034084756,1,0,288515.481300582,288516.528324718,0,20,8,1,1,29,10,46952327,90065660,43320869,75215028,10610509,0,0,0,11900809,0,20400919,4040090,0,10610019,0,40211819,0,32011509,0,1061081,2071101,4100131,0,0,0,0,0,40300809,0,0,3020060,4011030,-4201001,0,20300519,0,22011219,21610119,3081140,0
9,191,1610.95146305161,0,0,288518.704740393,288519.751763759,0,20,8,1,0,33,20,148692537,126975455,170806247,159545376,0,2110190,31710109,42000409,1171201,31600609,0,40100019,0,41300519,0,10510119,0,31310309,2051180,11101409,0,30701919,1080121,10700019,20910019,2030051,40101519,31001809,20611319,4161071,40210319,41810009,0,30500009,40011219,21101209,-3021090,21011809,0,2090031
9,192,694.156155281235,0,0,288522.457571588,288523.504594569,0,20,8,1,0,19,0,1041170,6300291,5200211,6431271,0,0,0,1041170,0,0,0,0,0,2160161,0,0,0,0,4140130,0,0,0,-2120100,0,0,3080111,0,0,0,0,0,1140040,0,4170121,1121110,0,0,0,0,0
9,193,810.596452094615,1,0,288547.656870112,288548.703893478,0,20,9,1,1,15,20,210488844,50525800,95577616,109434907,10410719,31611709,41401519,41601009,20600819,20311819,2130140,1010101,41411009,21411619,11711309,0,0,11301419,-2000141,1021181,3080131,0,21311809,0,0,1151161,11300309,11011809,30701909,20100619,0,0,4111091,2100051,20511309,20600719,10901519,0,30700009,20510209
9,194,544.452151807491,1,0,288550.692079797,288551.739110862,0,20,9,0,1,17,5,42222548,46663010,7350142,66652459,0,0,30911019,0,0,0,0,10300509,1011020,0,0,0,0,3180200,0,0,-3071101,40411709,3030040,2200081,0,0,0,0,0,2120021,0,1121100,0,31100319,30410019,0,0,0,4021021,0
9,195,1475.77511629788,0,0,288553.456717745,288554.503729947,0,20,9,1,0,33,20,148692537,126975455,170806247,159545376,0,2110190,31710109,42000409,1171201,31600609,0,40100019,0,41300519,0,10510119,0,31310309,2051180,11101409,0,30701919,1080121,10700019,20910019,2030051,40101519,31001809,20611319,4161071,40210319,41810009,0,30500009,40011219,21101209,-3021090,21011809,0,2090031
9,196,1694.41484904382,1,0,288557.138959418,288558.185986634,0,20,9,1,1,1,5,49332972,83512357,13723550,7232181,-1120051,0,42010609,2101191,0,0,4101121,0,0,0,0,0,40800319,0,11511019,0,0,31201019,0,1050101,0,0,0,1051080,1011050,0,10611319,0,0,3121040,0,0,4111141,0,0,0
9,197,649.725500959903,0,0,288561.044742148,288562.09175666,0,20,9,1,0,21,5,14181939,75541739,47653619,6272200,0,0,0,0,4180030,0,0,0,10001909,0,2031021,42000409,0,31510309,0,0,0,0,30501009,0,-3041031,2160180,10900309,1051090,0,0,0,0,0,0,2171130,2041040,0,2060030,0,0
9,198,1487.41749068722,1,0,288563.785834344,288564.83285925,0,20,9,0,1,32,5,16202110,51602949,66373868,7160261,0,2111051,12000909,0,0,2090150,0,0,0,0,40311719,3070160,0,0,0,4200020,0,4021050,22010809,30711919,0,2040131,0,11611009,0,0,0,0,3070130,0,0,-4090131,0,0,0,0
9,199,1558.65682626609,1,0,288567.385736718,288568.432756235,0,20,9,0,1,4,0,6172130,12532282,0,7141040,0,0,0,-2071030,0,0,0,0,4101100,0,2121000,0,0,4100080,3160011,0,0,3151191,0,0,0,0,0,0,0,0,0,0,0,0,0,0,0,3011030,4130010,0
9,200,1407.89071546169,1,0,288571.197387638,288572.244415239,0,20,9,0,1,31,20,199688433,148955236,114765595,123684938,41210919,0,2021120,30410419,10600809,41811009,30912019,31511819,11210319,21011519,41100919,0,40510719,41011909,4190000,0,0,1130170,0,40011519,1141120,11601609,0,21610719,10000619,0,30400009,0,40210009,2141081,-3180101,3101140,1140070,31600209,10400619,31911709
9,201,685.045284219086,0,0,288574.703178991,288575.750198508,0,20,9,1,0,19,0,1041170,6300291,5200211,6431271,0,0,0,1041170,0,0,0,0,0,2160161,0,0,0,0,4140130,0,0,0,-2120100,0,0,3080111,0,0,0,0,0,1140040,0,4170121,1121110,0,0,0,0,0
9,202,864.606089948211,1,0,288577.479617532,288578.526616646,0,20,9,1,1,8,10,63433597,37392389,80513890,117288366,0,0,10201619,0,21910219,30311609,0,-1010150,0,0,0,0,4021080,0,2071000,0,31300309,0,0,0,0,40702019,4160191,3090041,0,2051020,30510619,20711009,0,1091090,30012019,41311309,3051020,0,0,21111919
9,203,1066.56969885807,0,0,288580.526589314,288581.57356533,0,20,9,1,0,18,0,6373252,6302341,6121361,4180070,3111051,0,0,0,0,0,2161140,0,1101061,0,0,0,4201201,0,0,0,0,-2101140,0,2121200,0,4000161,0,0,0,0,0,0,0,0,0,0,4180070,0,0,0
9,204,1104.96955469716,0,0,288583.738217368,288584.785237654,0,20,9,0,0,36,10,75722349,96761347,92306910,58564478,0,41310809,0,0,31211409,0,0,3200131,0,40900609,0,41210219,0,11510419,3140100,0,0,0,20900519,0,3071061,2171191,0,40801809,21311319,0,4051011,0,11400519,0,0,1060200,1191190,0,40901519,-4011050
9,205,790.408329339698,1,0,288587.008712882,288588.055740868,0,20,9,0,1,7,0,5010102,13372262,0,5081322,0,3000021,0,0,0,0,-2010081,0,0,3131150,4031051,4110021,0,0,0,0,2100040,0,0,0,0,0,0,0,0,0,0,0,0,2060171,0,0,3021151,0,0,0
9,206,593.172041059006,1,0,288589.996869943,288591.043892154,0,20,9,1,1,9,10,99994158,5241212,88374368,114312567,20310219,0,0,31912009,1160090,0,41301709,3120041,-2190090,1150021,0,0,0,0,0,0,3001131,1090060,4171031,0,0,0,31301809,31201009,21700519,0,0,0,2190101,20610319,0,40000109,20411319,0,31100719,0
9,207,1065.70931104943,0,0,288592.773330427,288593.820277956,0,20,9,0,0,23,5,14693110,88294448,55213722,3150021,0,0,0,10401919,1160000,3131191,0,0,0,0,0,21900119,0,0,21601519,3081101,41711709,0,4110150,41711309,0,4190121,-2001121,0,0,0,3201021,0,0,0,0,0,0,0,3150021,0
9,208,1276.25215996522,0,0,288596.043757418,288597.090783094,0,20,9,1,0,22,0,3041101,1050071,6441451,10332382,0,0,0,0,3041101,0,0,0,0,1050071,0,0,0,0,0,0,0,0,0,0,0,-3140161,2140120,0,0,0,1161170,0,0,0,2011111,0,4191080,0,0,4130191
9,209,838.564635836519,1,0,288599.502481134,288600.54950373,0,20,9,0,1,5,10,44583720,103913346,69633988,77282950,4201180,0,0,11901019,-4170191,3001111,0,0,21310219,10511509,10301119,41300109,0,41800609,0,0,0,0,2190030,30600309,0,0,0,0,3001110,2041130,31801409,0,2041201,31210019,0,41001709,3030021,0,0,0
9,210,1429.27298712311,1,0,288602.537693128,288603.58471226,0,20,9,0,1,27,10,86472408,109792857,36042818,70194290,0,0,0,20700119,31600809,31010419,3161061,0,0,0,22000619,0,3171060,0,0,40700609,40810519,3110050,20410519,0,2081070,0,0,0,0,10401109,-3150120,2031201,0,0,21900819,4050091,0,0,40201109,2011070
9,211,694.78518149117,0,0,288606.114060528,288607.16108197,0,20,9,0,0,3,20,198779275,129055717,109996557,106597524,0,40502009,-3051081,41201119,40212019,31800819,21701819,0,20310409,40810719,1100170,0,2031171,0,22001709,21111819,1190120,40810009,11110819,30801319,40811619,4130160,21001409,0,1100190,1041041,0,10711009,30500009,0,20811109,0,10511409,3051060,21001419,10011509
9,212,900.317378516775,1,0,288608.937513967,288609.984535024,0,20,9,1,1,6,5,55114829,44440869,4422431,67226539,0,0,41701819,0,0,-3201101,10211909,0,0,0,3130160,41310709,0,0,0,0,0,0,0,0,1170101,0,0,0,0,1051180,2201150,1051100,2021020,31011919,0,0,32011319,0,0,1131181
9,213,1600.32923531253,1,0,288611.984485749,288613.0315095,0,20,9,0,1,35,20,157656993,106412727,139816134,86575069,21111809,21801119,41600419,0,10210709,11111809,10010919,0,41810209,0,0,0,11900919,10301309,4000061,40110119,40100319,0,40300109,12010519,0,3140050,30301919,10500719,2141100,10110309,31311409,20700809,4130011,3010060,1100160,3060081,40501909,0,-3171020,10901019
9,214,1198.32836219575,0,0,288615.678505688,288616.725523665,0,20,9,1,0,29,10,46952327,90065660,43320869,75215028,10610509,0,0,0,11900809,0,20400919,4040090,0,10610019,0,40211819,0,32011509,0,1061081,2071101,4100131,0,0,0,0,0,40300809,0,0,3020060,4011030,-4201001,0,20300519,0,22011219,21610119,3081140,0
9,215,1346.55758022564,0,0,288618.93723718,288619.984261316,0,20,9,1,0,25,20,128863786,133382926,93024787,138887766,0,40700509,0,4041121,0,31610219,31711309,10700319,10100309,3170081,40700019,31510419,11501419,0,11510219,3080050,0,31910719,21600709,0,1070101,11100409,3101120,20401209,-4051120,31700119,0,11400909,2191141,1180031,0,20600019,40711709,10800419,10702019,41301519
9,216,839.241012232378,0,0,288622.372433622,288623.419456988,0,20,9,0,0,34,0,7192231,4160201,7272222,5192171,0,0,0,0,0,4141140,0,0,3051091,3110020,0,0,0,0,0,0,0,1050181,0,4131091,0,0,0,0,0,0,3141131,0,0,3021051,0,0,0,-2171120,0,0
9,217,916.486508736853,0,0,288628.325193907,288629.372226513,0,20,10,0,0,4,20,77585617,158160422,108445159,127364496,0,3060020,10301709,-1110051,0,0,11011809,21700319,30401709,0,21111819,10811619,10700709,11010919,30000009,21511819,41011819,12001709,21301019,20200519,3130041,0,4110021,20701509,4090140,31910819,3001091,1200040,0,0,40201119,20000209,40401919,21401209,4160000,0
9,218,953.291086421814,1,0,288631.466293649,288632.513322404,0,20,10,0,1,27,0,0,4031291,9221261,4301262,0,0,0,0,0,0,0,0,0,0,0,1030120,0,3001171,0,0,0,0,0,0,0,0,0,4100081,2100000,0,-3021180,0,0,0,0,2140041,1010140,0,0,1151081
9,219,722.972793038934,1,0,288634.642674292,288635.689698813,0,20,10,0,1,17,5,70885069,2160100,45063839,27032880,0,3190060,0,40611109,21711409,1110150,2201171,0,2061170,0,0,0,0,0,0,0,-2160100,0,0,31301909,10601819,0,0,0,3160111,0,0,2021030,0,0,3101041,21910809,0,0,0,0
9,220,773.164773068856,1,0,288637.548478579,288638.595507335,0,20,10,0,1,3,0,3211090,5162262,5150151,4130210,0,0,-2170010,1041080,0,0,0,0,0,0,0,0,3021171,2141091,0,0,0,0,0,0,1110110,0,0,0,4040041,0,0,0,0,0,0,2010190,0,0,2120020,0
9,221,1373.4840596444,1,0,288640.407219079,288641.454243216,0,20,10,0,1,31,20,127835383,134565447,62794886,177145286,11501609,0,0,10801809,11110109,30410709,22000109,20810819,21200219,2010160,0,0,41701909,3101101,21210909,31501009,4030040,31010319,2031020,0,3160090,11301509,10400219,11710119,2191020,0,22000909,31101619,2030091,0,-1191120,0,40300219,30010909,40510619,32000709
9,222,1800.95895437989,0,0,288643.936532317,288644.983555298,0,20,10,0,0,34,5,57952750,11800119,57895359,8261392,4100151,2011121,0,40000309,0,10700019,1141150,0,0,0,0,0,0,0,11800119,0,0,0,0,0,21711609,0,4151000,2021031,0,0,30011719,0,3120190,0,0,0,1121011,-4020191,0,0
9,223,1780.59836913599,0,0,288647.912892249,288648.95991831,0,20,10,0,0,36,5,4211101,33520799,3131080,119987739,1120030,3091071,0,0,0,0,0,0,0,0,0,0,0,0,31410609,2110190,0,0,0,0,0,0,3131080,0,0,0,0,10602019,4200011,41301909,4160171,42010919,11601509,2100191,0,-4011010
9,224,712.788265780546,0,0,288651.818666509,288652.865693725,0,20,10,1,0,9,10,99994158,5241212,88374368,114312567,20310219,0,0,31912009,1160090,0,41301709,3120041,-2190090,1150021,0,0,0,0,0,0,3001131,1090060,4171031,0,0,0,31301809,31201009,21700519,0,0,0,2190101,20610319,0,40000109,20411319,0,31100719,0
9,225,1094.42970855162,1,0,288654.700937748,288655.747964964,0,20,10,1,1,6,5,55114829,44440869,4422431,67226539,0,0,41701819,0,0,-3201101,10211909,0,0,0,3130160,41310709,0,0,0,0,0,0,0,0,1170101,0,0,0,0,1051180,2201150,1051100,2021020,31011919,0,0,32011319,0,0,1131181
9,226,1943.94346437184,0,0,288658.018496665,288659.065514257,0,20,10,0,0,23,10,73236722,81911538,31923139,93016546,3011071,0,40011909,4151001,20910519,0,3081171,2071051,0,41311119,0,0,0,0,0,0,40600419,0,10811209,3081021,0,0,-3190130,0,10600619,3070060,1170100,0,0,0,10311409,21202009,0,0,20201809,41301319
9,227,2532.01252326835,0,0,288662.065445349,288663.112458321,0,20,10,0,0,35,10,25912539,87576606,99512878,22832160,0,1111020,0,2121160,20600209,0,0,0,2080150,10701409,0,2200120,0,1171150,0,21201509,11301109,41001309,0,0,1110001,4171111,0,21510919,20410019,10910219,41400609,0,0,0,0,0,20802019,0,-2030141,0
9,228,1155.99728497909,1,0,288666.712366084,288667.759396765,0,20,10,1,1,15,20,210488844,50525800,95577616,109434907,10410719,31611709,41401519,41601009,20600819,20311819,2130140,1010101,41411009,21411619,11711309,0,0,11301419,-2000141,1021181,3080131,0,21311809,0,0,1151161,11300309,11011809,30701909,20100619,0,0,4111091,2100051,20511309,20600719,10901519,0,30700009,20510209
9,229,634.403284813743,0,0,288670.029921151,288671.076947597,0,20,10,1,0,8,10,63433597,37392389,80513890,117288366,0,0,10201619,0,21910219,30311609,0,-1010150,0,0,0,0,4021080,0,2071000,0,31300309,0,0,0,0,40702019,4160191,3090041,0,2051020,30510619,20711009,0,1091090,30012019,41311309,3051020,0,0,21111919
9,230,702.857042953838,0,0,288672.85337305,288673.900384097,0,20,10,0,0,7,0,10460252,3170071,4032191,6261151,3100111,0,0,4190100,0,0,-3170041,0,0,0,0,0,0,0,3170071,0,0,0,3011120,0,0,0,1021071,0,0,0,0,0,0,3151031,0,0,0,0,3110120,0
9,231,906.177639146335,1,0,288675.618002529,288676.665033594,0,20,10,0,1,5,10,1160191,130224766,84245037,75763028,0,0,0,0,-1160191,0,0,0,0,31000119,2170020,41510909,1061120,11100509,0,3071080,0,40311009,10111109,0,22001819,4190121,20500409,0,21201419,2040080,4200080,3050100,0,0,0,0,0,0,30710909,42002019
9,232,1121.04475451633,1,0,288678.700265991,288679.747290513,0,20,10,1,1,21,5,14181939,75541739,47653619,6272200,0,0,0,0,4180030,0,0,0,10001909,0,2031021,42000409,0,31510309,0,0,0,0,30501009,0,-3041031,2160180,10900309,1051090,0,0,0,0,0,0,2171130,2041040,0,2060030,0,0
9,233,952.40259647835,1,0,288682.064883306,288683.111903977,0,20,10,1,1,22,0,3041101,1050071,6441451,10332382,0,0,0,0,3041101,0,0,0,0,1050071,0,0,0,0,0,0,0,0,0,0,0,-3140161,2140120,0,0,0,1161170,0,0,0,2011111,0,4191080,0,0,4130191
9,234,1368.54616535129,0,0,288685.276552935,288686.323577841,0,20,10,1,0,18,0,6373252,6302341,6121361,4180070,3111051,0,0,0,0,0,2161140,0,1101061,0,0,0,4201201,0,0,0,0,-2101140,0,2121200,0,4000161,0,0,0,0,0,0,0,0,0,0,4180070,0,0,0
9,235,1180.7060042629,0,0,288688.782398182,288689.829369194,0,20,10,1,0,29,10,46952327,90065660,43320869,75215028,10610509,0,0,0,11900809,0,20400919,4040090,0,10610019,0,40211819,0,32011509,0,1061081,2071101,4100131,0,0,0,0,0,40300809,0,0,3020060,4011030,-4201001,0,20300519,0,22011219,21610119,3081140,0
9,236,1352.55604196573,0,0,288692.123433943,288693.170448455,0,20,10,0,0,32,20,163287295,82387218,120992876,150689184,31100319,31101519,10601119,21412009,0,4171030,40910009,20810219,3181071,40912019,4121031,0,11101919,0,4050031,10202009,0,12000209,41912009,3120120,30410209,0,10810219,0,4140110,0,30600209,0,30801609,11501219,20410319,-3081040,31710819,41101709,1081150,11001319
9,237,830.537814821582,0,0,288695.558619991,288696.605643742,0,20,10,1,0,19,0,1041170,6300291,5200211,6431271,0,0,0,1041170,0,0,0,0,0,2160161,0,0,0,0,4140130,0,0,0,-2120100,0,0,3080111,0,0,0,0,0,1140040,0,4170121,1121110,0,0,0,0,0
9,238,1247.2599800094,1,0,288698.452662566,288699.499679773,0,20,10,1,1,25,20,128863786,133382926,93024787,138887766,0,40700509,0,4041121,0,31610219,31711309,10700319,10100309,3170081,40700019,31510419,11501419,0,11510219,3080050,0,31910719,21600709,0,1070101,11100409,3101120,20401209,-4051120,31700119,0,11400909,2191141,1180031,0,20600019,40711709,10800419,10702019,41301519
9,239,1340.04981524777,1,0,288701.829028889,288702.876057644,0,20,10,1,1,1,5,49332972,83512357,13723550,7232181,-1120051,0,42010609,2101191,0,0,4101121,0,0,0,0,0,40800319,0,11511019,0,0,31201019,0,1050101,0,0,0,1051080,1011050,0,10611319,0,0,3121040,0,0,4111141,0,0,0
9,240,1376.98874418857,1,0,288705.323060069,288706.370076121,0,20,10,1,1,33,20,148692537,126975455,170806247,159545376,0,2110190,31710109,42000409,1171201,31600609,0,40100019,0,41300519,0,10510119,0,31310309,2051180,11101409,0,30701919,1080121,10700019,20910019,2030051,40101519,31001809,20611319,4161071,40210319,41810009,0,30500009,40011219,21101209,-3021090,21011809,0,2090031
9,241,823.027611477301,0,0,288714.016927949,288715.06394862,0,20,11,1,0,15,20,210488844,50525800,95577616,109434907,10410719,31611709,41401519,41601009,20600819,20311819,2130140,1010101,41411009,21411619,11711309,0,0,11301419,-2000141,1021181,3080131,0,21311809,0,0,1151161,11300309,11011809,30701909,20100619,0,0,4111091,2100051,20511309,20600719,10901519,0,30700009,20510209
9,242,915.099879377522,0,0,288716.922739165,288717.969760607,0,20,11,0,0,3,20,161509826,165797365,151335097,109894617,31800319,20800819,-2031121,31601319,21101109,20201919,3161201,0,30812019,40601219,0,41001219,2190000,10202009,41701609,0,30101309,0,1050131,30500909,1160101,0,31000219,31110309,3101200,31401609,22010619,0,31611819,2090161,0,30900919,21610909,3170000,20510809,0
9,243,885.437867429573,0,0,288719.934409257,288720.981435703,0,20,11,0,0,34,0,4201120,4261111,5282371,10411143,0,0,0,0,0,4201120,0,0,0,0,0,2101000,0,0,0,2160111,0,0,0,0,0,0,4161180,0,0,1121191,0,0,0,0,0,4101071,0,-3120071,3190001,0
9,244,1258.58976610471,0,0,288722.993169698,288724.040171507,0,20,11,1,0,33,20,148692537,126975455,170806247,159545376,0,2110190,31710109,42000409,1171201,31600609,0,40100019,0,41300519,0,10510119,0,31310309,2051180,11101409,0,30701919,1080121,10700019,20910019,2030051,40101519,31001809,20611319,4161071,40210319,41810009,0,30500009,40011219,21101209,-3021090,21011809,0,2090031
9,245,834.412061958574,0,0,288726.428350741,288727.475370258,0,20,11,0,0,4,20,81995537,85956957,146067664,197009965,21111909,0,21311219,-1120001,4021060,2130010,20701119,0,11600219,2120051,10911909,0,30111509,20711219,20901219,0,0,1201050,1050170,10601119,0,30601919,30400909,31601419,20001719,0,21810409,2180160,0,11711609,31411319,42000519,42001609,31802019,4091111,31811619
9,246,797.899669676553,1,0,288729.404729537,288730.451754058,0,20,11,1,1,6,5,55114829,44440869,4422431,67226539,0,0,41701819,0,0,-3201101,10211909,0,0,0,3130160,41310709,0,0,0,0,0,0,0,0,1170101,0,0,0,0,1051180,2201150,1051100,2021020,31011919,0,0,32011319,0,0,1131181
9,247,1187.56215897156,0,0,288732.275267935,288733.322264739,0,20,11,0,0,35,0,3110040,6100281,10423312,6102240,0,0,0,0,0,0,0,3110040,0,0,0,0,3060151,0,0,0,3040130,0,3201181,0,3041041,0,0,0,0,0,4181090,0,0,0,0,2081180,0,0,-4021060,0
9,248,717.045164143201,1,0,288735.651620015,288736.698643381,0,20,11,1,1,21,5,14181939,75541739,47653619,6272200,0,0,0,0,4180030,0,0,0,10001909,0,2031021,42000409,0,31510309,0,0,0,0,30501009,0,-3041031,2160180,10900309,1051090,0,0,0,0,0,0,2171130,2041040,0,2060030,0,0
9,249,959.680668427609,1,0,288738.486889445,288739.533895488,0,20,11,0,1,17,5,5171142,55374560,8293243,82423147,0,0,0,0,2060011,0,3111131,0,0,21311619,0,0,30801709,0,0,0,-1200191,2061041,0,0,1101090,0,0,3091011,1010111,3091031,0,0,0,32010919,40310419,0,0,10101809,0,0
9,250,817.920719331596,1,0,288741.686742698,288742.733759135,0,20,11,0,1,23,5,4221230,24611909,39373241,26614078,1011120,1200110,0,0,0,0,0,0,2010000,20501819,0,0,4110090,0,0,0,0,0,0,21310219,10800719,0,-2071141,0,1170051,0,4021111,0,11812019,3101150,0,11700909,0,0,0,0
9,251,650.714465708006,1,0,288744.674960583,288745.721950072,0,20,11,1,1,22,0,3041101,1050071,6441451,10332382,0,0,0,0,3041101,0,0,0,0,1050071,0,0,0,0,0,0,0,0,0,0,0,-3140161,2140120,0,0,0,1161170,0,0,0,2011111,0,4191080,0,0,4130191
9,252,1904.64664943283,1,0,288747.521928977,288748.568896908,0,20,11,0,1,36,0,2031011,4031180,5322302,7241213,0,2031011,0,0,0,0,0,0,0,0,0,0,0,0,0,0,0,4031180,1071081,0,0,1170150,3081071,0,0,0,0,4011201,0,0,2120011,0,0,0,0,-1110001
9,253,737.595920043532,0,0,288751.662937097,288752.709957384,0,20,11,1,0,29,10,46952327,90065660,43320869,75215028,10610509,0,0,0,11900809,0,20400919,4040090,0,10610019,0,40211819,0,32011509,0,1061081,2071101,4100131,0,0,0,0,0,40300809,0,0,3020060,4011030,-4201001,0,20300519,0,22011219,21610119,3081140,0
9,254,1340.79086501151,1,0,288754.568744079,288755.615762441,0,20,11,0,1,31,10,79325617,27951299,67013658,46964869,0,31201219,0,3180100,2121080,0,0,22011909,20811309,0,11810009,0,10910109,0,0,4051100,1180081,0,0,0,42001319,0,0,10711209,0,11101019,3200111,0,0,10711719,-2071111,30000709,0,2130160,0,2051170
9,255,1749.622485484,1,0,288758.168638369,288759.215699461,0,20,11,0,1,7,10,33513809,86983520,106633766,66003209,20911509,0,0,10411109,0,0,-2191191,0,0,1021101,4200171,4180180,31901419,4120040,0,40410519,0,1150090,31810419,0,31801219,0,21711009,0,0,0,21311119,0,0,20410809,2121161,0,0,40310109,0,3161130
9,256,1802.28168028407,1,0,288762.039119793,288763.086138925,0,20,11,0,1,5,5,11150261,6312222,79194598,62112928,0,0,4040080,0,-3070131,0,0,0,4040050,0,0,0,0,0,2151101,0,3040051,1121070,4130061,10701019,0,1161190,0,0,0,31301609,31900719,0,40410919,21702009,0,0,0,0,0,0
9,257,1239.78018853813,1,0,288766.015468947,288767.062494623,0,20,11,0,1,32,10,55472239,29723860,78736046,93025248,0,22011619,3150111,0,0,0,30310509,0,0,0,4131120,0,21310419,1121170,0,0,0,3161151,30611019,10511919,0,11701209,0,0,0,21710809,4201090,0,4180090,20611219,0,-2180051,4041150,20311419,41701319,0
9,258,1394.94832791388,1,0,288769.509492043,288770.556515024,0,20,11,1,1,25,20,128863786,133382926,93024787,138887766,0,40700509,0,4041121,0,31610219,31711309,10700319,10100309,3170081,40700019,31510419,11501419,0,11510219,3080050,0,31910719,21600709,0,1070101,11100409,3101120,20401209,-4051120,31700119,0,11400909,2191141,1180031,0,20600019,40711709,10800419,10702019,41301519
9,259,1209.86448728945,0,0,288773.109393647,288774.156412394,0,20,11,1,0,9,10,99994158,5241212,88374368,114312567,20310219,0,0,31912009,1160090,0,41301709,3120041,-2190090,1150021,0,0,0,0,0,0,3001131,1090060,4171031,0,0,0,31301809,31201009,21700519,0,0,0,2190101,20610319,0,40000109,20411319,0,31100719,0
9,260,1701.52700284962,0,0,288776.438707346,288777.485735332,0,20,11,0,0,27,20,146476807,195677144,130163856,122969538,2161191,40411609,0,30001919,41511419,0,31310619,1080050,0,30610319,10210709,41510809,0,1120061,20101009,40501809,40611619,11010809,31802019,0,0,0,41210709,11310809,41810209,0,-4030110,4160191,30810809,1051031,10001809,4191030,1141131,20901909,30200419,20511209
9,261,865.547704510391,0,0,288780.379775982,288781.426798194,0,20,11,1,0,19,0,1041170,6300291,5200211,6431271,0,0,0,1041170,0,0,0,0,0,2160161,0,0,0,0,4140130,0,0,0,-2120100,0,0,3080111,0,0,0,0,0,1140040,0,4170121,1121110,0,0,0,0,0
9,262,961.225901730359,0,0,288783.414988361,288784.462013653,0,20,11,1,0,1,5,49332972,83512357,13723550,7232181,-1120051,0,42010609,2101191,0,0,4101121,0,0,0,0,0,40800319,0,11511019,0,0,31201019,0,1050101,0,0,0,1051080,1011050,0,10611319,0,0,3121040,0,0,4111141,0,0,0
9,263,718.544587085489,0,0,288786.485496656,288787.532537346,0,20,11,1,0,8,10,63433597,37392389,80513890,117288366,0,0,10201619,0,21910219,30311609,0,-1010150,0,0,0,0,4021080,0,2071000,0,31300309,0,0,0,0,40702019,4160191,3090041,0,2051020,30510619,20711009,0,1091090,30012019,41311309,3051020,0,0,21111919
9,264,816.773150698282,1,0,288789.391293244,288790.43837166,0,20,11,1,1,18,0,6373252,6302341,6121361,4180070,3111051,0,0,0,0,0,2161140,0,1101061,0,0,0,4201201,0,0,0,0,-2101140,0,2121200,0,4000161,0,0,0,0,0,0,0,0,0,0,4180070,0,0,0
9,265,633.837392262649,0,0,288795.438176485,288796.485201391,0,20,12,0,0,7,10,118624098,67024448,50303398,52112028,20801409,4020070,0,0,41510519,4121040,-4110080,2160171,41900809,0,0,2111140,11700209,21301019,0,1001171,30910909,0,0,21400219,3090160,21711909,0,0,0,0,4101110,0,0,0,0,0,41600409,0,10511619,0
9,266,1861.06791376369,0,0,288798.191044252,288799.238070313,0,20,12,1,0,33,20,148692537,126975455,170806247,159545376,0,2110190,31710109,42000409,1171201,31600609,0,40100019,0,41300519,0,10510119,0,31310309,2051180,11101409,0,30701919,1080121,10700019,20910019,2030051,40101519,31001809,20611319,4161071,40210319,41810009,0,30500009,40011219,21101209,-3021090,21011809,0,2090031
9,267,893.930876103695,1,0,288802.285047484,288803.332069695,0,20,12,1,1,18,0,6373252,6302341,6121361,4180070,3111051,0,0,0,0,0,2161140,0,1101061,0,0,0,4201201,0,0,0,0,-2101140,0,2121200,0,4000161,0,0,0,0,0,0,0,0,0,0,4180070,0,0,0
9,268,924.649221007712,0,0,288805.273237651,288806.320219057,0,20,12,0,0,23,20,159339385,79842987,169336959,135178665,10810819,30211719,31801109,20001309,2021060,20410319,41901819,1050051,1131180,0,20910119,21800219,0,0,12000909,4030121,0,21101619,4161081,40001519,0,40500309,-2001061,2061061,40200219,0,40411709,40301309,0,10100209,3051191,0,30201509,20101619,11111219,20311609
9,269,1304.92020270322,0,0,288808.331935729,288809.37895794,0,20,12,0,0,32,5,37213811,22423119,34273149,68191879,1011120,3100081,0,0,0,0,31911509,1191101,0,0,0,0,20402009,0,0,0,0,2021110,0,0,2201180,0,1170050,30901919,0,0,0,40600019,0,0,0,-4010150,0,21511509,2070201,0
9,270,663.183736207429,1,0,288811.73183818,288812.778863471,0,20,12,0,1,3,10,30240971,25272098,92444479,92645847,4180191,2060160,-2090001,0,21910619,0,0,0,0,0,0,3051170,11510619,0,0,10710309,0,0,11511109,0,0,0,4040081,41111819,31610419,4171051,0,0,0,3181131,22010519,31510419,0,11802019,2130050,22011709
9,271,1227.39522450138,1,0,288814.637642082,288815.684674303,0,20,12,0,1,27,10,14641400,54804608,42103351,96965615,0,0,0,2200041,0,0,11301209,1140150,0,0,0,10101009,0,10601819,0,2081090,1010171,31010519,0,0,4200141,0,3001081,30701019,0,0,-4201110,11101509,0,0,0,20610919,40200109,10611209,3040160,11401709
9,272,871.141572191846,0,0,288818.084605241,288819.131633611,0,20,12,1,0,19,0,1041170,6300291,5200211,6431271,0,0,0,1041170,0,0,0,0,0,2160161,0,0,0,0,4140130,0,0,0,-2120100,0,0,3080111,0,0,0,0,0,1140040,0,4170121,1121110,0,0,0,0,0
9,273,1094.40853568958,1,0,288821.037464076,288822.084493602,0,20,12,1,1,6,5,55114829,44440869,4422431,67226539,0,0,41701819,0,0,-3201101,10211909,0,0,0,3130160,41310709,0,0,0,0,0,0,0,0,1170101,0,0,0,0,1051180,2201150,1051100,2021020,31011919,0,0,32011319,0,0,1131181
9,274,779.441561491694,1,0,288824.284431931,288825.331457607,0,20,12,0,1,4,5,16983300,41620028,46213490,4072242,1191051,0,0,-2161010,0,3131130,0,0,10500109,0,0,0,0,0,30710019,0,0,10910009,0,12000719,0,2191101,0,2011061,0,30010609,0,1060011,2001081,1011150,0,0,0,0,0,0
9,275,677.90348851122,0,0,288827.307879903,288828.35489634,0,20,12,1,0,21,5,14181939,75541739,47653619,6272200,0,0,0,0,4180030,0,0,0,10001909,0,2031021,42000409,0,31510309,0,0,0,0,30501009,0,-3041031,2160180,10900309,1051090,0,0,0,0,0,0,2171130,2041040,0,2060030,0,0
9,276,589.616926561575,0,0,288830.037216161,288831.084240298,0,20,12,1,0,9,10,99994158,5241212,88374368,114312567,20310219,0,0,31912009,1160090,0,41301709,3120041,-2190090,1150021,0,0,0,0,0,0,3001131,1090060,4171031,0,0,0,31301809,31201009,21700519,0,0,0,2190101,20610319,0,40000109,20411319,0,31100719,0
9,277,1550.43867969653,1,0,288832.837146175,288833.884159533,0,20,12,0,1,34,20,229588745,210339313,82114830,85964728,31011409,20612019,1020061,41000309,41411319,40511209,30012009,3200091,20810319,30700219,0,42001419,21201809,21611219,31811919,0,41400919,21611809,30001309,20500009,1100171,0,4191140,1001071,4120121,21201009,0,11911819,40400609,31401109,0,0,0,-1090131,0,1161060
9,278,1090.13354423223,1,0,288836.460566969,288837.507588026,0,20,12,0,1,5,0,9342363,3110001,0,8362362,2021121,0,0,0,-2000121,3160040,0,0,2161081,3110001,0,0,0,0,0,0,0,0,0,0,0,0,0,0,0,0,0,0,0,0,2120190,3141011,0,0,3101161,0
9,279,909.011721785646,1,0,288839.754592067,288840.801610814,0,20,12,1,1,15,20,210488844,50525800,95577616,109434907,10410719,31611709,41401519,41601009,20600819,20311819,2130140,1010101,41411009,21411619,11711309,0,0,11301419,-2000141,1021181,3080131,0,21311809,0,0,1151161,11300309,11011809,30701909,20100619,0,0,4111091,2100051,20511309,20600719,10901519,0,30700009,20510209
9,280,1507.95246323105,0,0,288842.895679105,288843.942698621,0,20,12,0,0,36,0,7342323,0,4191192,7091361,1151161,0,3011121,3180041,0,0,0,0,0,0,0,0,0,0,0,0,0,0,3031001,0,0,0,0,0,0,0,1160191,0,0,0,0,0,4051080,2010111,0,-1030170
9,281,1125.6893085083,0,0,288846.624982641,288847.672008702,0,20,12,1,0,8,10,63433597,37392389,80513890,117288366,0,0,10201619,0,21910219,30311609,0,-1010150,0,0,0,0,4021080,0,2071000,0,31300309,0,0,0,0,40702019,4160191,3090041,0,2051020,30510619,20711009,0,1091090,30012019,41311309,3051020,0,0,21111919
9,282,1694.23892191844,1,0,288849.907247951,288850.954272858,0,20,12,1,1,29,10,46952327,90065660,43320869,75215028,10610509,0,0,0,11900809,0,20400919,4040090,0,10610019,0,40211819,0,32011509,0,1061081,2071101,4100131,0,0,0,0,0,40300809,0,0,3020060,4011030,-4201001,0,20300519,0,22011219,21610119,3081140,0
9,283,1670.32129736617,0,0,288853.80125588,288854.848286561,0,20,12,0,0,35,20,137904526,140006536,115385475,212225356,11310719,41200319,40401109,20811819,0,21010509,0,0,3170051,21401519,0,20700619,0,10601219,40210019,2020050,41911909,3161201,2171150,0,21110919,20600809,4180080,3001180,22000609,31710309,10610419,2180141,41602019,41811309,0,0,40600119,42000409,-4021140,40010219
9,284,1228.2898738049,1,0,288857.55409439,288858.601115831,0,20,12,1,1,25,20,128863786,133382926,93024787,138887766,0,40700509,0,4041121,0,31610219,31711309,10700319,10100309,3170081,40700019,31510419,11501419,0,11510219,3080050,0,31910719,21600709,0,1070101,11100409,3101120,20401209,-4051120,31700119,0,11400909,2191141,1180031,0,20600019,40711709,10800419,10702019,41301519
9,285,1195.84497902542,1,0,288861.024584052,288862.071607804,0,20,12,1,1,1,5,49332972,83512357,13723550,7232181,-1120051,0,42010609,2101191,0,0,4101121,0,0,0,0,0,40800319,0,11511019,0,0,31201019,0,1050101,0,0,0,1051080,1011050,0,10611319,0,0,3121040,0,0,4111141,0,0,0
9,286,896.802684932482,1,0,288864.424484578,288865.471501785,0,20,12,0,1,17,5,83943978,100653938,5250212,6151331,40701119,41111709,0,1091080,0,0,0,0,1040070,0,4190090,31701609,0,0,0,40501919,-4160111,20100209,0,0,0,0,0,1110021,0,4140191,0,0,0,2010170,0,0,4141161,0,0,0
9,287,1021.68440562673,1,0,288867.565572386,288868.612608841,0,20,12,0,1,31,0,3210222,3030070,2111061,10362614,1130081,0,0,0,2080141,0,0,0,0,0,0,0,0,3030070,0,0,0,0,0,0,0,0,0,0,0,0,2111061,4091151,0,0,-2191131,1050181,0,3030151,0,0
9,288,814.361755212303,0,0,288870.836069825,288871.883098195,0,20,12,1,0,22,0,3041101,1050071,6441451,10332382,0,0,0,0,3041101,0,0,0,0,1050071,0,0,0,0,0,0,0,0,0,0,0,-3140161,2140120,0,0,0,1161170,0,0,0,2011111,0,4191080,0,0,4130191
9,289,991.578918648884,1,0,288878.600620001,288879.647587933,0,20,13,1,1,18,0,6373252,6302341,6121361,4180070,3111051,0,0,0,0,0,2161140,0,1101061,0,0,0,4201201,0,0,0,0,-2101140,0,2121200,0,4000161,0,0,0,0,0,0,0,0,0,0,4180070,0,0,0
9,290,1186.31758017,0,0,288881.776944825,288882.823967807,0,20,13,0,0,32,0,10402383,0,8120171,8152292,3160121,4081121,0,0,0,0,3161141,0,0,0,0,0,0,0,0,0,0,0,0,0,0,4110100,0,0,0,0,4010071,3101011,0,0,0,-2051150,0,0,0,3000131
9,291,1013.71109421598,1,0,288885.200421901,288886.247437953,0,20,13,0,1,3,0,8272422,1101181,12423382,0,0,0,-2031181,0,0,2040171,0,4201070,0,0,1101181,0,0,0,0,0,0,0,0,0,2081111,2101140,4111060,0,0,4130071,0,0,0,0,0,0,0,0,0,0
9,292,1611.6093613673,0,0,288888.282638783,288889.329666769,0,20,13,0,0,35,20,107967006,74003957,152756695,118295956,3090190,3130010,20710109,0,3091050,21601009,4141200,20301919,31901519,0,10800609,21500219,0,30611409,0,1090011,10001709,0,0,21601709,40901219,11800519,21600209,11601919,4151101,0,41100019,21800519,11311009,1120061,30210109,11310819,0,30100819,-1131011,11311609
9,293,1588.26109406073,0,0,288891.964890466,288893.011914217,0,20,13,1,0,33,20,148692537,126975455,170806247,159545376,0,2110190,31710109,42000409,1171201,31600609,0,40100019,0,41300519,0,10510119,0,31310309,2051180,11101409,0,30701919,1080121,10700019,20910019,2030051,40101519,31001809,20611319,4161071,40210319,41810009,0,30500009,40011219,21101209,-3021090,21011809,0,2090031
9,294,2140.71433478966,0,0,288895.74125471,288896.788326196,0,20,13,0,0,31,5,36290589,48452350,53922188,6130182,0,4110130,0,0,0,1170050,31010409,0,0,0,0,31601819,2040051,1120050,11500309,0,0,2190121,0,0,0,10100719,41810309,0,0,2011160,0,0,4020021,0,-2110161,0,0,0,0,0
9,295,1722.83497697208,1,0,288899.941136835,288900.988156351,0,20,13,0,1,34,5,8393222,35333358,53174008,6041250,0,0,2161091,0,0,0,0,4151071,2081060,0,2191000,0,0,20601519,0,10500819,0,2040020,2151161,0,10011809,0,0,30010219,0,0,11000819,0,0,0,0,0,4030070,-2011180,0,0
9,296,1224.6697008959,0,0,288903.729266255,288904.776293856,0,20,13,1,0,6,5,55114829,44440869,4422431,67226539,0,0,41701819,0,0,-3201101,10211909,0,0,0,3130160,41310709,0,0,0,0,0,0,0,0,1170101,0,0,0,0,1051180,2201150,1051100,2021020,31011919,0,0,32011319,0,0,1131181
9,297,1233.22622821433,0,0,288907.199753608,288908.246781979,0,20,13,0,0,27,20,139866027,196178713,123164936,116365117,0,20900709,1121041,40300819,0,41811719,0,31701709,4030030,31900909,22002009,3101160,4140150,31110919,11810709,40611619,21400119,30101119,10910319,41211219,20800119,3151150,21801519,0,20100409,2190120,-3000081,20101619,0,0,0,2050051,0,41610819,30701419,21901209
9,298,618.488613690715,1,0,288910.611427011,288911.658457306,0,20,13,1,1,15,20,210488844,50525800,95577616,109434907,10410719,31611709,41401519,41601009,20600819,20311819,2130140,1010101,41411009,21411619,11711309,0,0,11301419,-2000141,1021181,3080131,0,21311809,0,0,1151161,11300309,11011809,30701909,20100619,0,0,4111091,2100051,20511309,20600719,10901519,0,30700009,20510209
9,299,1635.61899156775,1,0,288913.470180214,288914.517198191,0,20,13,1,1,1,5,49332972,83512357,13723550,7232181,-1120051,0,42010609,2101191,0,0,4101121,0,0,0,0,0,40800319,0,11511019,0,0,31201019,0,1050101,0,0,0,1051080,1011050,0,10611319,0,0,3121040,0,0,4111141,0,0,0
9,300,740.831901901402,0,0,288917.31713244,288918.364149262,0,20,13,1,0,8,10,63433597,37392389,80513890,117288366,0,0,10201619,0,21910219,30311609,0,-1010150,0,0,0,0,4021080,0,2071000,0,31300309,0,0,0,0,40702019,4160191,3090041,0,2051020,30510619,20711009,0,1091090,30012019,41311309,3051020,0,0,21111919
9,301,1356.09498806298,1,0,288920.281744134,288921.328767885,0,20,13,1,1,19,0,1041170,6300291,5200211,6431271,0,0,0,1041170,0,0,0,0,0,2160161,0,0,0,0,4140130,0,0,0,-2120100,0,0,3080111,0,0,0,0,0,1140040,0,4170121,1121110,0,0,0,0,0
9,302,1389.05072602211,1,0,288923.77576492,288924.822787131,0,20,13,1,1,29,10,46952327,90065660,43320869,75215028,10610509,0,0,0,11900809,0,20400919,4040090,0,10610019,0,40211819,0,32011509,0,1061081,2071101,4100131,0,0,0,0,0,40300809,0,0,3020060,4011030,-4201001,0,20300519,0,22011219,21610119,3081140,0
9,303,1169.63452700293,1,0,288927.258031693,288928.30504736,0,20,13,0,1,4,10,15681450,150249983,35501699,35536272,0,0,0,-4071031,0,11610419,0,0,0,11911409,0,21800719,31010509,32001519,31711909,10511909,11302009,0,0,0,0,0,4200090,31301609,0,0,0,3201071,3081021,1111090,4080050,1141011,0,0,21800909,1121120
9,304,701.738731353544,0,0,288930.599124813,288931.646124697,0,20,13,0,0,17,0,5131091,6142300,5471282,0,0,1051011,0,0,4080080,0,0,0,0,0,0,0,0,0,4121140,0,-2021160,0,0,1181061,0,0,1070060,0,0,2090090,1130071,0,0,0,0,0,0,0,0,0
9,305,1719.67367758043,1,0,288933.399091398,288934.446085508,0,20,13,1,1,25,20,128863786,133382926,93024787,138887766,0,40700509,0,4041121,0,31610219,31711309,10700319,10100309,3170081,40700019,31510419,11501419,0,11510219,3080050,0,31910719,21600709,0,1070101,11100409,3101120,20401209,-4051120,31700119,0,11400909,2191141,1180031,0,20600019,40711709,10800419,10702019,41301519
9,306,787.762877647765,0,0,288937.351922902,288938.398929715,0,20,13,0,0,23,10,27643369,75512188,89955036,56522218,0,0,10110909,2160000,3091191,0,11211209,0,1070060,0,0,31810819,2091050,41610319,0,0,0,0,20201519,3131090,0,11711619,-1030080,41000209,10700419,2180100,0,0,0,0,20411409,0,32010709,0,4100100,0
9,307,1035.61421803897,1,0,288940.340030303,288941.387033651,0,20,13,1,1,22,0,3041101,1050071,6441451,10332382,0,0,0,0,3041101,0,0,0,0,1050071,0,0,0,0,0,0,0,0,0,0,0,-3140161,2140120,0,0,0,1161170,0,0,0,2011111,0,4191080,0,0,4130191
9,308,1521.96042262949,1,0,288943.504624211,288944.551647193,0,20,13,0,1,36,10,164426655,49731661,48070749,56385149,0,0,20600509,31311709,40201509,41611609,0,0,30701319,0,0,0,40500519,0,4070120,1151001,0,4010021,0,3180010,0,3180111,21510519,0,0,20200109,0,2060171,0,0,0,20711309,0,31511419,1041150,-1061100
9,309,1018.03882530658,0,0,288947.257462336,288948.304489167,0,20,13,0,0,5,20,105314759,120855006,171800304,90884838,0,0,40300409,30000409,-1161141,0,2051081,31801719,0,2080111,2050001,20610619,10500209,40900009,0,11400819,11701319,21611919,11711619,41710609,40610019,12011619,30702009,3041191,20201619,11811619,0,11012009,0,0,41100009,2070151,11010819,2190001,21411819,2090030
9,310,2574.52453213045,1,0,288950.37501594,288951.42204893,0,20,13,1,1,9,10,99994158,5241212,88374368,114312567,20310219,0,0,31912009,1160090,0,41301709,3120041,-2190090,1150021,0,0,0,0,0,0,3001131,1090060,4171031,0,0,0,31301809,31201009,21700519,0,0,0,2190101,20610319,0,40000109,20411319,0,31100719,0
9,311,732.406261318829,0,0,288955.069007007,288956.116037688,0,20,13,1,0,21,5,14181939,75541739,47653619,6272200,0,0,0,0,4180030,0,0,0,10001909,0,2031021,42000409,0,31510309,0,0,0,0,30501009,0,-3041031,2160180,10900309,1051090,0,0,0,0,0,0,2171130,2041040,0,2060030,0,0
9,312,1292.79277753085,1,0,288957.986574162,288959.033592139,0,20,13,0,1,7,5,78165538,4190161,2160021,51706020,0,0,10211719,0,0,2081081,-4050110,20911709,40910919,0,4190161,0,0,0,0,0,0,0,0,0,0,0,0,1040001,0,0,1120020,2201191,3131080,0,0,0,4151121,11810719,30411909,0
9,313,832.07919850247,1,0,288965.292243944,288966.339271545,0,20,14,1,1,19,0,1041170,6300291,5200211,6431271,0,0,0,1041170,0,0,0,0,0,2160161,0,0,0,0,4140130,0,0,0,-2120100,0,0,3080111,0,0,0,0,0,1140040,0,4170121,1121110,0,0,0,0,0
9,314,534.334222844336,0,0,288968.198050156,288969.245076217,0,20,14,1,0,21,5,14181939,75541739,47653619,6272200,0,0,0,0,4180030,0,0,0,10001909,0,2031021,42000409,0,31510309,0,0,0,0,30501009,0,-3041031,2160180,10900309,1051090,0,0,0,0,0,0,2171130,2041040,0,2060030,0,0
9,315,1228.45617693383,0,0,288970.809748504,288971.85677264,0,20,14,1,0,18,0,6373252,6302341,6121361,4180070,3111051,0,0,0,0,0,2161140,0,1101061,0,0,0,4201201,0,0,0,0,-2101140,0,2121200,0,4000161,0,0,0,0,0,0,0,0,0,0,4180070,0,0,0
9,316,1293.38715726044,1,0,288974.244947255,288975.291964847,0,20,14,0,1,32,5,56780749,11301309,57732918,6452392,0,31810319,21810219,1050161,2110050,0,0,0,0,0,11301309,0,0,0,0,0,0,0,0,41501019,0,0,2011200,0,3110190,11110509,0,0,2170070,2130160,0,-1031011,0,0,1121151,0
9,317,2356.13964352524,1,0,288977.727194781,288978.774225076,0,20,14,0,1,5,20,72296327,178035803,125645328,66125057,0,0,11211819,10410419,-4151081,11411009,30911809,4200190,0,0,30010709,20911419,41011109,0,11401119,40700019,12001109,22000319,4060131,11400919,2111041,30600109,2011191,21600919,20010709,2040000,31810309,0,10900709,10510719,2061071,0,0,10010619,1031130,31610809
9,318,883.989259309601,0,0,288982.22118477,288983.268213141,0,20,14,0,0,23,20,147717206,148055673,105554459,71933487,40600709,10900909,1131090,0,40710319,3171151,41201319,0,10001709,11100709,10011709,0,20200619,21600409,11200109,3031000,30700209,40210909,0,4040031,21100409,40610619,-4141031,21600909,4051151,10010309,0,21411009,0,0,4101090,3190041,11510019,10310019,21411309,0
9,319,1395.93652274925,0,0,288985.162278814,288986.209307954,0,20,14,0,0,31,10,46333149,64645517,40922381,105974607,0,0,0,10911019,1110021,4001100,0,30311009,0,0,30701519,2040050,0,10701409,1201030,0,20001509,0,3010001,0,0,0,0,4120061,3081010,30711309,0,20401509,0,0,-1070071,0,22000009,21901609,0,40601409
9,320,1178.84972249158,0,0,288988.609241972,288989.656265338,0,20,14,1,0,8,10,63433597,37392389,80513890,117288366,0,0,10201619,0,21910219,30311609,0,-1010150,0,0,0,0,4021080,0,2071000,0,31300309,0,0,0,0,40702019,4160191,3090041,0,2051020,30510619,20711009,0,1091090,30012019,41311309,3051020,0,0,21111919
9,321,2012.95772561571,0,0,288991.915041871,288992.962059848,0,20,14,0,0,35,20,49395507,177360742,71725148,161962905,4001110,10602019,10610119,21111119,0,3071140,0,0,0,20010819,10310619,10601319,40802009,10111919,30511009,40901819,12011209,2100020,41711009,2080020,0,10601109,12011909,0,3200030,0,2121071,21310119,30911309,0,41610019,11610219,2181020,10110019,-3020191,41210009
9,322,1067.01317382976,1,0,288996.103159974,288997.150173716,0,20,14,1,1,25,20,128863786,133382926,93024787,138887766,0,40700509,0,4041121,0,31610219,31711309,10700319,10100309,3170081,40700019,31510419,11501419,0,11510219,3080050,0,31910719,21600709,0,1070101,11100409,3101120,20401209,-4051120,31700119,0,11400909,2191141,1180031,0,20600019,40711709,10800419,10702019,41301519
9,323,1146.00677811541,0,0,288999.408940625,289000.455968996,0,20,14,1,0,29,10,46952327,90065660,43320869,75215028,10610509,0,0,0,11900809,0,20400919,4040090,0,10610019,0,40211819,0,32011509,0,1061081,2071101,4100131,0,0,0,0,0,40300809,0,0,3020060,4011030,-4201001,0,20300519,0,22011219,21610119,3081140,0
9,324,974.878157256171,0,0,289002.644144843,289003.691163974,0,20,14,0,0,36,0,4150181,0,8162361,7463384,0,0,1050071,0,0,3100110,0,0,0,0,0,0,0,0,0,0,0,0,0,4021161,0,0,4141200,0,0,0,0,0,2121081,1161131,0,3060071,0,0,0,-1121101
9,325,811.524977965746,1,0,289005.72641023,289006.773434366,0,20,14,0,1,7,10,27332500,222667335,86193649,46692890,0,0,21010309,2151191,0,0,-4171000,0,0,41001419,0,40710919,30610309,30400409,40812019,4100181,32001009,3031070,3071201,0,0,40301519,0,0,0,40810909,2010020,0,4050121,1031150,0,0,41611619,0,0,0
9,326,2387.00080889976,1,0,289008.749855123,289009.796881569,0,20,14,1,1,9,10,99994158,5241212,88374368,114312567,20310219,0,0,31912009,1160090,0,41301709,3120041,-2190090,1150021,0,0,0,0,0,0,3001131,1090060,4171031,0,0,0,31301809,31201009,21700519,0,0,0,2190101,20610319,0,40000109,20411319,0,31100719,0
9,327,833.186731208116,0,0,289013.302674461,289014.349697827,0,20,14,0,0,4,5,50154179,5260221,36211809,65413218,2101050,0,21801419,-1030040,22000509,1020120,0,0,2201041,0,0,0,0,1160150,0,0,4100071,0,0,0,0,32011609,0,0,0,4200200,0,3101190,0,0,0,32011509,30300519,0,0,0
9,328,699.772350781132,1,0,289016.32615554,289017.373135406,0,20,14,0,1,3,0,6292402,5381382,0,8220162,1201111,0,-4091110,0,0,0,0,0,1000181,0,1041191,2170001,0,0,0,0,2170190,0,0,0,0,0,0,0,0,0,0,0,0,4020001,0,0,0,4200161,0,0
9,329,1187.46052926872,1,0,289019.102514009,289020.149530446,0,20,14,0,1,17,5,6100100,51923459,49313392,56854608,0,2070040,0,0,0,0,4030060,0,0,0,0,0,0,0,0,20001919,-1010021,30911519,41911909,0,0,0,0,1080191,3180191,0,3141101,0,40100519,0,0,0,11701919,3021080,2031090,0
9,330,1015.19550365629,1,0,289022.443588266,289023.490621256,0,20,14,1,1,1,5,49332972,83512357,13723550,7232181,-1120051,0,42010609,2101191,0,0,4101121,0,0,0,0,0,40800319,0,11511019,0,0,31201019,0,1050101,0,0,0,1051080,1011050,0,10611319,0,0,3121040,0,0,4111141,0,0,0
9,331,1677.42267221911,1,0,289025.549381698,289026.596412378,0,20,14,0,1,34,0,8301271,1091160,9243313,4131111,1130030,0,4170161,0,0,0,3001080,0,0,0,0,0,0,0,0,1091160,0,0,2111161,0,0,0,0,4001071,0,3131081,0,0,0,0,0,0,0,-4131111,0,0
9,332,1199.69689840218,0,0,289029.455166352,289030.502180864,0,20,14,1,0,6,5,55114829,44440869,4422431,67226539,0,0,41701819,0,0,-3201101,10211909,0,0,0,3130160,41310709,0,0,0,0,0,0,0,0,1170101,0,0,0,0,1051180,2201150,1051100,2021020,31011919,0,0,32011319,0,0,1131181
9,333,1374.64779661968,0,0,289032.749190295,289033.796206347,0,20,14,0,0,27,10,66673069,122517807,41134078,17053060,0,0,1151030,0,3010021,42000109,0,20511909,0,11302009,4100031,10401819,40310909,20510409,4091021,0,0,31801609,21500909,11511909,0,0,4110060,0,0,0,-4011200,0,0,4071101,0,0,2070150,0,10911809,0
9,334,1261.11511001363,1,0,289036.278496988,289037.325526514,0,20,14,1,1,15,20,210488844,50525800,95577616,109434907,10410719,31611709,41401519,41601009,20600819,20311819,2130140,1010101,41411009,21411619,11711309,0,0,11301419,-2000141,1021181,3080131,0,21311809,0,0,1151161,11300309,11011809,30701909,20100619,0,0,4111091,2100051,20511309,20600719,10901519,0,30700009,20510209
9,335,861.3978252979,1,0,289039.690162691,289040.737192217,0,20,14,1,1,22,0,3041101,1050071,6441451,10332382,0,0,0,0,3041101,0,0,0,0,1050071,0,0,0,0,0,0,0,0,0,0,0,-3140161,2140120,0,0,0,1161170,0,0,0,2011111,0,4191080,0,0,4130191
9,336,1571.94298395189,1,0,289042.76067291,289043.807690502,0,20,14,1,1,33,20,148692537,126975455,170806247,159545376,0,2110190,31710109,42000409,1171201,31600609,0,40100019,0,41300519,0,10510119,0,31310309,2051180,11101409,0,30701919,1080121,10700019,20910019,2030051,40101519,31001809,20611319,4161071,40210319,41810009,0,30500009,40011219,21101209,-3021090,21011809,0,2090031
9,337,1281.32248076145,1,0,289079.594927969,289080.64195634,0,20,15,0,1,32,5,59063260,26631289,44581370,35532460,0,0,4091051,40510219,0,0,10400919,4061071,0,0,0,3050090,0,21501009,0,2080190,0,0,0,0,0,4070061,40511309,0,0,0,0,2171040,2120190,0,30101219,-1140011,0,0,0,0
9,338,2622.62886884855,1,0,289083.006600216,289084.053623197,0,20,15,1,1,22,0,3041101,1050071,6441451,10332382,0,0,0,0,3041101,0,0,0,0,1050071,0,0,0,0,0,0,0,0,0,0,0,-3140161,2140120,0,0,0,1161170,0,0,0,2011111,0,4191080,0,0,4130191
