sub_id,Trial,RT,Resp,Error,Fix_onset,Disp_onset,q1,q2,block,repeat,tid,tloc,d_setsize,quad1,quad2,quad3,quad4,loc1,loc2,loc3,loc4,loc5,loc6,loc7,loc8,loc9,loc10,loc11,loc12,loc13,loc14,loc15,loc16,loc17,loc18,loc19,loc20,loc21,loc22,loc23,loc24,loc25,loc26,loc27,loc28,loc29,loc30,loc31,loc32,loc33,loc34,loc35,loc36
19,1,1283.76132179983,0,0,84702.3345768325,84703.3816825805,1,5,1,0,0,9,7,6441331,7312451,3160321,0,0,0,2171130,0,0,1190191,0,0,-3080010,1091050,4111201,0,0,0,0,0,2110200,0,2060180,0,1100141,0,0,0,0,0,0,0,0,0,0,0,0,0,0,0
19,2,721.820718186791,1,0,84705.7935296001,84706.8405964671,1,5,1,1,1,22,3,2201080,4160111,5271210,0,0,0,0,0,2201080,0,0,0,0,0,0,4160111,0,0,0,0,0,0,0,0,0,-4090200,0,1181010,0,0,0,0,0,0,0,0,0,0,0,0
19,3,1370.06187005318,1,0,84708.7112692172,84709.7583291548,1,5,1,0,1,27,7,8220323,8251211,4170161,1081031,2050091,0,0,2050071,0,0,4120161,0,0,2090070,0,0,2070101,0,0,4091040,0,0,0,0,0,0,0,0,0,0,-4170161,0,0,1081031,0,0,0,0,0,0
19,4,1290.27948078874,1,0,84712.1819294175,84713.2290132227,1,5,1,0,1,17,3,0,2071060,7211250,2021190,0,0,0,0,0,0,0,0,0,0,0,0,0,0,0,0,-2071060,0,4100100,0,0,0,0,0,0,3111150,0,0,0,0,0,0,0,0,0,2021190
19,5,810.747470139177,0,0,84715.7114366752,84716.7585212503,1,5,1,1,0,4,3,2110121,0,2110111,5251322,0,0,0,-2110121,0,0,0,0,0,0,0,0,0,0,0,0,0,0,2110111,0,0,0,0,0,0,0,0,0,0,0,0,0,0,1160181,0,4091141
19,6,1053.18240981433,1,0,84718.6291720576,84719.6762485486,1,5,1,1,1,32,3,0,6382122,0,2141331,0,0,0,0,0,0,0,0,0,0,0,0,0,4201041,2181081,0,0,0,0,0,0,0,0,0,0,0,0,0,1070191,0,0,-1071140,0,0,0,0
19,7,807.640450220788,0,0,84721.7586675355,84722.8057563452,1,5,1,0,0,6,7,10331332,6272282,0,8292253,0,3041051,0,4150151,0,-3140130,0,0,0,0,4201141,0,0,0,0,0,0,2071141,0,0,0,0,0,0,0,0,0,0,0,0,4020131,0,2141031,2131091,0,0
19,8,796.24060128117,1,0,84724.6528752589,84725.6999532897,1,5,1,0,1,26,3,0,4010121,4071252,1160120,0,0,0,0,0,0,0,0,0,4010121,0,0,0,0,0,0,0,0,0,0,0,3041201,0,0,0,-1030051,0,0,0,1160120,0,0,0,0,0,0
19,9,743.627986725187,1,0,84727.5705902384,84728.6176832827,1,5,1,1,1,13,7,6341252,10312431,0,6172422,0,0,3190171,3151081,0,0,0,0,0,0,4101101,4110180,-2101150,0,0,0,0,0,0,0,0,0,0,0,0,0,0,3050180,0,0,0,0,2011161,0,0,1111081
19,10,869.270775292534,0,0,84730.5706756997,84731.6177664343,1,5,1,1,0,29,7,9633451,6150321,0,6281180,0,0,4191060,0,0,3071110,0,1200150,1171131,0,3040181,0,0,3110140,0,0,0,0,0,0,0,0,0,0,0,0,0,0,-4180010,0,2101170,0,0,0,0,0
19,11,795.374824068858,1,0,84733.6766516027,84734.7237388726,1,5,1,1,1,5,3,3162272,0,3131040,1021051,2141091,0,0,0,-1021181,0,0,0,0,0,0,0,0,0,0,0,0,0,0,0,0,0,0,0,0,0,3131040,1021051,0,0,0,0,0,0,0,0
19,12,1235.31052019098,1,0,84736.5826183436,84737.6297071534,1,5,1,0,1,3,7,5101111,4180070,13282372,3170041,0,0,-4011020,0,0,0,0,0,1090091,0,0,0,0,0,4180070,0,0,0,4011031,0,1201050,4030120,0,4040171,0,0,0,0,0,0,0,0,0,3170041,0,0
19,13,1275.59129531437,0,1,84739.9944838414,84741.0415564827,1,5,1,1,1,19,7,4100242,7373333,2110270,3161110,2060171,2040071,0,0,0,0,0,0,0,0,0,0,3181131,3161131,0,1031071,0,0,-1030200,0,1080070,0,0,0,0,0,0,0,0,0,0,0,0,0,0,3161110
19,14,1101.97698154661,0,0,84743.4769373208,84744.5240157365,1,5,1,1,0,31,3,1160160,0,3121081,6212371,0,0,1160160,0,0,0,0,0,0,0,0,0,0,0,0,0,0,0,3121081,0,0,0,0,0,0,0,0,0,0,0,-4201201,0,0,0,2011170,0
19,15,934.328407791327,1,0,84746.8064461953,84747.8535311554,1,5,1,1,1,11,7,9202351,7241231,3150181,4350211,3080161,0,2091040,0,0,0,0,4031150,0,0,-3070170,0,0,0,0,0,4171061,0,0,0,0,3150181,0,0,0,0,0,0,0,0,0,0,0,0,1160060,3190151
19,16,1113.83069946896,0,0,84749.9242542583,84750.9712633811,1,5,1,0,0,25,3,4030121,0,10162301,0,0,0,0,4030121,0,0,0,0,0,0,0,0,0,0,0,0,0,0,0,0,0,0,0,3061200,-4051070,0,3050031,0,0,0,0,0,0,0,0,0
19,17,740.197214647196,0,0,84753.1125082525,84754.1595978321,1,5,1,0,0,16,3,1020160,8241121,1131040,0,0,1020160,0,0,0,0,0,0,0,0,0,0,0,0,0,-4050040,4191081,0,0,0,1131040,0,0,0,0,0,0,0,0,0,0,0,0,0,0,0
19,18,1175.82365775888,1,0,84755.9831802327,84757.0302621131,1,5,1,0,1,18,3,1181190,1181180,0,6152022,0,0,0,0,0,0,0,0,1181190,0,0,0,0,0,0,0,0,-1181180,0,0,0,0,0,0,0,0,0,0,0,3091011,3061011,0,0,0,0,0
19,19,539.715705468552,0,0,84759.2421350021,84760.289171842,1,5,1,0,0,14,3,4190010,7181270,0,2061151,4190010,0,0,0,0,0,0,0,0,3070190,0,0,0,-4111080,0,0,0,0,0,0,0,0,0,0,0,0,0,2061151,0,0,0,0,0,0,0,0
19,20,787.653662075172,0,0,84761.9480606291,84762.9951363502,1,5,1,1,0,12,7,5181121,7092130,0,9512400,2150031,0,0,0,0,0,0,0,3031090,0,0,-3021060,0,0,0,0,0,4071070,0,0,0,0,0,0,0,0,0,0,0,0,0,1030050,3190090,4141070,0,1151190
19,21,660.703161134734,0,0,84764.7951937864,84765.8422768217,1,5,1,0,0,1,7,6222212,0,8261232,11552191,-3131131,0,0,0,0,3091081,0,0,0,0,0,0,0,0,0,0,0,0,3140030,0,0,0,3020091,0,2101111,0,0,4191011,0,3181150,0,0,0,0,4180030,0
19,22,1044.5192483312,1,0,84767.7011566777,84768.7482381731,1,5,1,0,1,8,7,9342270,2220110,2141050,5230051,0,0,0,0,4111120,0,1110050,-4121100,0,0,0,0,0,0,1190010,1030100,0,0,0,0,0,0,0,0,0,2141050,0,0,3040031,0,0,0,2190020,0,0,0
19,23,857.954077917384,0,0,84770.8777263367,84771.9248012879,1,5,1,1,0,20,3,3320281,0,4061111,0,0,0,0,0,0,0,2160161,1160120,0,0,0,0,0,0,0,0,0,0,0,-3031010,0,0,0,0,1030101,0,0,0,0,0,0,0,0,0,0,0
19,24,1945.74711981113,0,0,84773.8307487807,84774.8778564535,1,5,1,1,0,21,7,7513191,1040120,8273372,4110171,2141010,0,0,0,0,0,0,2201171,3171010,0,1040120,0,0,0,0,0,0,0,4071011,0,-2141170,0,2061191,0,0,0,0,0,0,0,0,0,0,0,0,4110171
19,25,841.378043885925,1,0,84789.9841445599,84791.0312322147,1,5,2,0,1,8,7,9141321,4111180,1130061,6273251,0,0,0,3110180,4011020,0,0,-2020121,0,0,0,4111180,0,0,0,0,0,0,0,0,0,0,1130061,0,0,0,0,1011071,0,0,0,0,0,2191040,0,3071140
19,26,769.651732654893,1,0,84793.0077611449,84794.0548434103,1,5,2,0,1,1,3,4101020,5211132,4151130,0,-4101020,0,0,0,0,0,0,0,0,0,0,0,0,1120091,0,0,0,4091041,0,4151130,0,0,0,0,0,0,0,0,0,0,0,0,0,0,0,0
19,27,758.517891736119,1,0,84795.8548993066,84796.9019885013,1,5,2,1,1,5,3,3162272,0,3131040,1021051,2141091,0,0,0,-1021181,0,0,0,0,0,0,0,0,0,0,0,0,0,0,0,0,0,0,0,0,0,3131040,1021051,0,0,0,0,0,0,0,0
19,28,541.030347143533,0,0,84798.6902742163,84799.7373607162,1,5,2,0,0,16,7,3271151,2090031,8311332,4192211,2131060,0,0,0,0,0,1140091,0,0,0,0,0,0,0,0,-2090031,0,0,0,2050021,0,2090161,0,0,0,0,4171150,3101151,0,0,1091060,0,0,0,0,0
19,29,555.795139851398,1,0,84801.3844762422,84802.431574676,1,5,2,0,1,3,3,5311102,2141171,4171021,0,0,0,-1110041,0,4201061,0,0,0,0,0,0,0,0,0,0,0,0,2141171,0,0,0,0,0,0,4171021,0,0,0,0,0,0,0,0,0,0,0
19,30,716.859726278926,0,0,84804.0904315113,84805.137550733,1,5,2,0,0,27,3,3151110,0,2120191,1081130,0,0,1101030,0,0,2050080,0,0,0,0,0,0,0,0,0,0,0,0,0,0,0,0,0,0,0,0,-2120191,0,0,0,0,0,1081130,0,0,0
19,31,971.733909507748,0,0,84807.0434612696,84808.0905385305,1,5,2,1,0,31,3,1160160,0,3121081,6212371,0,0,1160160,0,0,0,0,0,0,0,0,0,0,0,0,0,0,0,3121081,0,0,0,0,0,0,0,0,0,0,0,-4201201,0,0,0,2011170,0
19,32,1174.82121940702,0,0,84810.149491837,84811.1965167432,1,5,2,1,0,29,7,9633451,6150321,0,6281180,0,0,4191060,0,0,3071110,0,1200150,1171131,0,3040181,0,0,3110140,0,0,0,0,0,0,0,0,0,0,0,0,0,0,-4180010,0,2101170,0,0,0,0,0
19,33,893.633799627423,0,0,84813.5377611526,84814.5848384135,1,5,2,1,0,11,7,9202351,7241231,3150181,4350211,3080161,0,2091040,0,0,0,0,4031150,0,0,-3070170,0,0,0,0,0,4171061,0,0,0,0,3150181,0,0,0,0,0,0,0,0,0,0,0,0,1160060,3190151
19,34,1914.63996440871,0,0,84816.5025657118,84817.5496329637,1,5,2,1,0,21,7,7513191,1040120,8273372,4110171,2141010,0,0,0,0,0,0,2201171,3171010,0,1040120,0,0,0,0,0,0,0,4071011,0,-2141170,0,2061191,0,0,0,0,0,0,0,0,0,0,0,0,4110171
19,35,1192.08710348175,1,0,84820.6320904467,84821.6791584685,1,5,2,0,1,17,3,0,3040180,5271252,4060181,0,0,0,0,0,0,0,0,0,0,0,0,0,0,0,0,-3040180,0,0,1080071,0,0,0,0,0,4191181,0,0,4060181,0,0,0,0,0,0,0
19,36,618.184607941657,1,0,84823.9851008029,84825.0322100155,1,5,2,1,1,4,3,2110121,0,2110111,5251322,0,0,0,-2110121,0,0,0,0,0,0,0,0,0,0,0,0,0,0,2110111,0,0,0,0,0,0,0,0,0,0,0,0,0,0,1160181,0,4091141
19,37,667.87575375929,0,0,84826.7851994299,84827.8322774607,1,5,2,0,0,6,7,4121262,0,4121170,10241352,0,0,0,0,1050090,-2041151,0,1030021,0,0,0,0,0,0,0,0,0,0,0,0,0,0,0,0,0,0,4121170,0,0,0,2061091,2080080,0,3070080,0,3030101
19,38,846.331336579169,0,0,84829.5147489563,84830.5617626986,1,5,2,1,0,19,7,4100242,7373333,2110270,3161110,2060171,2040071,0,0,0,0,0,0,0,0,0,0,3181131,3161131,0,1031071,0,0,-1030200,0,1080070,0,0,0,0,0,0,0,0,0,0,0,0,0,0,3161110
19,39,824.496350862319,0,0,84832.4206475591,84833.4677367538,1,5,2,0,0,18,7,11311212,6140181,1030131,6071122,0,0,4201021,0,4030030,0,0,3080161,0,0,0,0,0,0,0,0,3050060,-3090121,0,0,0,0,0,0,0,1030131,0,0,0,0,0,0,0,4061101,0,2010021
19,40,2049.31124237191,0,0,84835.3266112203,84836.3736996451,1,5,2,1,0,13,7,6341252,10312431,0,6172422,0,0,3190171,3151081,0,0,0,0,0,0,4101101,4110180,-2101150,0,0,0,0,0,0,0,0,0,0,0,0,0,0,3050180,0,0,0,0,2011161,0,0,1111081
19,41,955.591726480634,1,0,84839.5503124198,84840.5973515695,1,5,2,0,1,14,3,3201272,1101091,0,1101060,0,1070081,0,0,0,2131191,0,0,0,0,0,0,0,-1101091,0,0,0,0,0,0,0,0,0,0,0,0,0,0,0,0,0,0,0,1101060,0,0
19,42,970.832715887809,1,0,84842.668001145,84843.7151473139,1,5,2,0,1,26,7,0,2090031,5392402,6351272,0,0,0,0,0,0,0,0,0,0,0,0,0,0,0,0,0,2090031,2021101,1121140,0,0,0,1160141,0,-1090020,0,0,3060171,1201040,0,2090061,0,0,0,0
19,43,560.568270811928,0,0,84845.8563282817,84846.9034124719,1,5,2,1,0,22,3,2201080,4160111,5271210,0,0,0,0,0,2201080,0,0,0,0,0,0,4160111,0,0,0,0,0,0,0,0,0,-4090200,0,1181010,0,0,0,0,0,0,0,0,0,0,0,0
19,44,658.554309047759,1,0,84848.5034753745,84849.550546861,1,5,2,0,1,25,3,2071171,0,6321212,2131181,0,0,0,0,0,0,2071171,0,0,0,0,0,0,0,0,0,0,0,0,0,0,0,0,3201031,-3120181,0,0,0,0,0,0,0,0,0,2131181,0
19,45,589.006876849453,1,1,84851.2917784127,84852.3388541338,1,5,2,1,0,32,3,0,6382122,0,2141331,0,0,0,0,0,0,0,0,0,0,0,0,0,4201041,2181081,0,0,0,0,0,0,0,0,0,0,0,0,0,1070191,0,0,-1071140,0,0,0,0
19,46,506.143260048702,1,0,84854.0447932345,84855.0918770397,1,5,2,1,1,20,3,3320281,0,4061111,0,0,0,0,0,0,0,2160161,1160120,0,0,0,0,0,0,0,0,0,0,0,-3031010,0,0,0,0,1030101,0,0,0,0,0,0,0,0,0,0,0
19,47,881.576052401215,0,0,84856.6683991946,84857.7154945487,1,5,2,1,0,12,7,5181121,7092130,0,9512400,2150031,0,0,0,0,0,0,0,3031090,0,0,-3021060,0,0,0,0,0,4071070,0,0,0,0,0,0,0,0,0,0,0,0,0,1030050,3190090,4141070,0,1151190
19,48,686.555984386359,1,0,84859.7743670134,84860.8214554382,1,5,2,0,1,9,7,7281503,4160210,4100030,7152290,0,0,2150191,0,0,0,3071171,0,-2060141,0,0,0,2090080,0,0,0,0,2070130,0,0,0,0,4100030,0,0,0,0,4121090,0,0,0,3031200,0,0,0,0
19,49,885.098830156494,1,0,84872.9394498224,84873.9865343975,1,5,3,1,1,5,3,3162272,0,3131040,1021051,2141091,0,0,0,-1021181,0,0,0,0,0,0,0,0,0,0,0,0,0,0,0,0,0,0,0,0,0,3131040,1021051,0,0,0,0,0,0,0,0
19,50,536.052801922779,1,0,84876.033664783,84877.080741274,1,5,3,0,1,17,3,2070191,4190170,0,6330191,0,0,0,0,0,0,0,2070191,0,0,0,0,0,0,0,0,-4190170,0,0,0,0,0,0,0,0,0,0,0,3130011,0,0,0,0,0,0,3200180
19,51,1037.68619128095,0,0,84878.7749513841,84879.8220063173,1,5,3,1,0,31,3,1160160,0,3121081,6212371,0,0,1160160,0,0,0,0,0,0,0,0,0,0,0,0,0,0,0,3121081,0,0,0,0,0,0,0,0,0,0,0,-4201201,0,0,0,2011170,0
19,52,675.09377177339,1,0,84882.0573637497,84883.1044417805,1,5,3,1,1,32,3,0,6382122,0,2141331,0,0,0,0,0,0,0,0,0,0,0,0,0,4201041,2181081,0,0,0,0,0,0,0,0,0,0,0,0,0,1070191,0,0,-1071140,0,0,0,0
19,53,632.867018997786,1,0,84884.8927967884,84885.9398898327,1,5,3,0,1,8,7,5330261,10343453,1060011,1111171,0,0,4190120,0,0,0,0,-1140141,0,0,0,1091150,4130091,4111011,0,1011201,0,0,1060011,0,0,0,0,0,0,0,0,0,0,1111171,0,0,0,0,0,0
19,54,633.718937606318,1,0,84887.6457631051,84888.6928484502,1,5,3,0,1,26,3,0,2051060,1091130,6171361,0,0,0,0,0,0,0,0,0,0,2051060,0,0,0,0,0,0,0,0,0,0,0,0,0,0,-1091130,0,3070160,0,0,0,0,0,3101201,0,0
19,55,948.532312366297,1,0,84890.3399816844,84891.3870289184,1,5,3,0,1,25,3,7170172,0,4231330,0,0,3080131,0,0,0,0,0,0,4090041,0,0,0,0,0,0,0,0,0,1200150,0,0,0,0,0,-3031180,0,0,0,0,0,0,0,0,0,0,0
19,56,1394.93381280045,1,0,84893.5165143872,84894.5636570915,1,5,3,0,1,6,7,3302400,2120151,10571422,0,0,1171140,0,0,0,-1120120,0,1011140,0,2120151,0,0,0,0,0,0,0,0,2130101,0,3201110,0,2190020,0,3050191,0,0,0,0,0,0,0,0,0,0,0
19,57,701.283820846584,0,0,84897.0460285742,84898.0931119945,1,5,3,1,0,4,3,2110121,0,2110111,5251322,0,0,0,-2110121,0,0,0,0,0,0,0,0,0,0,0,0,0,0,2110111,0,0,0,0,0,0,0,0,0,0,0,0,0,0,1160181,0,4091141
19,58,739.443461076007,0,0,84899.8461102629,84900.8931913734,1,5,3,1,0,20,3,3320281,0,4061111,0,0,0,0,0,0,0,2160161,1160120,0,0,0,0,0,0,0,0,0,0,0,-3031010,0,0,0,0,1030101,0,0,0,0,0,0,0,0,0,0,0
19,59,1157.64811095141,1,0,84902.7285974649,84903.7756912791,1,5,3,0,1,1,7,3121212,7251271,7501470,0,-2021201,0,1100011,0,0,0,0,0,0,1030190,4201011,0,0,0,0,2020070,0,0,0,3201140,2140160,2160170,0,0,0,0,0,0,0,0,0,0,0,0,0,0
19,60,725.021668578847,1,0,84906.1404032937,84907.1875244401,1,5,3,1,1,12,7,5181121,7092130,0,9512400,2150031,0,0,0,0,0,0,0,3031090,0,0,-3021060,0,0,0,0,0,4071070,0,0,0,0,0,0,0,0,0,0,0,0,0,1030050,3190090,4141070,0,1151190
19,61,655.653628200525,0,0,84909.0346714559,84910.0816844283,1,5,3,1,0,11,7,9202351,7241231,3150181,4350211,3080161,0,2091040,0,0,0,0,4031150,0,0,-3070170,0,0,0,0,0,4171061,0,0,0,0,3150181,0,0,0,0,0,0,0,0,0,0,0,0,1160060,3190151
19,62,759.948021703167,0,0,84911.9052706785,84912.9523560235,1,5,3,0,0,3,3,5112082,2010180,0,0,0,0,-1051010,0,3051041,0,0,0,1010031,0,0,0,2010180,0,0,0,0,0,0,0,0,0,0,0,0,0,0,0,0,0,0,0,0,0,0,0
19,63,1813.67278847029,0,0,84914.7406401986,84915.7877317031,1,5,3,1,0,21,7,7513191,1040120,8273372,4110171,2141010,0,0,0,0,0,0,2201171,3171010,0,1040120,0,0,0,0,0,0,0,4071011,0,-2141170,0,2061191,0,0,0,0,0,0,0,0,0,0,0,0,4110171
19,64,1623.82967547455,0,0,84918.8114179661,84919.8584332482,1,5,3,0,0,27,7,7201251,5281380,7271231,8220291,3021061,0,0,0,0,0,4180190,0,0,0,0,0,0,4080180,0,1201200,0,0,0,0,0,0,3180130,0,0,0,-4091101,4140180,0,0,0,0,0,0,0,4080111
19,65,744.873335439479,0,0,84922.623241734,84923.6703220746,1,5,3,1,0,13,7,6341252,10312431,0,6172422,0,0,3190171,3151081,0,0,0,0,0,0,4101101,4110180,-2101150,0,0,0,0,0,0,0,0,0,0,0,0,0,0,3050180,0,0,0,0,2011161,0,0,1111081
19,66,716.973289774614,1,0,84925.4350728162,84926.4821539267,1,5,3,0,1,14,7,5193311,8272362,0,3140150,0,0,1061101,1101110,3031100,0,0,0,0,1070041,0,0,0,-1141181,0,0,2030030,4031110,0,0,0,0,0,0,0,0,0,0,3140150,0,0,0,0,0,0,0
19,67,798.140383616555,1,0,84928.3999143316,84929.4469507867,1,5,3,1,1,19,7,4100242,7373333,2110270,3161110,2060171,2040071,0,0,0,0,0,0,0,0,0,0,3181131,3161131,0,1031071,0,0,-1030200,0,1080070,0,0,0,0,0,0,0,0,0,0,0,0,0,0,3161110
19,68,575.353081483627,0,0,84931.3058294878,84932.3529109833,1,5,3,0,0,16,3,2170031,7262290,0,0,0,0,2170031,0,0,0,0,0,0,0,0,0,0,0,1110160,-2081080,0,4071050,0,0,0,0,0,0,0,0,0,0,0,0,0,0,0,0,0,0
19,69,973.914713336853,1,0,84934.0470845221,84935.0941594733,1,5,3,0,1,9,7,6242291,1101130,10431391,4031091,0,0,0,2061141,0,0,0,0,-4181150,1101130,0,0,0,0,0,0,0,0,1100120,0,0,2130121,0,0,4111060,3090090,0,0,0,0,0,0,0,0,0,4031091
19,70,1380.936632253,0,0,84937.2001161282,84938.2472345799,1,5,3,1,0,29,7,9633451,6150321,0,6281180,0,0,4191060,0,0,3071110,0,1200150,1171131,0,3040181,0,0,3110140,0,0,0,0,0,0,0,0,0,0,0,0,0,0,-4180010,0,2101170,0,0,0,0,0
19,71,541.310983695439,1,0,84940.7766829386,84941.8237667438,1,5,3,1,1,22,3,2201080,4160111,5271210,0,0,0,0,0,2201080,0,0,0,0,0,0,4160111,0,0,0,0,0,0,0,0,0,-4090200,0,1181010,0,0,0,0,0,0,0,0,0,0,0,0
19,72,952.791135481675,0,0,84943.5061878095,84944.5533170401,1,5,3,0,0,18,3,0,4342190,3070170,0,0,0,0,0,0,0,0,0,0,0,0,0,0,0,0,1131140,1140030,-2071020,0,3070170,0,0,0,0,0,0,0,0,0,0,0,0,0,0,0,0
19,73,804.640834408929,1,0,84954.0241266053,84955.0712073308,1,5,4,1,1,12,7,5181121,7092130,0,9512400,2150031,0,0,0,0,0,0,0,3031090,0,0,-3021060,0,0,0,0,0,4071070,0,0,0,0,0,0,0,0,0,0,0,0,0,1030050,3190090,4141070,0,1151190
19,74,615.780911684851,1,0,84957.0242109117,84958.0712893275,1,5,4,0,1,18,3,2140110,2030090,0,5272231,0,0,2140110,0,0,0,0,0,0,0,0,0,0,0,0,0,0,-2030090,0,0,0,0,0,0,0,0,0,0,0,3171101,0,0,2101130,0,0,0
19,75,955.755719856825,1,0,84959.8360635518,84960.8831365781,1,5,4,1,1,31,3,1160160,0,3121081,6212371,0,0,1160160,0,0,0,0,0,0,0,0,0,0,0,0,0,0,0,3121081,0,0,0,0,0,0,0,0,0,0,0,-4201201,0,0,0,2011170,0
19,76,884.417449255125,0,0,84962.8714310701,84963.9185221896,1,5,4,0,0,1,7,5222201,6423421,4190150,3030190,-1121020,2051070,2050111,0,0,0,0,0,0,0,0,0,0,1141190,3121040,2161191,0,0,0,0,0,0,0,0,0,4190150,0,0,0,0,0,0,0,0,0,3030190
19,77,471.716586267576,1,0,84966.0009592697,84967.0480265216,1,5,4,1,1,20,3,3320281,0,4061111,0,0,0,0,0,0,0,2160161,1160120,0,0,0,0,0,0,0,0,0,0,0,-3031010,0,0,0,0,1030101,0,0,0,0,0,0,0,0,0,0,0
19,78,595.515411827364,0,0,84968.6363092338,84969.6833953488,1,5,4,1,0,11,7,9202351,7241231,3150181,4350211,3080161,0,2091040,0,0,0,0,4031150,0,0,-3070170,0,0,0,0,0,4171061,0,0,0,0,3150181,0,0,0,0,0,0,0,0,0,0,0,0,1160060,3190151
19,79,495.930630699149,0,0,84971.365801786,84972.4128905957,1,5,4,0,0,9,3,5291200,1140071,0,1101171,4091120,0,0,0,0,0,0,0,-1200080,0,0,0,0,0,0,1140071,0,0,0,0,0,0,0,0,0,0,0,0,0,0,0,0,0,1101171,0,0
19,80,985.89084885316,0,0,84973.9658754675,84975.0129592728,1,5,4,1,0,21,7,7513191,1040120,8273372,4110171,2141010,0,0,0,0,0,0,2201171,3171010,0,1040120,0,0,0,0,0,0,0,4071011,0,-2141170,0,2061191,0,0,0,0,0,0,0,0,0,0,0,0,4110171
19,81,525.641532716691,0,0,84977.1659666263,84978.2130481218,1,5,4,1,0,22,3,2201080,4160111,5271210,0,0,0,0,0,2201080,0,0,0,0,0,0,4160111,0,0,0,0,0,0,0,0,0,-4090200,0,1181010,0,0,0,0,0,0,0,0,0,0,0,0
19,82,524.857367243385,0,0,84979.7778162636,84980.8248973741,1,5,4,1,0,4,3,2110121,0,2110111,5251322,0,0,0,-2110121,0,0,0,0,0,0,0,0,0,0,0,0,0,0,2110111,0,0,0,0,0,0,0,0,0,0,0,0,0,0,1160181,0,4091141
19,83,1071.42686464067,0,0,84982.5190651386,84983.5661397047,1,5,4,0,0,6,3,4161120,1191011,3111051,0,0,1140030,0,0,0,-3021090,0,0,0,0,0,0,0,0,1191011,0,0,0,0,0,0,0,0,0,0,3111051,0,0,0,0,0,0,0,0,0,0
19,84,425.714521319605,1,0,84985.6956224789,84986.7427882808,1,5,4,0,1,16,7,6391371,1190040,6100241,5392232,0,1061191,4140050,0,1190130,0,0,0,0,0,0,0,0,0,0,-1190040,0,0,0,0,0,0,4060170,0,0,2040071,0,4201151,0,0,0,1191081,0,0,0,0
19,85,1033.41427950363,1,0,84988.2721750457,84989.3192496119,1,5,4,1,1,13,7,6341252,10312431,0,6172422,0,0,3190171,3151081,0,0,0,0,0,0,4101101,4110180,-2101150,0,0,0,0,0,0,0,0,0,0,0,0,0,0,3050180,0,0,0,0,2011161,0,0,1111081
19,86,747.224292019382,1,0,84991.4722561955,84992.5193411556,1,5,4,0,1,3,7,2090171,6282291,0,11704552,0,0,-1030011,0,0,0,0,1060160,0,2091200,0,0,4191091,0,0,0,0,0,0,0,0,0,0,0,0,0,0,0,3191181,0,2161110,2171161,4181100,0,0,0
19,87,1501.724293179,1,0,84994.2958620786,84995.3429585875,1,5,4,0,1,26,7,6230231,5252092,6242342,4100151,2070111,0,0,0,4160120,0,0,0,0,0,0,0,0,0,2111031,0,3141061,0,0,0,0,0,0,0,1151200,-3041071,2050071,4100151,0,0,0,0,0,0,0,0
19,88,969.409900164464,1,0,84997.8959677119,84998.9430596013,1,5,4,1,1,32,3,0,6382122,0,2141331,0,0,0,0,0,0,0,0,0,0,0,0,0,4201041,2181081,0,0,0,0,0,0,0,0,0,0,0,0,0,1070191,0,0,-1071140,0,0,0,0
19,89,1003.43852433434,0,0,85001.048998933,85002.0960888976,1,5,4,1,0,19,7,4100242,7373333,2110270,3161110,2060171,2040071,0,0,0,0,0,0,0,0,0,0,3181131,3161131,0,1031071,0,0,-1030200,0,1080070,0,0,0,0,0,0,0,0,0,0,0,0,0,0,3161110
19,90,773.082504747435,1,0,85004.1902676719,85005.2373549418,1,5,4,0,1,8,7,7311432,2171110,4262270,3091181,0,0,0,2170121,0,2101201,0,-3040110,0,1140080,0,0,0,1031030,0,0,0,0,2081120,0,0,0,0,0,0,0,2181150,0,0,0,0,0,0,0,3091181,0
19,91,1312.68266888219,0,0,85007.0256841573,85008.0727313913,1,5,4,0,0,17,7,3160090,11492330,6220160,4120030,0,0,0,0,0,3160090,0,0,0,3181080,0,0,0,0,3170180,0,-4121050,1020020,0,0,0,0,0,0,0,3030060,3190100,0,0,0,0,0,4120030,0,0,0
19,92,1485.25874294864,1,0,85010.5080914414,85011.5551802511,1,5,4,1,1,29,7,9633451,6150321,0,6281180,0,0,4191060,0,0,3071110,0,1200150,1171131,0,3040181,0,0,3110140,0,0,0,0,0,0,0,0,0,0,0,0,0,0,-4180010,0,2101170,0,0,0,0,0
19,93,747.180791426217,1,0,85014.1552612469,85015.2023419725,1,5,4,1,1,5,3,3162272,0,3131040,1021051,2141091,0,0,0,-1021181,0,0,0,0,0,0,0,0,0,0,0,0,0,0,0,0,0,0,0,0,0,3131040,1021051,0,0,0,0,0,0,0,0
19,94,862.34956215776,1,0,85017.0847552619,85018.1318436867,1,5,4,0,1,14,3,2050130,2121162,0,3140171,0,2050130,0,0,0,0,0,0,0,1021111,0,0,0,-1100051,0,0,0,0,0,0,0,0,0,0,0,0,0,3140171,0,0,0,0,0,0,0,0
19,95,722.82623621868,0,0,85020.1554729755,85021.2025433071,1,5,4,0,0,25,3,0,0,12523460,0,0,0,0,0,0,0,0,0,0,0,0,0,0,0,0,0,0,0,3090100,0,4171010,0,0,0,-2201160,0,3061190,0,0,0,0,0,0,0,0,0
19,96,726.963411667384,0,0,85022.9672848096,85024.0144005666,1,5,4,0,0,27,3,1140140,1171091,8271141,0,0,0,0,1140140,0,0,0,0,0,0,0,0,0,0,0,0,0,1171091,0,0,0,0,4091111,0,0,0,-4180030,0,0,0,0,0,0,0,0,0
19,97,724.620539273019,0,0,85035.4735080885,85036.5205972832,1,5,5,0,0,1,3,2201091,1151021,2160021,2111131,-2201091,0,0,0,0,0,0,0,0,0,0,0,1151021,0,0,0,0,0,0,0,0,2160021,0,0,0,0,0,0,0,0,0,2111131,0,0,0,0
19,98,793.835750155267,0,0,85038.4383161123,85039.4853910635,1,5,5,0,0,17,3,0,4120051,4180090,7341122,0,0,0,0,0,0,0,0,0,0,0,0,0,0,0,0,-4120051,0,0,4180090,0,0,0,0,0,0,0,3191071,0,0,4150051,0,0,0,0,0
19,99,1284.21211108798,1,0,85041.4619969858,85042.5090014891,1,5,5,0,1,18,7,7292113,2090040,7181351,5212270,2101011,0,1081051,0,0,0,0,4110051,0,0,0,0,0,0,0,0,0,-2090040,0,4160201,0,0,0,3021150,0,0,0,0,0,0,0,0,1171090,4041180,0,0
19,100,497.297627094667,0,0,85044.9796778578,85046.0267543488,1,5,5,0,0,14,3,3081191,9301411,0,0,0,0,3081191,0,0,0,0,0,0,0,0,0,0,-2091110,0,4030161,0,3180140,0,0,0,0,0,0,0,0,0,0,0,0,0,0,0,0,0,0
19,101,619.56738770823,0,0,85047.5915063223,85048.6386009064,1,5,5,1,0,20,3,3320281,0,4061111,0,0,0,0,0,0,0,2160161,1160120,0,0,0,0,0,0,0,0,0,0,0,-3031010,0,0,0,0,1030101,0,0,0,0,0,0,0,0,0,0,0
19,102,1354.50790738105,0,0,85050.3445369275,85051.3916172681,1,5,5,0,0,27,7,3211232,7201181,9391401,2191120,2201171,0,0,0,0,0,0,1010061,0,3050150,0,0,4151031,0,0,0,0,0,0,0,0,0,4181201,0,0,1170020,-4040180,2191120,0,0,0,0,0,0,0,0
19,103,605.158683902118,1,0,85053.9328677598,85054.9799473305,1,5,5,1,1,4,3,2110121,0,2110111,5251322,0,0,0,-2110121,0,0,0,0,0,0,0,0,0,0,0,0,0,0,2110111,0,0,0,0,0,0,0,0,0,0,0,0,0,0,1160181,0,4091141
19,104,970.670262366184,1,0,85056.7800174704,85057.8271228334,1,5,5,1,1,31,3,1160160,0,3121081,6212371,0,0,1160160,0,0,0,0,0,0,0,0,0,0,0,0,0,0,0,3121081,0,0,0,0,0,0,0,0,0,0,0,-4201201,0,0,0,2011170,0
19,105,682.365299362573,1,0,85059.8624541655,85060.9095383557,1,5,5,1,1,12,7,5181121,7092130,0,9512400,2150031,0,0,0,0,0,0,0,3031090,0,0,-3021060,0,0,0,0,0,4071070,0,0,0,0,0,0,0,0,0,0,0,0,0,1030050,3190090,4141070,0,1151190
19,106,747.946863732068,0,0,85062.6037030404,85063.65079339,1,5,5,0,0,16,7,4110020,5121141,5200211,7272193,0,0,0,0,0,0,0,0,4110020,0,0,0,0,0,0,-1061101,4060040,0,0,0,3160051,0,0,0,0,0,2040160,3131051,0,0,0,1121081,3020061,0,0,0
19,107,1143.03306805959,1,0,85065.5096740159,85066.5567501219,1,5,5,1,1,13,7,6341252,10312431,0,6172422,0,0,3190171,3151081,0,0,0,0,0,0,4101101,4110180,-2101150,0,0,0,0,0,0,0,0,0,0,0,0,0,0,3050180,0,0,0,0,2011161,0,0,1111081
19,108,537.564928570646,1,0,85068.8980130095,85069.9450929651,1,5,5,1,1,11,7,9202351,7241231,3150181,4350211,3080161,0,2091040,0,0,0,0,4031150,0,0,-3070170,0,0,0,0,0,4171061,0,0,0,0,3150181,0,0,0,0,0,0,0,0,0,0,0,0,1160060,3190151
19,109,832.736825192114,1,0,85071.6039694334,85072.6510524687,1,5,5,0,1,6,3,3141100,4130190,2010011,4101110,0,0,0,0,0,-3141100,0,0,0,0,0,4130190,0,0,0,0,0,0,2010011,0,0,0,0,0,0,0,0,4101110,0,0,0,0,0,0,0,0
19,110,833.213021905976,0,0,85074.6275783193,85075.6746586598,1,5,5,1,0,22,3,2201080,4160111,5271210,0,0,0,0,0,2201080,0,0,0,0,0,0,4160111,0,0,0,0,0,0,0,0,0,-4090200,0,1181010,0,0,0,0,0,0,0,0,0,0,0,0
19,111,505.377957655583,0,0,85077.6041392012,85078.6512233914,1,5,5,1,0,5,3,3162272,0,3131040,1021051,2141091,0,0,0,-1021181,0,0,0,0,0,0,0,0,0,0,0,0,0,0,0,0,0,0,0,0,0,3131040,1021051,0,0,0,0,0,0,0,0
19,112,597.383242406067,0,0,85080.3453953904,85081.3924738062,1,5,5,0,0,3,3,8431332,3081081,0,0,3150160,0,-4201021,0,1080151,0,0,0,0,0,0,0,0,0,3081081,0,0,0,0,0,0,0,0,0,0,0,0,0,0,0,0,0,0,0,0,0
19,113,884.191092220135,1,0,85082.9925282397,85084.0396101201,1,5,5,0,1,8,7,9321281,1200051,2131110,8242262,0,0,4081081,0,0,2060060,0,-3180140,0,0,0,0,0,1200051,0,0,0,0,0,0,0,0,0,0,0,0,2131110,4021011,0,0,0,0,0,0,2061050,2160201
19,114,939.916116141831,0,0,85086.0867832363,85087.1338774355,1,5,5,1,0,21,7,7513191,1040120,8273372,4110171,2141010,0,0,0,0,0,0,2201171,3171010,0,1040120,0,0,0,0,0,0,0,4071011,0,-2141170,0,2061191,0,0,0,0,0,0,0,0,0,0,0,0,4110171
19,115,1119.30368945468,0,0,85089.1221126435,85090.1692002984,1,5,5,1,0,29,7,9633451,6150321,0,6281180,0,0,4191060,0,0,3071110,0,1200150,1171131,0,3040181,0,0,3110140,0,0,0,0,0,0,0,0,0,0,0,0,0,0,-4180010,0,2101170,0,0,0,0,0
19,116,1004.19959214923,1,0,85092.3104413201,85093.3575170412,1,5,5,0,1,25,7,2262361,6292111,6041171,6251130,0,0,0,1151161,0,0,0,0,1111200,0,0,4181010,0,0,0,0,0,2111101,0,0,0,0,0,0,-3010081,3031090,0,0,0,0,3050030,0,0,3201100,0,0
19,117,687.483740301104,1,0,85095.5458318592,85096.5929164343,1,5,5,1,1,32,3,0,6382122,0,2141331,0,0,0,0,0,0,0,0,0,0,0,0,0,4201041,2181081,0,0,0,0,0,0,0,0,0,0,0,0,0,1070191,0,0,-1071140,0,0,0,0
19,118,576.511813967954,1,0,85098.4400299585,85099.4871068345,1,5,5,0,1,9,7,7383403,3071140,2180030,3242272,0,0,0,2110131,2011031,0,2121140,0,-1141101,0,0,0,0,0,0,0,0,3071140,0,0,0,0,0,2180030,0,0,0,0,2091111,1151161,0,0,0,0,0,0
19,119,927.523067919537,1,0,85101.2048172714,85102.251897612,1,5,5,1,1,19,7,4100242,7373333,2110270,3161110,2060171,2040071,0,0,0,0,0,0,0,0,0,0,3181131,3161131,0,1031071,0,0,-1030200,0,1080070,0,0,0,0,0,0,0,0,0,0,0,0,0,0,3161110
19,120,597.05487069732,1,0,85104.2401940289,85105.2872782191,1,5,5,0,1,26,3,1041030,3071261,4130031,0,0,0,0,0,0,0,0,0,1041030,0,0,2010091,1061170,0,0,0,0,0,0,0,0,0,0,0,0,-4130031,0,0,0,0,0,0,0,0,0,0
19,121,770.013210989418,1,0,85111.2992150886,85112.346297354,1,5,6,0,1,17,7,1201170,3131031,5300150,10522512,0,0,0,0,1201170,0,0,0,0,0,0,0,0,0,0,0,-3131031,0,0,0,0,1160050,4140100,0,0,0,0,4171191,0,0,0,2160010,0,3141160,1050151,0
19,122,523.218973394251,1,0,85114.2051825994,85115.2522633249,1,5,6,0,1,16,3,7231060,6112232,0,0,3100030,0,0,0,0,0,0,4131030,0,0,0,0,4081131,0,0,-2031101,0,0,0,0,0,0,0,0,0,0,0,0,0,0,0,0,0,0,0,0
19,123,559.806818026118,0,0,85116.7934988033,85117.840587228,1,5,6,0,0,14,7,2110120,12515684,0,8201322,0,0,0,0,2110120,0,0,0,0,0,1081071,4121080,3201151,-1081191,0,3031191,0,0,0,0,0,0,0,0,0,0,0,0,0,0,0,0,0,4080161,4121161,0
19,124,1160.10339195782,0,0,85119.5229878908,85120.5700697712,1,5,6,1,0,13,7,6341252,10312431,0,6172422,0,0,3190171,3151081,0,0,0,0,0,0,4101101,4110180,-2101150,0,0,0,0,0,0,0,0,0,0,0,0,0,0,3050180,0,0,0,0,2011161,0,0,1111081
19,125,870.847575381049,1,0,85122.7584146161,85123.8054637749,1,5,6,1,1,32,3,0,6382122,0,2141331,0,0,0,0,0,0,0,0,0,0,0,0,0,4201041,2181081,0,0,0,0,0,0,0,0,0,0,0,0,0,1070191,0,0,-1071140,0,0,0,0
19,126,881.721952609951,0,0,85125.8055207491,85126.8526045543,1,5,6,0,0,27,7,4110090,3110302,10452522,2181131,0,0,0,0,0,4110090,0,0,0,0,0,0,0,0,0,1020191,0,2090111,0,4071130,1161200,0,0,4130141,0,0,-1090051,0,0,0,0,0,0,0,2181131,0
19,127,959.946404880611,0,0,85128.8291304048,85129.8762103605,1,5,6,1,0,5,3,3162272,0,3131040,1021051,2141091,0,0,0,-1021181,0,0,0,0,0,0,0,0,0,0,0,0,0,0,0,0,0,0,0,0,0,3131040,1021051,0,0,0,0,0,0,0,0
19,128,605.561738018878,1,0,85132.0056962143,85133.0527827143,1,5,6,0,1,3,3,4110061,5261201,0,3150140,0,0,-4110061,0,0,0,0,0,0,0,0,0,3090130,0,0,0,0,2171071,0,0,0,0,0,0,0,0,0,0,0,3150140,0,0,0,0,0,0
19,129,978.688999195583,0,0,85134.8175311461,85135.8646291949,1,5,6,0,0,8,3,4102312,2121170,0,0,0,0,0,1051191,0,0,0,-3051121,0,0,0,0,0,1050030,1071140,0,0,0,0,0,0,0,0,0,0,0,0,0,0,0,0,0,0,0,0,0
19,130,660.643107214128,1,0,85138.0293963359,85139.076481296,1,5,6,0,1,1,3,4241170,0,3061080,4131050,-3051150,0,0,0,0,0,0,0,1190020,0,0,0,0,0,0,0,0,0,0,0,0,0,0,0,0,0,3061080,4131050,0,0,0,0,0,0,0,0
19,131,800.084436472389,0,0,85140.7588877332,85141.8059692286,1,5,6,1,0,29,7,9633451,6150321,0,6281180,0,0,4191060,0,0,3071110,0,1200150,1171131,0,3040181,0,0,3110140,0,0,0,0,0,0,0,0,0,0,0,0,0,0,-4180010,0,2101170,0,0,0,0,0
19,132,659.880114588304,1,0,85143.8060350569,85144.8531789161,1,5,6,0,1,6,3,2030041,1131020,6201341,0,0,0,0,0,0,-2030041,0,0,0,1131020,0,0,0,0,0,0,0,0,0,0,0,0,4140151,0,2061190,0,0,0,0,0,0,0,0,0,0,0
19,133,941.205735362018,0,0,85146.7237600455,85147.7708453905,1,5,6,1,0,21,7,7513191,1040120,8273372,4110171,2141010,0,0,0,0,0,0,2201171,3171010,0,1040120,0,0,0,0,0,0,0,4071011,0,-2141170,0,2061191,0,0,0,0,0,0,0,0,0,0,0,0,4110171
19,134,815.685749344993,0,0,85149.9121372271,85150.9591802265,1,5,6,1,0,20,3,3320281,0,4061111,0,0,0,0,0,0,0,2160161,1160120,0,0,0,0,0,0,0,0,0,0,0,-3031010,0,0,0,0,1030101,0,0,0,0,0,0,0,0,0,0,0
19,135,779.167197688366,0,1,85152.7945262641,85153.8416735878,1,5,6,0,1,26,7,4091190,0,10434481,10491243,0,0,0,0,0,0,4091190,0,0,0,0,0,0,0,0,0,0,0,2091161,3061200,0,0,0,0,3101100,-2181020,0,0,0,2141151,0,0,0,0,4200041,4150051
19,136,546.610356279416,1,0,85155.7122562571,85156.759342757,1,5,6,1,1,4,3,2110121,0,2110111,5251322,0,0,0,-2110121,0,0,0,0,0,0,0,0,0,0,0,0,0,0,2110111,0,0,0,0,0,0,0,0,0,0,0,0,0,0,1160181,0,4091141
19,137,516.424412446213,1,0,85158.4652730036,85159.512365663,1,5,6,0,1,9,7,9231454,1131151,2181020,7152132,1010151,0,0,0,0,2111031,0,2030121,-4080151,0,1131151,0,0,0,0,0,0,0,0,0,0,0,2181020,0,0,0,0,0,4111091,0,0,0,0,0,0,3041041
19,138,869.992577092489,1,0,85161.136012044,85162.1830304059,1,5,6,1,1,19,7,4100242,7373333,2110270,3161110,2060171,2040071,0,0,0,0,0,0,0,0,0,0,3181131,3161131,0,1031071,0,0,-1030200,0,1080070,0,0,0,0,0,0,0,0,0,0,0,0,0,0,3161110
19,139,1553.33331451402,0,0,85164.2066158091,85165.253702694,1,5,6,1,0,31,3,1160160,0,3121081,6212371,0,0,1160160,0,0,0,0,0,0,0,0,0,0,0,0,0,0,0,3121081,0,0,0,0,0,0,0,0,0,0,0,-4201201,0,0,0,2011170,0
19,140,795.738227214315,0,0,85167.9949677373,85169.0420796447,1,5,6,0,0,18,3,3301241,5271151,0,0,0,0,0,0,0,0,0,1141050,2160191,0,0,0,0,0,0,0,2081111,-3190040,0,0,0,0,0,0,0,0,0,0,0,0,0,0,0,0,0,0
19,141,1235.23814753571,1,0,85171.030341415,85172.0774271451,1,5,6,0,1,25,7,0,0,15192532,5232410,0,0,0,0,0,0,0,0,0,0,0,0,0,0,0,0,0,0,0,4071041,0,3020181,0,4021190,-4080120,0,0,0,2070060,0,0,1071160,0,1021110,0,1070080
19,142,809.580268498394,1,0,85174.453988258,85175.5010616693,1,5,6,1,1,12,7,5181121,7092130,0,9512400,2150031,0,0,0,0,0,0,0,3031090,0,0,-3021060,0,0,0,0,0,4071070,0,0,0,0,0,0,0,0,0,0,0,0,0,1030050,3190090,4141070,0,1151190
19,143,487.006080758874,0,0,85177.3246379104,85178.3717209457,1,5,6,1,0,11,7,9202351,7241231,3150181,4350211,3080161,0,2091040,0,0,0,0,4031150,0,0,-3070170,0,0,0,0,0,4171061,0,0,0,0,3150181,0,0,0,0,0,0,0,0,0,0,0,0,1160060,3190151
19,144,916.000416444149,0,0,85179.9247096672,85180.9718427474,1,5,6,1,0,22,3,2201080,4160111,5271210,0,0,0,0,0,2201080,0,0,0,0,0,0,4160111,0,0,0,0,0,0,0,0,0,-4090200,0,1181010,0,0,0,0,0,0,0,0,0,0,0,0
19,145,1122.56584863644,0,0,85187.6190383453,85188.6661283099,1,5,7,1,0,19,7,4100242,7373333,2110270,3161110,2060171,2040071,0,0,0,0,0,0,0,0,0,0,3181131,3161131,0,1031071,0,0,-1030200,0,1080070,0,0,0,0,0,0,0,0,0,0,0,0,0,0,3161110
19,146,604.125448677223,0,0,85190.9132670876,85191.9603520477,1,5,7,1,0,20,3,3320281,0,4061111,0,0,0,0,0,0,0,2160161,1160120,0,0,0,0,0,0,0,0,0,0,0,-3031010,0,0,0,0,1030101,0,0,0,0,0,0,0,0,0,0,0
19,147,466.508064448135,0,0,85193.6309890734,85194.6780682591,1,5,7,0,0,17,3,4090061,1160190,5021150,0,0,4090061,0,0,0,0,0,0,0,0,0,0,0,0,0,0,-1160190,0,0,0,0,4010040,1011110,0,0,0,0,0,0,0,0,0,0,0,0,0
19,148,558.96914297773,0,0,85196.2075466447,85197.2546131266,1,5,7,1,0,11,7,9202351,7241231,3150181,4350211,3080161,0,2091040,0,0,0,0,4031150,0,0,-3070170,0,0,0,0,0,4171061,0,0,0,0,3150181,0,0,0,0,0,0,0,0,0,0,0,0,1160060,3190151
19,149,441.17917305266,0,0,85198.9723262584,85200.0194012095,1,5,7,1,0,5,3,3162272,0,3131040,1021051,2141091,0,0,0,-1021181,0,0,0,0,0,0,0,0,0,0,0,0,0,0,0,0,0,0,0,0,0,3131040,1021051,0,0,0,0,0,0,0,0
19,150,513.932175177615,0,1,85201.5723930106,85202.6194695016,1,5,7,0,1,27,3,3021131,2100031,4281211,0,0,0,0,0,0,0,3021131,0,0,2100031,0,0,0,0,0,0,0,0,0,0,0,0,2090091,0,0,0,-2191120,0,0,0,0,0,0,0,0,0
19,151,1182.53583706974,0,0,85204.3018844079,85205.3489720627,1,5,7,1,0,22,3,2201080,4160111,5271210,0,0,0,0,0,2201080,0,0,0,0,0,0,4160111,0,0,0,0,0,0,0,0,0,-4090200,0,1181010,0,0,0,0,0,0,0,0,0,0,0,0
19,152,515.173674270045,1,0,85207.5490358892,85208.5961185396,1,5,7,1,1,4,3,2110121,0,2110111,5251322,0,0,0,-2110121,0,0,0,0,0,0,0,0,0,0,0,0,0,0,2110111,0,0,0,0,0,0,0,0,0,0,0,0,0,0,1160181,0,4091141
19,153,804.513027367648,1,0,85210.1608762875,85211.2079635574,1,5,7,0,1,18,3,1130111,3040120,4112240,0,0,0,0,1130111,0,0,0,0,0,0,0,0,0,0,0,0,0,-3040120,0,0,0,0,3091140,0,0,1021100,0,0,0,0,0,0,0,0,0,0
19,154,705.358632621937,0,0,85213.1609571293,85214.2080474789,1,5,7,0,0,6,7,8232433,7421393,3101192,0,0,0,3051161,0,0,-2130151,0,3051121,0,4190121,2191131,0,0,0,0,0,1040141,0,1061171,0,0,0,0,2040021,0,0,0,0,0,0,0,0,0,0,0,0
19,155,1199.5183898689,1,0,85215.972842876,85217.019909358,1,5,7,1,1,21,7,7513191,1040120,8273372,4110171,2141010,0,0,0,0,0,0,2201171,3171010,0,1040120,0,0,0,0,0,0,0,4071011,0,-2141170,0,2061191,0,0,0,0,0,0,0,0,0,0,0,0,4110171
19,156,660.820189252263,0,0,85219.3964550725,85220.4435719843,1,5,7,0,0,14,7,8260172,7472390,6111171,3201171,4070131,0,0,4190041,0,0,0,0,0,2160090,0,0,0,-1151200,4161100,0,0,0,0,0,0,3040051,0,0,0,0,3071120,0,0,0,0,0,0,0,0,3201171
19,157,519.686186657054,0,0,85222.2906396982,85223.3377204237,1,5,7,0,0,8,3,4090070,7221222,0,0,0,0,0,0,0,0,0,-4090070,0,0,0,4090010,0,0,0,1120091,2011121,0,0,0,0,0,0,0,0,0,0,0,0,0,0,0,0,0,0,0
19,158,1084.54864396481,1,0,85224.9495296402,85225.9966238393,1,5,7,1,1,32,3,0,6382122,0,2141331,0,0,0,0,0,0,0,0,0,0,0,0,0,4201041,2181081,0,0,0,0,0,0,0,0,0,0,0,0,0,1070191,0,0,-1071140,0,0,0,0
19,159,566.485505740275,0,0,85228.2437502983,85229.2908348734,1,5,7,1,0,13,7,6341252,10312431,0,6172422,0,0,3190171,3151081,0,0,0,0,0,0,4101101,4110180,-2101150,0,0,0,0,0,0,0,0,0,0,0,0,0,0,3050180,0,0,0,0,2011161,0,0,1111081
19,160,534.398624673486,1,0,85230.9026514041,85231.9497336695,1,5,7,0,1,16,7,6222320,4221350,10311221,1050191,0,0,0,0,0,2051200,0,0,4171120,0,0,0,0,0,0,-2171190,0,2050160,4201130,3090010,0,0,0,0,0,0,3020081,0,0,1050191,0,0,0,0,0,0
19,161,969.381798015093,1,0,85233.6556662259,85234.7027515709,1,5,7,1,1,31,3,1160160,0,3121081,6212371,0,0,1160160,0,0,0,0,0,0,0,0,0,0,0,0,0,0,0,3121081,0,0,0,0,0,0,0,0,0,0,0,-4201201,0,0,0,2011170,0
19,162,610.556606494356,0,0,85236.8204668584,85237.8675491238,1,5,7,0,0,1,3,7113442,2060131,0,0,-4021190,0,0,0,1021201,2071051,0,0,0,0,0,0,0,2060131,0,0,0,0,0,0,0,0,0,0,0,0,0,0,0,0,0,0,0,0,0,0
19,163,679.660563662765,1,0,85239.5852507067,85240.632334127,1,5,7,0,1,3,7,4071200,5271251,3141170,8401262,0,0,-2010160,0,0,0,0,0,2061040,0,1101160,0,0,0,4170091,0,0,0,3141170,0,0,0,0,0,0,0,0,0,0,3200051,0,0,1090081,0,0,4111130
19,164,1179.06772378774,1,0,85242.5029830095,85243.5500645049,1,5,7,1,1,29,7,9633451,6150321,0,6281180,0,0,4191060,0,0,3071110,0,1200150,1171131,0,3040181,0,0,3110140,0,0,0,0,0,0,0,0,0,0,0,0,0,0,-4180010,0,2101170,0,0,0,0,0
19,165,887.998741090996,1,0,85245.9148450425,85246.9619203786,1,5,7,0,1,26,3,2141030,4041110,5321311,0,2141030,0,0,0,0,0,0,0,0,0,0,4041110,0,0,0,0,0,0,3150130,0,0,0,0,0,0,-2171181,0,0,0,0,0,0,0,0,0,0
19,166,732.678927073721,1,0,85248.8913866764,85249.9385051282,1,5,7,1,1,12,7,5181121,7092130,0,9512400,2150031,0,0,0,0,0,0,0,3031090,0,0,-3021060,0,0,0,0,0,4071070,0,0,0,0,0,0,0,0,0,0,0,0,0,1030050,3190090,4141070,0,1151190
19,167,479.248732415726,1,0,85251.8797238992,85252.9268038548,1,5,7,0,1,9,7,5342402,2161020,8171231,4281212,0,0,0,0,2111181,1190060,0,0,-2041161,0,0,0,0,0,0,2161020,0,0,0,4090090,0,0,0,0,0,4081141,0,1131061,0,0,3150151,0,0,0,0,0
19,168,1410.66987153317,0,0,85254.5974497346,85255.6443741565,1,5,7,0,0,25,7,8371382,1181141,8412181,4140200,3110051,0,2130161,0,0,0,0,0,3131170,0,0,0,0,0,0,0,0,1181141,3160111,0,0,0,4201050,0,-1051020,0,0,0,4140200,0,0,0,0,0,0,0
19,169,479.90432093502,0,0,85261.4329343581,85262.4800204731,1,5,8,0,0,9,7,12354212,4091071,1091100,3311280,0,0,1111031,0,0,4041081,0,4091040,-3111060,0,4091071,0,0,0,0,0,0,0,0,0,0,0,0,1091100,0,0,0,2141200,0,0,1170080,0,0,0,0,0
19,170,751.332595405984,0,0,85264.0094846151,85265.0565664956,1,5,8,1,0,19,7,4100242,7373333,2110270,3161110,2060171,2040071,0,0,0,0,0,0,0,0,0,0,3181131,3161131,0,1031071,0,0,-1030200,0,1080070,0,0,0,0,0,0,0,0,0,0,0,0,0,0,3161110
19,171,570.635769850924,0,0,85266.9742710811,85268.0213606608,1,5,8,1,0,32,3,0,6382122,0,2141331,0,0,0,0,0,0,0,0,0,0,0,0,0,4201041,2181081,0,0,0,0,0,0,0,0,0,0,0,0,0,1070191,0,0,-1071140,0,0,0,0
19,172,583.359114592895,0,0,85269.6684808063,85270.7155572973,1,5,8,0,0,8,7,9142480,5190081,6241251,3200071,0,0,0,4041190,0,0,1060190,-4041100,0,0,0,1010021,0,0,0,0,4180060,0,2170091,0,0,0,0,0,0,0,4071160,0,0,0,0,0,0,0,0,3200071
19,173,671.279193615192,1,0,85272.4214902386,85273.4685705792,1,5,8,0,1,14,3,0,4182162,4200151,1121151,0,0,0,0,0,0,0,0,0,0,0,0,0,-2011091,0,0,2171071,0,0,4200151,0,0,0,0,0,0,0,0,0,0,1121151,0,0,0,0,0
19,174,972.023400143371,0,0,85275.1627572068,85276.2098895171,1,5,8,1,0,31,3,1160160,0,3121081,6212371,0,0,1160160,0,0,0,0,0,0,0,0,0,0,0,0,0,0,0,3121081,0,0,0,0,0,0,0,0,0,0,0,-4201201,0,0,0,2011170,0
19,175,861.769426002866,1,0,85278.3157811136,85279.3628576046,1,5,8,0,1,16,3,2180171,3051050,3021081,1111020,2180171,0,0,0,0,0,0,0,0,0,0,0,0,0,0,-3051050,0,0,3021081,0,0,0,0,0,0,0,0,0,0,0,0,0,0,1111020,0,0
19,176,824.342751438962,0,0,85281.386451092,85282.4335391318,1,5,8,1,0,11,7,9202351,7241231,3150181,4350211,3080161,0,2091040,0,0,0,0,4031150,0,0,-3070170,0,0,0,0,0,4171061,0,0,0,0,3150181,0,0,0,0,0,0,0,0,0,0,0,0,1160060,3190151
19,177,536.725713682245,0,0,85284.3159539611,85285.3630377663,1,5,8,1,0,12,7,5181121,7092130,0,9512400,2150031,0,0,0,0,0,0,0,3031090,0,0,-3021060,0,0,0,0,0,4071070,0,0,0,0,0,0,0,0,0,0,0,0,0,1030050,3190090,4141070,0,1151190
19,178,1170.3814646462,1,0,85286.963080651,85288.0101698456,1,5,8,0,1,27,7,6370241,8321080,9423202,0,3200141,0,0,0,0,0,3170100,0,0,0,4140050,0,0,4181030,0,0,0,0,4141120,1181010,0,0,0,2091021,0,0,-2010051,0,0,0,0,0,0,0,0,0
19,179,449.629066148191,0,0,85290.2220019287,85291.2690926633,1,5,8,0,0,18,3,0,3201131,1071010,2030030,0,0,0,0,0,0,0,0,0,0,0,0,0,0,0,0,0,-3201131,0,0,0,0,0,0,1071010,0,0,0,1010020,0,0,0,0,1020010,0,0
19,180,1343.9345696388,0,0,85292.7985483362,85293.8456255971,1,5,8,0,0,25,7,6182222,0,4441302,3201131,3020191,0,0,0,2101011,0,0,1061020,0,0,0,0,0,0,0,0,0,0,1061201,0,0,0,2180030,0,-1200071,0,0,0,0,0,2170051,1031080,0,0,0,0
19,181,1682.04116223205,1,0,85296.3162958064,85297.3633738372,1,5,8,1,1,21,7,7513191,1040120,8273372,4110171,2141010,0,0,0,0,0,0,2201171,3171010,0,1040120,0,0,0,0,0,0,0,4071011,0,-2141170,0,2061191,0,0,0,0,0,0,0,0,0,0,0,0,4110171
19,182,453.966421293444,0,0,85300.1046562038,85301.1517296151,1,5,8,1,0,20,3,3320281,0,4061111,0,0,0,0,0,0,0,2160161,1160120,0,0,0,0,0,0,0,0,0,0,0,-3031010,0,0,0,0,1030101,0,0,0,0,0,0,0,0,0,0,0
19,183,594.757808648865,1,0,85302.7517759644,85303.7988632342,1,5,8,0,1,3,3,3150111,0,7272281,3080090,0,0,-3150111,0,0,0,0,0,0,0,0,0,0,0,0,0,0,0,0,0,0,0,4111150,0,0,3161131,0,0,3080090,0,0,0,0,0,0,0
19,184,591.554933445877,1,0,85305.5048004102,85306.5518772861,1,5,8,0,1,6,7,9272291,0,8291140,11433173,3130160,0,0,0,0,-3121031,0,0,3021100,0,0,0,0,0,0,0,0,0,0,0,0,0,4090060,0,0,0,4201080,0,0,3151031,0,0,0,4141021,4141121,0
19,185,411.201493101544,1,0,85308.2931126874,85309.340192643,1,5,8,1,1,4,3,2110121,0,2110111,5251322,0,0,0,-2110121,0,0,0,0,0,0,0,0,0,0,0,0,0,0,2110111,0,0,0,0,0,0,0,0,0,0,0,0,0,0,1160181,0,4091141
19,186,579.613829395385,1,0,85310.8226237947,85311.8696798827,1,5,8,1,1,5,3,3162272,0,3131040,1021051,2141091,0,0,0,-1021181,0,0,0,0,0,0,0,0,0,0,0,0,0,0,0,0,0,0,0,0,0,3131040,1021051,0,0,0,0,0,0,0,0
19,187,1032.79102769739,1,0,85313.5285555811,85314.5756478555,1,5,8,1,1,13,7,6341252,10312431,0,6172422,0,0,3190171,3151081,0,0,0,0,0,0,4101101,4110180,-2101150,0,0,0,0,0,0,0,0,0,0,0,0,0,0,3050180,0,0,0,0,2011161,0,0,1111081
19,188,995.424022083171,1,0,85316.6109976657,85317.6580795461,1,5,8,1,1,29,7,9633451,6150321,0,6281180,0,0,4191060,0,0,3071110,0,1200150,1171131,0,3040181,0,0,3110140,0,0,0,0,0,0,0,0,0,0,0,0,0,0,-4180010,0,2101170,0,0,0,0,0
19,189,807.943029532908,1,0,85319.7052068519,85320.752282573,1,5,8,0,1,17,7,8151161,7422261,1191041,4331091,0,0,0,0,0,4050011,0,4101150,0,3201161,3060090,0,0,0,0,0,-1161010,0,0,0,0,0,0,0,0,1191041,0,0,2141050,0,0,0,0,0,2190041,0
19,190,1466.81949785852,0,0,85322.7405847643,85323.7876643349,1,5,8,0,0,26,3,0,2020131,6212192,2181060,0,0,0,0,0,0,0,0,0,0,0,0,0,0,0,0,0,2020131,0,0,0,0,0,0,4101111,-2111081,0,0,0,0,2181060,0,0,0,0,0
19,191,903.016838099575,1,0,85326.3171638934,85327.3642415392,1,5,8,0,1,1,3,3210151,0,4061141,4160040,-2160091,0,0,0,0,0,0,1050060,0,0,0,0,0,0,0,0,0,0,4061141,0,0,0,0,0,0,0,0,0,0,0,0,0,0,4160040,0,0
19,192,570.672341156751,0,0,85329.4584318624,85330.5055060436,1,5,8,1,0,22,3,2201080,4160111,5271210,0,0,0,0,0,2201080,0,0,0,0,0,0,4160111,0,0,0,0,0,0,0,0,0,-4090200,0,1181010,0,0,0,0,0,0,0,0,0,0,0,0
19,193,503.459312225459,0,0,85335.1527139602,85336.1997892963,1,5,9,1,0,20,3,3320281,0,4061111,0,0,0,0,0,0,0,2160161,1160120,0,0,0,0,0,0,0,0,0,0,0,-3031010,0,0,0,0,1030101,0,0,0,0,0,0,0,0,0,0,0
19,194,1139.5376225264,0,0,85337.8586696143,85338.9057549594,1,5,9,0,0,26,7,4160071,0,6221231,7363530,0,0,0,0,0,0,0,4160071,0,0,0,0,0,0,0,0,0,0,0,2090061,0,0,0,0,0,-2031140,2100030,2051200,0,2101140,1150070,0,0,0,0,2061120
19,195,524.925890291343,0,1,85341.2352415061,85342.2823230016,1,5,9,0,1,25,7,0,4100131,4132402,9330502,0,0,0,0,0,0,0,0,0,0,0,0,4100131,0,0,0,0,0,1061091,0,0,0,0,2030181,-1041130,0,0,0,0,0,0,2020140,0,1060191,2170161,4080010
19,196,466.661663871491,1,0,85343.9882432392,85345.0353447527,1,5,9,1,1,4,3,2110121,0,2110111,5251322,0,0,0,-2110121,0,0,0,0,0,0,0,0,0,0,0,0,0,0,2110111,0,0,0,0,0,0,0,0,0,0,0,0,0,0,1160181,0,4091141
19,197,591.278146515833,0,0,85346.5177451074,85347.5648292976,1,5,9,1,0,13,7,6341252,10312431,0,6172422,0,0,3190171,3151081,0,0,0,0,0,0,4101101,4110180,-2101150,0,0,0,0,0,0,0,0,0,0,0,0,0,0,3050180,0,0,0,0,2011161,0,0,1111081
19,198,1119.47384219093,0,0,85349.1884079255,85350.2354944255,1,5,9,0,0,3,7,19865813,5131331,0,0,3201180,3020120,-4131201,3171181,0,0,2151010,0,4191121,0,0,0,0,0,3061151,2070180,0,0,0,0,0,0,0,0,0,0,0,0,0,0,0,0,0,0,0,0
19,199,818.667271989398,0,0,85352.4943833665,85353.5414660169,1,5,9,1,0,19,7,4100242,7373333,2110270,3161110,2060171,2040071,0,0,0,0,0,0,0,0,0,0,3181131,3161131,0,1031071,0,0,-1030200,0,1080070,0,0,0,0,0,0,0,0,0,0,0,0,0,0,3161110
19,200,621.332818671362,1,0,85355.4474135098,85356.4944950052,1,5,9,1,1,32,3,0,6382122,0,2141331,0,0,0,0,0,0,0,0,0,0,0,0,0,4201041,2181081,0,0,0,0,0,0,0,0,0,0,0,0,0,1070191,0,0,-1071140,0,0,0,0
19,201,772.871546127135,1,0,85358.2239602252,85359.2710744423,1,5,9,1,1,21,7,7513191,1040120,8273372,4110171,2141010,0,0,0,0,0,0,2201171,3171010,0,1040120,0,0,0,0,0,0,0,4071011,0,-2141170,0,2061191,0,0,0,0,0,0,0,0,0,0,0,0,4110171
19,202,1038.50423332187,1,0,85361.1534584747,85362.20054228,1,5,9,1,1,5,3,3162272,0,3131040,1021051,2141091,0,0,0,-1021181,0,0,0,0,0,0,0,0,0,0,0,0,0,0,0,0,0,0,0,0,0,3131040,1021051,0,0,0,0,0,0,0,0
19,203,932.6218758506,1,0,85364.3300208196,85365.3771381164,1,5,9,0,1,27,7,4100050,3201220,10383362,7300191,0,0,0,0,0,0,0,0,4100050,0,2190180,0,0,1011040,0,0,0,0,0,0,0,0,0,4151041,0,2181190,-4051131,0,0,4150021,0,3150170,0,0,0,0
19,204,1294.47709511442,1,1,85367.3771739178,85368.4242500238,1,5,9,0,0,6,3,8031172,0,0,6161311,0,4011071,0,0,0,-4020101,0,0,0,0,0,0,0,0,0,0,0,0,0,0,0,0,0,0,0,0,0,0,3011191,3150120,0,0,0,0,0,0
19,205,627.808246994391,0,0,85370.7419667741,85371.7890517342,1,5,9,1,0,22,3,2201080,4160111,5271210,0,0,0,0,0,2201080,0,0,0,0,0,0,4160111,0,0,0,0,0,0,0,0,0,-4090200,0,1181010,0,0,0,0,0,0,0,0,0,0,0,0
19,206,1452.10436513298,1,0,85373.4596810607,85374.5067664058,1,5,9,0,1,18,7,9223412,5202252,0,6221081,0,0,1011080,0,0,0,4101201,0,4111131,0,0,0,0,0,0,1021111,1131041,-3050100,0,0,0,0,0,0,0,0,0,0,0,0,0,4031021,0,0,2190060,0
19,207,407.691419051844,0,0,85377.0951037825,85378.1421883576,1,5,9,0,0,9,3,2101200,2110011,6231212,0,0,0,0,0,0,0,0,0,-2101200,0,0,0,2110011,0,0,0,0,0,0,0,0,0,3191031,0,3040181,0,0,0,0,0,0,0,0,0,0,0
19,208,493.527704384178,0,1,85379.742223928,85380.7893177423,1,5,9,0,1,17,3,2011020,3101251,0,1171091,0,2011020,0,0,0,0,0,0,0,0,0,0,0,0,0,2050111,-1051140,0,0,0,0,0,0,0,0,0,0,0,1171091,0,0,0,0,0,0,0
19,209,708.812502358342,0,0,85382.4717257193,85383.5188414763,1,5,9,1,0,12,7,5181121,7092130,0,9512400,2150031,0,0,0,0,0,0,0,3031090,0,0,-3021060,0,0,0,0,0,4071070,0,0,0,0,0,0,0,0,0,0,0,0,0,1030050,3190090,4141070,0,1151190
19,210,1661.93734596891,0,0,85385.3306413766,85386.3777120932,1,5,9,0,0,16,7,10322501,9432181,4030041,2051181,0,4151160,0,0,0,0,3160160,0,3011181,0,0,2151100,0,0,0,-3181041,4100040,0,4030041,0,0,0,0,0,0,0,0,0,0,0,0,0,0,0,0,2051181
19,211,718.505819371785,0,0,85389.0601443227,85390.1072362121,1,5,9,0,0,8,3,6321292,0,0,2091081,0,1080181,0,4140091,0,0,0,-1101020,0,0,0,0,0,0,0,0,0,0,0,0,0,0,0,0,0,0,0,0,0,0,0,0,0,0,2091081,0
19,212,1023.84338008414,1,0,85391.9778889443,85393.02496736,1,5,9,0,1,1,3,6251220,0,4091191,1090061,-2080070,0,0,0,4171150,0,0,0,0,0,0,0,0,0,0,0,0,0,0,0,4091191,0,0,0,0,0,0,0,0,0,0,1090061,0,0,0,0
19,213,1195.03436460218,1,0,85395.2603143985,85396.3074024383,1,5,9,1,1,31,3,1160160,0,3121081,6212371,0,0,1160160,0,0,0,0,0,0,0,0,0,0,0,0,0,0,0,3121081,0,0,0,0,0,0,0,0,0,0,0,-4201201,0,0,0,2011170,0
19,214,1296.99512476509,0,0,85398.6016685218,85399.6486826491,1,5,9,1,0,11,7,9202351,7241231,3150181,4350211,3080161,0,2091040,0,0,0,0,4031150,0,0,-3070170,0,0,0,0,0,4171061,0,0,0,0,3150181,0,0,0,0,0,0,0,0,0,0,0,0,1160060,3190151
19,215,1416.63983657782,0,0,85402.0017657629,85403.0487872045,1,5,9,1,0,29,7,9633451,6150321,0,6281180,0,0,4191060,0,0,3071110,0,1200150,1171131,0,3040181,0,0,3110140,0,0,0,0,0,0,0,0,0,0,0,0,0,0,-4180010,0,2101170,0,0,0,0,0
19,216,577.442649577279,1,0,85405.4959212856,85406.5429993164,1,5,9,0,1,14,3,1080110,1040051,2090041,3150060,0,0,0,0,0,0,1080110,0,0,0,0,0,0,-1040051,0,0,0,0,0,0,0,0,2090041,0,0,0,0,0,0,0,0,0,0,0,0,3150060
19,217,728.637221938698,1,0,85411.213726423,85412.2608129229,1,5,10,0,1,14,7,5192231,10520202,6280041,0,0,0,0,0,0,0,2061080,3131151,0,0,2140010,0,3060081,-4170010,0,1150101,0,0,0,0,0,0,3130010,0,0,3150031,0,0,0,0,0,0,0,0,0,0
19,218,1483.52834343677,1,0,85414.0726378458,85415.1197243457,1,5,10,1,1,11,7,9202351,7241231,3150181,4350211,3080161,0,2091040,0,0,0,0,4031150,0,0,-3070170,0,0,0,0,0,4171061,0,0,0,0,3150181,0,0,0,0,0,0,0,0,0,0,0,0,1160060,3190151
19,219,1004.21691538941,0,0,85417.8139175176,85418.861009022,1,5,10,1,0,19,7,4100242,7373333,2110270,3161110,2060171,2040071,0,0,0,0,0,0,0,0,0,0,3181131,3161131,0,1031071,0,0,-1030200,0,1080070,0,0,0,0,0,0,0,0,0,0,0,0,0,0,3161110
19,220,786.285510810558,0,0,85420.9198953454,85421.9669745311,1,5,10,1,0,21,7,7513191,1040120,8273372,4110171,2141010,0,0,0,0,0,0,2201171,3171010,0,1040120,0,0,0,0,0,0,0,4071011,0,-2141170,0,2061191,0,0,0,0,0,0,0,0,0,0,0,0,4110171
19,221,906.816402784898,0,0,85423.896459692,85424.9435431123,1,5,10,0,0,17,3,4110191,3232122,1161110,0,4110191,0,0,0,0,0,0,0,0,0,0,0,0,0,0,0,-1191101,2041021,1161110,0,0,0,0,0,0,0,0,0,0,0,0,0,0,0,0,0
19,222,707.755014591385,1,0,85426.9436035511,85427.9906796571,1,5,10,0,1,3,7,6212181,7234582,2101131,2140041,0,0,-2171071,0,0,0,4041110,0,0,2041191,0,0,0,2011100,1121200,2061091,0,0,0,2101131,0,0,0,0,0,0,0,0,0,0,0,0,0,2140041,0,0
19,223,467.833870003233,1,0,85429.7083889392,85430.7554993068,1,5,10,1,1,5,3,3162272,0,3131040,1021051,2141091,0,0,0,-1021181,0,0,0,0,0,0,0,0,0,0,0,0,0,0,0,0,0,0,0,0,0,3131040,1021051,0,0,0,0,0,0,0,0
19,224,882.573486247566,0,0,85432.249640201,85433.2967213115,1,5,10,0,0,6,3,5292341,0,2170170,0,0,1080110,0,0,0,-3131051,1081180,0,0,0,0,0,0,0,0,0,0,0,0,0,2170170,0,0,0,0,0,0,0,0,0,0,0,0,0,0,0
19,225,614.435858093202,0,0,85435.3085507768,85436.355625728,1,5,10,0,0,8,7,3112271,5291262,7452363,3090020,0,1061150,0,0,0,0,0,-2051121,0,0,3130091,0,0,0,2161171,0,0,0,0,0,0,4081171,2190181,0,0,0,1181011,0,0,0,0,0,0,0,3090020,0
19,226,727.107002123375,1,0,85438.085100187,85439.1321809125,1,5,10,1,1,20,3,3320281,0,4061111,0,0,0,0,0,0,0,2160161,1160120,0,0,0,0,0,0,0,0,0,0,0,-3031010,0,0,0,0,1030101,0,0,0,0,0,0,0,0,0,0,0
19,227,1070.46869679471,1,0,85440.8616476723,85441.908736097,1,5,10,0,1,25,7,1201060,7443302,11312241,3040040,0,0,0,0,0,0,0,1201060,0,0,0,0,2181021,0,0,0,4131100,1131181,0,4140010,0,4131031,0,0,-3041200,0,0,0,3040040,0,0,0,0,0,0,0
19,228,667.712145354017,0,0,85444.1794033037,85445.2264770999,1,5,10,1,0,22,3,2201080,4160111,5271210,0,0,0,0,0,2201080,0,0,0,0,0,0,4160111,0,0,0,0,0,0,0,0,0,-4090200,0,1181010,0,0,0,0,0,0,0,0,0,0,0,0
19,229,1574.17664078821,0,0,85447.0030034124,85448.0500876026,1,5,10,1,0,29,7,9633451,6150321,0,6281180,0,0,4191060,0,0,3071110,0,1200150,1171131,0,3040181,0,0,3110140,0,0,0,0,0,0,0,0,0,0,0,0,0,0,-4180010,0,2101170,0,0,0,0,0
19,230,977.238081322866,1,0,85450.7207692838,85451.7678411552,1,5,10,0,1,27,3,4170161,0,4120270,2110101,0,0,4170161,0,0,0,0,0,0,0,0,0,0,0,0,0,0,0,0,0,0,0,0,0,3070080,0,-1050190,0,2110101,0,0,0,0,0,0,0
19,231,942.171217451687,0,0,85453.9326133007,85454.979695951,1,5,10,0,0,1,3,5230141,1190081,0,3090161,-4170040,0,1060101,0,0,0,0,0,0,0,0,0,0,0,0,0,1190081,0,0,0,0,0,0,0,0,0,0,0,0,0,0,0,0,0,0,3090161
19,232,613.084645112394,0,0,85457.0268274914,85458.0739039824,1,5,10,0,0,16,7,5143342,6172420,1021160,1180071,0,0,1011111,2041191,0,0,2091040,0,0,3011200,0,2130030,0,0,0,-1031190,0,0,0,1021160,0,0,0,0,0,0,0,0,0,0,0,0,0,0,1180071,0
19,233,817.344931085245,1,0,85459.8504322196,85460.8975164098,1,5,10,1,1,32,3,0,6382122,0,2141331,0,0,0,0,0,0,0,0,0,0,0,0,0,4201041,2181081,0,0,0,0,0,0,0,0,0,0,0,0,0,1070191,0,0,-1071140,0,0,0,0
19,234,1031.89252881566,1,0,85462.8858205259,85463.932896247,1,5,10,1,1,31,3,1160160,0,3121081,6212371,0,0,1160160,0,0,0,0,0,0,0,0,0,0,0,0,0,0,0,3121081,0,0,0,0,0,0,0,0,0,0,0,-4201201,0,0,0,2011170,0
19,235,781.213265188853,1,0,85466.1447341045,85467.191815215,1,5,10,0,1,18,3,0,6251180,2081021,2110111,0,0,0,0,0,0,0,0,0,3100060,0,0,0,0,0,0,0,-3151120,0,0,0,0,0,0,0,2081021,0,2110111,0,0,0,0,0,0,0,0
19,236,590.7007050846,0,0,85469.1330601633,85470.1801381941,1,5,10,1,0,4,3,2110121,0,2110111,5251322,0,0,0,-2110121,0,0,0,0,0,0,0,0,0,0,0,0,0,0,2110111,0,0,0,0,0,0,0,0,0,0,0,0,0,0,1160181,0,4091141
19,237,852.720148686785,1,0,85471.791963194,85472.8390369902,1,5,10,1,1,13,7,6341252,10312431,0,6172422,0,0,3190171,3151081,0,0,0,0,0,0,4101101,4110180,-2101150,0,0,0,0,0,0,0,0,0,0,0,0,0,0,3050180,0,0,0,0,2011161,0,0,1111081
19,238,1011.79294711619,1,0,85474.8979279331,85475.9450082737,1,5,10,0,1,26,3,1160041,1140190,3121090,4061101,0,0,1160041,0,0,0,0,0,0,0,0,0,0,0,0,0,1140190,0,0,0,0,0,0,0,0,-3121090,0,4061101,0,0,0,0,0,0,0,0
19,239,685.503501124913,0,0,85477.9921363494,85479.0392216945,1,5,10,1,0,12,7,5181121,7092130,0,9512400,2150031,0,0,0,0,0,0,0,3031090,0,0,-3021060,0,0,0,0,0,4071070,0,0,0,0,0,0,0,0,0,0,0,0,0,1030050,3190090,4141070,0,1151190
19,240,912.546161736827,0,0,85480.7451704192,85481.7922461403,1,5,10,0,0,9,7,11422312,0,6212121,3311181,3030051,0,0,2191150,2100011,0,0,0,-4101100,0,0,0,0,0,0,0,0,0,0,0,0,0,0,0,2151081,4061040,0,0,2151111,0,1160070,0,0,0,0,0
19,241,1164.89115143486,0,0,85486.9218105262,85487.9688866322,1,5,11,1,0,11,7,9202351,7241231,3150181,4350211,3080161,0,2091040,0,0,0,0,4031150,0,0,-3070170,0,0,0,0,0,4171061,0,0,0,0,3150181,0,0,0,0,0,0,0,0,0,0,0,0,1160060,3190151
19,242,1021.98940808012,1,0,85490.2866133915,85491.3336933471,1,5,11,1,1,22,3,2201080,4160111,5271210,0,0,0,0,0,2201080,0,0,0,0,0,0,4160111,0,0,0,0,0,0,0,0,0,-4090200,0,1181010,0,0,0,0,0,0,0,0,0,0,0,0
19,243,882.120387206669,0,0,85493.4984601031,85494.5455458332,1,5,11,0,0,26,3,5311191,0,3120060,2020010,0,0,0,1131180,0,4180011,0,0,0,0,0,0,0,0,0,0,0,0,0,0,0,0,0,0,0,-3120060,0,0,2020010,0,0,0,0,0,0,0
19,244,1000.32803976501,1,0,85496.5220870821,85497.569164728,1,5,11,1,1,21,7,7513191,1040120,8273372,4110171,2141010,0,0,0,0,0,0,2201171,3171010,0,1040120,0,0,0,0,0,0,0,4071011,0,-2141170,0,2061191,0,0,0,0,0,0,0,0,0,0,0,0,4110171
19,245,673.212467561825,1,0,85499.6751055995,85500.7221924844,1,5,11,1,1,32,3,0,6382122,0,2141331,0,0,0,0,0,0,0,0,0,0,0,0,0,4201041,2181081,0,0,0,0,0,0,0,0,0,0,0,0,0,1070191,0,0,-1071140,0,0,0,0
19,246,1021.88546862453,1,0,85502.4634371248,85503.5105070714,1,5,11,0,1,1,7,10471621,4271252,3081050,4191010,-3020130,0,0,4180160,1151181,2120150,0,0,0,0,0,0,0,0,1151191,3120061,0,0,0,0,0,0,0,3081050,0,0,0,0,4191010,0,0,0,0,0,0,0
19,247,613.869580527535,1,0,85505.7106286421,85506.7576689468,1,5,11,0,1,25,3,0,0,2252322,4111361,0,0,0,0,0,0,0,0,0,0,0,0,0,0,0,0,0,0,0,1141181,0,0,0,0,-1111141,0,0,0,0,2070180,0,0,0,2041181,0,0
19,248,742.599371034885,0,0,85508.4989008834,85509.5459781443,1,5,11,1,0,12,7,5181121,7092130,0,9512400,2150031,0,0,0,0,0,0,0,3031090,0,0,-3021060,0,0,0,0,0,4071070,0,0,0,0,0,0,0,0,0,0,0,0,0,1030050,3190090,4141070,0,1151190
19,249,916.822693034192,0,0,85511.4283999029,85512.4754802435,1,5,11,1,0,20,3,3320281,0,4061111,0,0,0,0,0,0,0,2160161,1160120,0,0,0,0,0,0,0,0,0,0,0,-3031010,0,0,0,0,1030101,0,0,0,0,0,0,0,0,0,0,0
19,250,525.266965705669,0,0,85514.6049607079,85515.652045668,1,5,11,1,0,4,3,2110121,0,2110111,5251322,0,0,0,-2110121,0,0,0,0,0,0,0,0,0,0,0,0,0,0,2110111,0,0,0,0,0,0,0,0,0,0,0,0,0,0,1160181,0,4091141
19,251,549.492943959194,0,0,85517.36975572,85518.4168383704,1,5,11,1,0,13,7,6341252,10312431,0,6172422,0,0,3190171,3151081,0,0,0,0,0,0,4101101,4110180,-2101150,0,0,0,0,0,0,0,0,0,0,0,0,0,0,3050180,0,0,0,0,2011161,0,0,1111081
19,252,685.078504218836,0,0,85520.1580649176,85521.2051456432,1,5,11,1,0,19,7,4100242,7373333,2110270,3161110,2060171,2040071,0,0,0,0,0,0,0,0,0,0,3181131,3161131,0,1031071,0,0,-1030200,0,1080070,0,0,0,0,0,0,0,0,0,0,0,0,0,0,3161110
19,253,611.153680947609,0,0,85523.0052042342,85524.0522853447,1,5,11,0,0,9,7,10221381,4151140,7231401,6212311,4030070,0,0,0,0,2161171,0,0,-4030140,0,4151140,0,0,0,0,0,0,0,0,0,0,0,0,0,3151200,0,4080201,0,0,0,0,0,0,4181181,2031130,0
19,254,960.170452148304,1,0,85525.8641133472,85526.9111959976,1,5,11,0,1,18,7,4080140,4530452,4160081,7383241,0,0,0,0,4080140,0,0,0,0,0,1200181,0,0,0,1200180,0,0,-2130091,0,0,0,0,4160081,0,0,0,0,4041011,0,0,1191060,0,0,2151170,0,0
19,255,1237.74000881531,0,0,85529.0524458734,85530.0995192847,1,5,11,1,0,29,7,9633451,6150321,0,6281180,0,0,4191060,0,0,3071110,0,1200150,1171131,0,3040181,0,0,3110140,0,0,0,0,0,0,0,0,0,0,0,0,0,0,-4180010,0,2101170,0,0,0,0,0
19,256,523.650899602217,1,0,85532.4525369552,85533.4996226852,1,5,11,0,1,16,3,0,1190111,3140031,5201252,0,0,0,0,0,0,0,0,0,0,0,0,0,0,0,-1190111,0,0,0,0,0,0,0,3140031,0,0,0,0,0,0,0,1090061,4111191,0,0,0
19,257,1370.17851322889,1,0,85535.0408504643,85536.0879319598,1,5,11,0,1,6,3,7140272,4011070,0,4161121,0,0,0,0,0,-4130171,0,0,3010101,0,4011070,0,0,0,0,0,0,0,0,0,0,0,0,0,0,0,0,0,0,0,0,4161121,0,0,0,0
19,258,611.000466480618,0,0,85538.629178217,85539.67628358,1,5,11,1,0,5,3,3162272,0,3131040,1021051,2141091,0,0,0,-1021181,0,0,0,0,0,0,0,0,0,0,0,0,0,0,0,0,0,0,0,0,0,3131040,1021051,0,0,0,0,0,0,0,0
19,259,1253.06107010692,0,0,85541.4998625159,85542.5469443963,1,5,11,0,0,17,3,6162151,2090060,4061081,0,0,0,0,2041140,4121011,0,0,0,0,0,0,0,0,0,0,0,-2090060,0,0,0,0,0,0,0,4061081,0,0,0,0,0,0,0,0,0,0,0
19,260,554.681062829331,1,0,85544.8293713904,85545.8764582753,1,5,11,0,1,14,7,12514813,6121290,0,4080070,0,0,3191171,1020131,4131190,1081191,0,0,3091130,0,0,3070160,0,-3051130,0,0,0,0,0,0,0,0,0,0,0,0,0,4080070,0,0,0,0,0,0,0,0
19,261,653.421624549082,1,0,85547.6295277616,85548.6765295701,1,5,11,1,1,31,3,1160160,0,3121081,6212371,0,0,1160160,0,0,0,0,0,0,0,0,0,0,0,0,0,0,0,3121081,0,0,0,0,0,0,0,0,0,0,0,-4201201,0,0,0,2011170,0
19,262,592.648607547744,1,0,85550.3942403921,85551.4413199627,1,5,11,0,1,27,3,1141121,0,8392242,0,0,0,0,0,1141121,0,0,0,0,0,0,0,0,0,0,0,0,0,0,2120010,0,0,0,3101161,0,0,-3171071,0,0,0,0,0,0,0,0,0
19,263,1659.76385638351,1,0,85553.0531557414,85554.1002930562,1,5,11,0,1,8,7,7450192,3011020,4251191,5171152,0,2140031,0,0,0,0,0,-4190051,1120110,0,0,0,0,0,0,0,3011020,0,2181101,2070090,0,0,0,0,0,0,0,0,0,0,4031051,0,0,0,1140101,0
19,264,680.08748536522,0,0,85556.9708934337,85558.0179807035,1,5,11,0,0,3,7,1061201,5372401,6141131,6181221,0,0,-1061201,0,0,0,0,0,0,0,0,2071180,1100160,0,0,2201061,0,0,0,0,0,0,3051121,0,0,0,3090010,4091201,0,2090020,0,0,0,0,0,0
19,265,786.168867649394,0,0,85562.935765746,85563.9828534008,1,5,12,0,0,18,3,7181352,2050031,1180081,0,0,0,0,3120201,0,4061151,0,0,0,0,0,0,0,0,0,0,0,-2050031,0,0,0,0,0,0,0,0,1180081,0,0,0,0,0,0,0,0,0
19,266,636.512599303387,1,0,85565.9594011941,85567.0064707558,1,5,12,1,1,20,3,3320281,0,4061111,0,0,0,0,0,0,0,2160161,1160120,0,0,0,0,0,0,0,0,0,0,0,-3031010,0,0,0,0,1030101,0,0,0,0,0,0,0,0,0,0,0
19,267,499.735969802714,0,0,85568.7241838875,85569.7712657679,1,5,12,1,0,22,3,2201080,4160111,5271210,0,0,0,0,0,2201080,0,0,0,0,0,0,4160111,0,0,0,0,0,0,0,0,0,-4090200,0,1181010,0,0,0,0,0,0,0,0,0,0,0,0
19,268,537.352815095801,0,0,85571.3124862327,85572.3595681132,1,5,12,1,0,13,7,6341252,10312431,0,6172422,0,0,3190171,3151081,0,0,0,0,0,0,4101101,4110180,-2101150,0,0,0,0,0,0,0,0,0,0,0,0,0,0,3050180,0,0,0,0,2011161,0,0,1111081
19,269,1145.7508924359,0,0,85574.0419672361,85575.0890725991,1,5,12,1,0,29,7,9633451,6150321,0,6281180,0,0,4191060,0,0,3071110,0,1200150,1171131,0,3040181,0,0,3110140,0,0,0,0,0,0,0,0,0,0,0,0,0,0,-4180010,0,2101170,0,0,0,0,0
19,270,750.454884400824,0,0,85577.336199443,85578.3832770888,1,5,12,0,0,3,7,6140172,8382210,6541312,3041040,2050151,0,-4090021,0,0,0,0,0,0,0,0,0,0,4201080,4181130,0,0,0,0,0,4201030,0,0,0,1150081,0,1190201,0,3041040,0,0,0,0,0,0,0
19,271,714.396361101535,0,0,85580.2421642591,85581.2892496042,1,5,12,0,0,1,3,1070140,0,4331111,4141080,-1070140,0,0,0,0,0,0,0,0,0,0,0,0,0,0,0,0,0,0,0,2150040,0,2181071,0,0,0,0,0,0,0,0,0,0,0,4141080,0
19,272,1097.0363925735,1,0,85583.030479616,85584.077556492,1,5,12,0,1,6,7,6211042,7152451,2272221,4150071,0,0,2041021,0,0,-4170021,0,0,0,0,0,3091120,0,3050171,1011160,0,0,0,1191020,0,0,0,0,0,0,1081201,0,0,0,0,4150071,0,0,0,0,0
19,273,519.412479407038,1,0,85586.2423309472,85587.2894162923,1,5,12,1,1,5,3,3162272,0,3131040,1021051,2141091,0,0,0,-1021181,0,0,0,0,0,0,0,0,0,0,0,0,0,0,0,0,0,0,0,0,0,3131040,1021051,0,0,0,0,0,0,0,0
19,274,969.239362471853,0,0,85588.889467646,85589.9365483716,1,5,12,0,0,25,3,5121071,0,4151221,0,1090020,0,0,0,0,0,0,0,4031051,0,0,0,0,0,0,0,0,0,0,0,0,0,0,0,-1121151,3030070,0,0,0,0,0,0,0,0,0,0
19,275,572.185237731901,1,0,85592.1013328358,85593.1484100967,1,5,12,1,1,32,3,0,6382122,0,2141331,0,0,0,0,0,0,0,0,0,0,0,0,0,4201041,2181081,0,0,0,0,0,0,0,0,0,0,0,0,0,1070191,0,0,-1071140,0,0,0,0
19,276,725.620667843032,1,0,85594.8778799362,85595.924967976,1,5,12,1,1,4,3,2110121,0,2110111,5251322,0,0,0,-2110121,0,0,0,0,0,0,0,0,0,0,0,0,0,0,2110111,0,0,0,0,0,0,0,0,0,0,0,0,0,0,1160181,0,4091141
19,277,854.147968886537,1,0,85597.8073793406,85598.8544527519,1,5,12,0,1,26,7,11571404,1051011,5242091,2011050,0,4040091,0,0,0,1180071,4181131,0,2170111,0,0,0,0,1051011,0,0,0,0,0,0,0,0,0,0,2121060,-3121031,0,0,0,0,0,0,2011050,0,0,0
19,278,579.84557589225,1,0,85600.7486281386,85601.79579856,1,5,12,0,1,9,3,6272142,0,3040171,4131030,2131121,0,0,0,0,0,0,0,-4141021,0,0,0,0,0,0,0,0,0,0,3040171,0,0,0,0,0,0,0,0,4131030,0,0,0,0,0,0,0
19,279,650.186412633047,0,0,85603.4663693724,85604.5134485582,1,5,12,0,0,16,7,3100161,1161020,4150191,10442862,0,3100161,0,0,0,0,0,0,0,0,0,0,0,0,0,-1161020,0,0,0,0,0,0,4150191,0,0,0,0,0,0,0,1041190,0,3150201,4161140,1050151,1040180
19,280,496.516156330472,1,0,85606.2900372343,85607.3370656051,1,5,12,0,1,8,7,5351131,0,10723471,6171091,0,0,0,0,0,3171050,0,-2180081,0,0,0,0,0,0,0,0,0,0,0,4181131,1200200,0,0,3191110,0,2151030,0,0,2040050,0,4131041,0,0,0,0,0
19,281,528.9779893792,0,0,85608.8665274374,85609.9136027735,1,5,12,0,0,17,3,4140021,3121080,2111191,4151170,4140021,0,0,0,0,0,0,0,0,0,0,0,0,0,0,0,-3121080,0,0,0,2111191,0,0,0,0,0,0,0,0,0,0,0,4151170,0,0,0
19,282,609.31549234374,0,0,85611.5960076708,85612.6430972505,1,5,12,1,0,21,7,7513191,1040120,8273372,4110171,2141010,0,0,0,0,0,0,2201171,3171010,0,1040120,0,0,0,0,0,0,0,4071011,0,-2141170,0,2061191,0,0,0,0,0,0,0,0,0,0,0,0,4110171
19,283,656.558671427774,0,0,85614.2666812678,85615.3137616084,1,5,12,0,0,14,3,2021020,3081291,0,4160100,0,0,0,0,0,0,0,0,2021020,0,2010120,0,0,-1071171,0,0,0,0,0,0,0,0,0,0,0,0,0,0,0,0,0,0,0,0,0,4160100
19,284,1087.84660451056,1,0,85617.0785231289,85618.1256411957,1,5,12,0,1,27,7,10552483,2041161,6182160,4190181,0,0,2060180,1101191,0,0,3201081,4190031,0,0,2041161,0,0,0,0,0,0,0,0,0,0,0,0,0,0,2021090,-4161070,0,0,0,0,0,0,0,4190181,0
19,285,709.073505888227,1,0,85620.3962641318,85621.4433537115,1,5,12,1,1,12,7,5181121,7092130,0,9512400,2150031,0,0,0,0,0,0,0,3031090,0,0,-3021060,0,0,0,0,0,4071070,0,0,0,0,0,0,0,0,0,0,0,0,0,1030050,3190090,4141070,0,1151190
19,286,684.311277029337,0,1,85623.2669210985,85624.3140245367,1,5,12,1,1,19,7,4100242,7373333,2110270,3161110,2060171,2040071,0,0,0,0,0,0,0,0,0,0,3181131,3161131,0,1031071,0,0,-1030200,0,1080070,0,0,0,0,0,0,0,0,0,0,0,0,0,0,3161110
19,287,720.982273225673,0,0,85626.1611399858,85627.2082184015,1,5,12,1,0,31,3,1160160,0,3121081,6212371,0,0,1160160,0,0,0,0,0,0,0,0,0,0,0,0,0,0,0,3121081,0,0,0,0,0,0,0,0,0,0,0,-4201201,0,0,0,2011170,0
19,288,863.882476711296,1,0,85629.1141635846,85630.1612643282,1,5,12,1,1,11,7,9202351,7241231,3150181,4350211,3080161,0,2091040,0,0,0,0,4031150,0,0,-3070170,0,0,0,0,0,4171061,0,0,0,0,3150181,0,0,0,0,0,0,0,0,0,0,0,0,1160060,3190151
19,289,894.512665501679,0,0,85635.9025971246,85636.9496863193,1,5,13,1,0,22,3,2201080,4160111,5271210,0,0,0,0,0,2201080,0,0,0,0,0,0,4160111,0,0,0,0,0,0,0,0,0,-4090200,0,1181010,0,0,0,0,0,0,0,0,0,0,0,0
19,290,866.275009087985,0,0,85638.9026852807,85639.9497706257,1,5,13,0,0,6,7,7352312,7210433,0,2352141,0,2151060,0,0,2181171,-3020081,0,0,0,0,0,3040171,0,1150141,3020121,0,0,0,0,0,0,0,0,0,0,0,0,0,1191061,0,1161080,0,0,0,0,0
19,291,1075.58328812593,1,0,85641.9615993212,85643.0086835114,1,5,13,0,1,25,3,0,1191060,7360191,4031130,0,0,0,0,0,0,0,0,0,1191060,0,0,0,0,0,0,0,0,0,0,0,3200141,0,0,-4160050,0,0,0,0,0,0,0,4031130,0,0,0
19,292,1548.51591304759,1,0,85645.2676640732,85646.3146651118,1,5,13,1,1,29,7,9633451,6150321,0,6281180,0,0,4191060,0,0,3071110,0,1200150,1171131,0,3040181,0,0,3110140,0,0,0,0,0,0,0,0,0,0,0,0,0,0,-4180010,0,2101170,0,0,0,0,0
19,293,592.232079769019,0,0,85649.0088686776,85650.0559451686,1,5,13,1,0,21,7,7513191,1040120,8273372,4110171,2141010,0,0,0,0,0,0,2201171,3171010,0,1040120,0,0,0,0,0,0,0,4071011,0,-2141170,0,2061191,0,0,0,0,0,0,0,0,0,0,0,0,4110171
19,294,603.037164037232,0,0,85651.7618888888,85652.8089638399,1,5,13,0,0,8,7,8422270,0,0,14323752,2151030,0,0,0,0,0,0,-2090100,4181140,0,0,0,0,0,0,0,0,0,0,0,0,0,0,0,0,0,0,3141201,0,0,2021201,0,3050030,2030200,4081120,0
19,295,639.965314156143,0,0,85654.514909485,85655.5619879008,1,5,13,0,0,17,3,4041151,1141030,3190091,4070060,0,0,4041151,0,0,0,0,0,0,0,0,0,0,0,0,0,-1141030,0,0,0,0,0,0,0,0,0,3190091,0,0,0,0,0,0,0,0,4070060
19,296,744.27972563717,1,0,85657.3385180629,85658.385602638,1,5,13,1,1,31,3,1160160,0,3121081,6212371,0,0,1160160,0,0,0,0,0,0,0,0,0,0,0,0,0,0,0,3121081,0,0,0,0,0,0,0,0,0,0,0,-4201201,0,0,0,2011170,0
19,297,1356.82883702975,1,0,85660.2091911979,85661.2562769279,1,5,13,0,1,26,3,0,0,8303252,2200181,0,0,0,0,0,0,0,0,0,0,0,0,0,0,0,0,0,0,0,0,3021121,0,0,4101020,0,-1181111,0,0,0,0,0,0,0,2200181,0,0
19,298,898.948570655193,0,0,85663.6210597753,85664.6681381911,1,5,13,1,0,12,7,5181121,7092130,0,9512400,2150031,0,0,0,0,0,0,0,3031090,0,0,-3021060,0,0,0,0,0,4071070,0,0,0,0,0,0,0,0,0,0,0,0,0,1030050,3190090,4141070,0,1151190
19,299,439.097689144546,1,0,85666.597613728,85667.644689449,1,5,13,0,1,3,7,6331141,3171020,5322092,9220373,4150130,0,-2181011,0,0,0,0,0,0,0,0,0,0,0,3171020,0,0,0,0,0,2191081,0,0,0,0,0,3131011,4160091,0,0,4010151,1050131,0,0,0,0
19,300,569.590600847732,1,0,85669.2800463425,85670.3271243733,1,5,13,1,1,5,3,3162272,0,3131040,1021051,2141091,0,0,0,-1021181,0,0,0,0,0,0,0,0,0,0,0,0,0,0,0,0,0,0,0,0,0,3131040,1021051,0,0,0,0,0,0,0,0
19,301,418.551937691518,1,0,85672.0212979121,85673.068385567,1,5,13,1,1,4,3,2110121,0,2110111,5251322,0,0,0,-2110121,0,0,0,0,0,0,0,0,0,0,0,0,0,0,2110111,0,0,0,0,0,0,0,0,0,0,0,0,0,0,1160181,0,4091141
19,302,868.7664764293,1,0,85674.5860733683,85675.6331629479,1,5,13,0,1,1,7,6232210,9280432,3120121,6301141,-4101140,0,0,0,2131070,0,0,0,0,0,0,0,0,2030141,0,3090110,0,4160181,3120121,0,0,0,0,0,0,0,0,0,4120040,0,0,0,2181101,0,0,0
19,303,588.430975243682,0,0,85677.6802813996,85678.7273698244,1,5,13,0,0,16,3,0,3280451,0,3140100,0,0,0,0,0,0,0,0,0,1080120,0,0,0,0,1070191,-1130140,0,0,0,0,0,0,0,0,0,0,0,0,0,0,0,0,0,3140100,0,0
19,304,807.121137884678,1,0,85680.5156624686,85681.562745119,1,5,13,1,1,19,7,4100242,7373333,2110270,3161110,2060171,2040071,0,0,0,0,0,0,0,0,0,0,3181131,3161131,0,1031071,0,0,-1030200,0,1080070,0,0,0,0,0,0,0,0,0,0,0,0,0,0,3161110
19,305,793.527781381272,1,0,85683.3980973159,85684.4451788114,1,5,13,1,1,11,7,9202351,7241231,3150181,4350211,3080161,0,2091040,0,0,0,0,4031150,0,0,-3070170,0,0,0,0,0,4171061,0,0,0,0,3150181,0,0,0,0,0,0,0,0,0,0,0,0,1160060,3190151
19,306,446.889683953486,0,0,85686.2688324297,85687.3158588757,1,5,13,0,0,14,7,5222221,3030161,9133302,4010091,1090061,0,0,2031070,0,0,2101090,0,0,0,0,0,0,-3030161,0,0,0,0,0,0,4011081,0,0,2111030,0,0,3011191,0,4010091,0,0,0,0,0,0,0
19,307,435.763542263885,1,0,85688.9629655476,85690.0100470431,1,5,13,0,1,9,3,4221211,3160150,4141100,0,0,0,0,1141180,0,0,0,0,-3080031,0,0,0,0,0,0,0,0,3160150,0,0,0,0,0,0,4141100,0,0,0,0,0,0,0,0,0,0,0
19,308,760.926977440249,0,0,85691.5277991328,85692.574883708,1,5,13,1,0,32,3,0,6382122,0,2141331,0,0,0,0,0,0,0,0,0,0,0,0,0,4201041,2181081,0,0,0,0,0,0,0,0,0,0,0,0,0,1070191,0,0,-1071140,0,0,0,0
19,309,608.253770027659,0,0,85694.457242718,85695.5043276781,1,5,13,1,0,20,3,3320281,0,4061111,0,0,0,0,0,0,0,2160161,1160120,0,0,0,0,0,0,0,0,0,0,0,-3031010,0,0,0,0,1030101,0,0,0,0,0,0,0,0,0,0,0
19,310,486.49677739013,1,0,85697.2220261813,85698.2691142211,1,5,13,1,1,13,7,6341252,10312431,0,6172422,0,0,3190171,3151081,0,0,0,0,0,0,4101101,4110180,-2101150,0,0,0,0,0,0,0,0,0,0,0,0,0,0,3050180,0,0,0,0,2011161,0,0,1111081
19,311,1157.45062596397,0,0,85699.9279910744,85700.9750702601,1,5,13,0,0,27,3,1090061,2011201,5171201,0,0,0,1090061,0,0,0,0,0,0,0,0,0,0,0,0,2011201,0,0,0,0,4160011,0,0,0,0,0,-1011190,0,0,0,0,0,0,0,0,0
19,312,462.770478479797,0,0,85703.1986802238,85704.2457555599,1,5,13,0,0,18,7,4121120,9513302,8561382,0,0,0,0,4121120,0,0,0,0,0,0,0,1150050,4171071,0,0,3131011,0,-1061170,3201081,3200180,2160121,0,0,0,0,0,0,0,0,0,0,0,0,0,0,0
19,313,700.845735278563,1,0,85708.8694720038,85709.9165103836,1,5,14,0,1,25,7,8262212,1181030,6072142,6202370,0,2051110,0,0,0,4131071,0,2080031,0,0,0,0,0,0,0,0,1181030,0,0,0,0,0,0,0,-4011131,2061011,0,0,2051190,0,0,0,0,0,0,4151180
19,314,1260.60976959707,0,0,85711.7636389213,85712.8107096379,1,5,14,1,0,21,7,7513191,1040120,8273372,4110171,2141010,0,0,0,0,0,0,2201171,3171010,0,1040120,0,0,0,0,0,0,0,4071011,0,-2141170,0,2061191,0,0,0,0,0,0,0,0,0,0,0,0,4110171
19,315,722.096735204104,1,0,85715.2813786924,85716.3284624976,1,5,14,0,1,16,3,1181050,9222331,0,0,0,0,0,0,1181050,0,0,0,0,0,0,0,0,4021200,0,-2090051,3111080,0,0,0,0,0,0,0,0,0,0,0,0,0,0,0,0,0,0,0
19,316,541.151994810207,0,0,85718.0932240181,85719.1403035888,1,5,14,0,0,3,7,8150341,3071351,6060251,1170050,0,4040140,-2090190,0,0,0,2020011,0,0,0,0,0,0,0,0,2051160,1020191,0,0,0,0,0,0,4030080,2030171,0,0,0,1170050,0,0,0,0,0,0,0
19,317,437.334182977793,1,0,85720.8109544731,85721.858030964,1,5,14,1,1,22,3,2201080,4160111,5271210,0,0,0,0,0,2201080,0,0,0,0,0,0,4160111,0,0,0,0,0,0,0,0,0,-4090200,0,1181010,0,0,0,0,0,0,0,0,0,0,0,0
19,318,431.177117367042,1,0,85723.3522288324,85724.3992791461,1,5,14,0,1,17,3,2170190,2040140,0,5262171,2170190,0,0,0,0,0,0,0,0,0,0,0,0,0,0,0,-2040140,0,0,0,0,0,0,0,0,0,0,0,0,4171011,0,0,0,0,1091160,0
19,319,965.584928067983,1,0,85725.987574562,85727.0346572124,1,5,14,1,1,13,7,6341252,10312431,0,6172422,0,0,3190171,3151081,0,0,0,0,0,0,4101101,4110180,-2101150,0,0,0,0,0,0,0,0,0,0,0,0,0,0,3050180,0,0,0,0,2011161,0,0,1111081
19,320,556.999682696187,1,0,85729.117078894,85730.1641542301,1,5,14,1,1,20,3,3320281,0,4061111,0,0,0,0,0,0,0,2160161,1160120,0,0,0,0,0,0,0,0,0,0,0,-3031010,0,0,0,0,1030101,0,0,0,0,0,0,0,0,0,0,0
19,321,733.650183567079,1,0,85731.8465645169,85732.8936548664,1,5,14,0,1,6,3,6242200,3141261,0,0,0,0,0,0,2111070,-4131130,0,0,0,0,0,1010150,0,0,0,2131111,0,0,0,0,0,0,0,0,0,0,0,0,0,0,0,0,0,0,0,0
19,322,469.008385887719,0,0,85734.7172295677,85735.7643607231,1,5,14,1,0,4,3,2110121,0,2110111,5251322,0,0,0,-2110121,0,0,0,0,0,0,0,0,0,0,0,0,0,0,2110111,0,0,0,0,0,0,0,0,0,0,0,0,0,0,1160181,0,4091141
19,323,789.144230919192,1,0,85737.3879066294,85738.4349842752,1,5,14,0,1,27,3,1190080,0,5191101,2180061,0,0,1190080,0,0,0,0,0,0,0,0,0,0,0,0,0,0,0,0,0,0,0,0,0,0,2030040,-3161061,0,2180061,0,0,0,0,0,0,0
19,324,500.355371987098,0,0,85740.2468103529,85741.2938933882,1,5,14,0,0,9,7,5332291,1021171,5171360,3100391,0,3091190,0,1201071,0,0,0,0,-1040030,0,0,1021171,0,0,0,0,0,0,3030200,0,0,0,0,0,0,0,2141160,0,2040200,0,0,0,0,0,0,1060191
19,325,627.294324105605,0,0,85742.7998240968,85743.8469105968,1,5,14,1,0,5,3,3162272,0,3131040,1021051,2141091,0,0,0,-1021181,0,0,0,0,0,0,0,0,0,0,0,0,0,0,0,0,0,0,0,0,0,3131040,1021051,0,0,0,0,0,0,0,0
19,326,1030.0112246041,0,0,85745.6469626435,85746.6940514532,1,5,14,1,0,19,7,4100242,7373333,2110270,3161110,2060171,2040071,0,0,0,0,0,0,0,0,0,0,3181131,3161131,0,1031071,0,0,-1030200,0,1080070,0,0,0,0,0,0,0,0,0,0,0,0,0,0,3161110
19,327,749.097897016327,0,0,85748.8588274483,85749.9059120234,1,5,14,0,0,1,7,8240503,8462271,2011120,0,-1100181,0,0,4060201,0,0,0,3080121,0,0,0,0,0,3161060,2140031,2050130,1111050,0,0,2011120,0,0,0,0,0,0,0,0,0,0,0,0,0,0,0,0
19,328,898.89429116738,0,0,85751.6942008181,85752.7412826985,1,5,14,1,0,12,7,5181121,7092130,0,9512400,2150031,0,0,0,0,0,0,0,3031090,0,0,-3021060,0,0,0,0,0,4071070,0,0,0,0,0,0,0,0,0,0,0,0,0,1030050,3190090,4141070,0,1151190
19,329,1051.32882278122,0,0,85754.6707640098,85755.7178408857,1,5,14,0,0,26,7,6160131,1190150,11362142,4110111,0,0,0,2100100,0,0,0,0,4060031,0,0,0,1190150,0,0,0,0,0,0,4110010,0,3021021,0,0,0,-1110030,3121081,0,0,0,0,4110111,0,0,0,0
19,330,1070.17458662449,0,0,85757.9296725839,85758.9767625485,1,5,14,1,0,29,7,9633451,6150321,0,6281180,0,0,4191060,0,0,3071110,0,1200150,1171131,0,3040181,0,0,3110140,0,0,0,0,0,0,0,0,0,0,0,0,0,0,-4180010,0,2101170,0,0,0,0,0
19,331,601.352574871271,1,0,85761.0944793758,85762.1415604863,1,5,14,1,1,11,7,9202351,7241231,3150181,4350211,3080161,0,2091040,0,0,0,0,4031150,0,0,-3070170,0,0,0,0,0,4171061,0,0,0,0,3150181,0,0,0,0,0,0,0,0,0,0,0,0,1160060,3190151
19,332,725.602189719211,1,0,85763.8122421675,85764.8592832421,1,5,14,1,1,32,3,0,6382122,0,2141331,0,0,0,0,0,0,0,0,0,0,0,0,0,4201041,2181081,0,0,0,0,0,0,0,0,0,0,0,0,0,1070191,0,0,-1071140,0,0,0,0
19,333,711.279717157595,1,0,85766.7064083151,85767.7534875008,1,5,14,0,1,18,3,3352101,1151141,0,2150031,0,0,2201041,0,0,0,1151060,0,0,0,0,0,0,0,0,0,0,-1151141,0,0,0,0,0,0,0,0,0,0,0,0,0,0,2150031,0,0,0
19,334,800.232261477504,1,0,85769.6594507771,85770.7065230335,1,5,14,1,1,31,3,1160160,0,3121081,6212371,0,0,1160160,0,0,0,0,0,0,0,0,0,0,0,0,0,0,0,3121081,0,0,0,0,0,0,0,0,0,0,0,-4201201,0,0,0,2011170,0
19,335,727.640558005078,0,0,85772.6242253093,85773.6713033401,1,5,14,0,0,8,3,4060180,2061071,2060021,4141061,0,0,0,0,0,0,0,-4060180,0,0,0,0,0,0,0,2061071,0,0,0,0,0,0,0,0,0,0,2060021,0,4141061,0,0,0,0,0,0,0
19,336,645.12802560057,0,0,85775.5654829613,85776.6125698463,1,5,14,0,0,14,7,5151031,4200091,5092151,6231421,0,0,0,0,0,0,1140021,4011010,0,0,0,0,0,-4200091,0,0,0,0,0,0,0,3011051,0,0,0,0,2081100,0,3060201,0,0,0,0,1080120,0,2091100
19,337,669.004074326949,1,0,85781.9069090723,85782.9539332086,1,5,15,0,1,17,7,3111271,3161071,9253283,5342110,1020080,0,0,0,0,2091191,0,0,0,0,0,0,0,0,0,0,-3161071,0,0,4051011,0,0,4081201,0,0,0,1121071,0,0,0,0,0,4171050,1171060,0,0
19,338,685.555470859981,1,0,85784.7539971891,85785.8010786846,1,5,15,0,1,26,3,0,0,6181300,8232122,0,0,0,0,0,0,0,0,0,0,0,0,0,0,0,0,0,0,0,2090130,0,0,0,0,0,-4091170,0,0,0,0,0,0,4201101,0,0,4031021
19,339,1099.35924701858,1,0,85787.6481918238,85788.695276399,1,5,15,1,1,29,7,9633451,6150321,0,6281180,0,0,4191060,0,0,3071110,0,1200150,1171131,0,3040181,0,0,3110140,0,0,0,0,0,0,0,0,0,0,0,0,0,0,-4180010,0,2101170,0,0,0,0,0
19,340,850.014258088777,1,0,85790.930637296,85791.9777823101,1,5,15,0,1,8,3,5223381,0,1120201,0,0,0,0,0,2081190,2081080,0,-1061111,0,0,0,0,0,0,0,0,0,0,0,0,0,0,0,0,1120201,0,0,0,0,0,0,0,0,0,0,0
19,341,678.893721429631,0,0,85793.930805524,85794.9778473685,1,5,15,1,0,12,7,5181121,7092130,0,9512400,2150031,0,0,0,0,0,0,0,3031090,0,0,-3021060,0,0,0,0,0,4071070,0,0,0,0,0,0,0,0,0,0,0,0,0,1030050,3190090,4141070,0,1151190
19,342,1034.10143480869,0,0,85796.8013970473,85797.8484827773,1,5,15,0,0,14,3,4131120,2150010,5332210,0,0,0,4131120,0,0,0,0,0,0,0,0,0,0,-2150010,0,0,0,0,0,0,4171160,0,1161050,0,0,0,0,0,0,0,0,0,0,0,0,0
19,343,812.488648560247,0,0,85799.9779651665,85801.0250505116,1,5,15,1,0,13,7,6341252,10312431,0,6172422,0,0,3190171,3151081,0,0,0,0,0,0,4101101,4110180,-2101150,0,0,0,0,0,0,0,0,0,0,0,0,0,0,3050180,0,0,0,0,2011161,0,0,1111081
19,344,637.16510811355,0,0,85803.0133396142,85804.0604295788,1,5,15,0,0,1,7,4232181,3161191,10282290,3041070,-2091041,0,0,0,2141140,0,0,0,0,0,3161191,0,0,0,0,0,0,0,0,4160010,1020120,3071100,0,2031060,0,0,0,0,0,0,3041070,0,0,0,0,0
19,345,418.762126355432,0,0,85805.895779081,85806.9428682757,1,5,15,1,0,22,3,2201080,4160111,5271210,0,0,0,0,0,2201080,0,0,0,0,0,0,4160111,0,0,0,0,0,0,0,0,0,-4090200,0,1181010,0,0,0,0,0,0,0,0,0,0,0,0
19,346,1201.86703671061,1,0,85808.5664888643,85809.6136088559,1,5,15,0,1,6,7,7151272,5301331,3181301,5260252,0,0,0,0,0,-4040131,0,0,3111141,0,4141201,0,0,0,0,0,1160130,0,0,1071200,0,0,0,2110101,0,0,0,0,0,0,1190101,0,0,0,0,4070151
19,347,875.881324915099,1,0,85811.9665934197,85813.0136575919,1,5,15,0,1,25,3,0,4161081,2030030,4092151,0,0,0,0,0,0,0,0,0,0,4161081,0,0,0,0,0,0,0,0,0,0,0,0,0,-2030030,0,0,3051030,0,0,0,0,0,0,0,1041121
19,348,1121.98032300512,1,0,85815.084281375,85816.1313613306,1,5,15,1,1,11,7,9202351,7241231,3150181,4350211,3080161,0,2091040,0,0,0,0,4031150,0,0,-3070170,0,0,0,0,0,4171061,0,0,0,0,3150181,0,0,0,0,0,0,0,0,0,0,0,0,1160060,3190151
19,349,617.889727844158,0,0,85818.3785443788,85819.4256451223,1,5,15,1,0,32,3,0,6382122,0,2141331,0,0,0,0,0,0,0,0,0,0,0,0,0,4201041,2181081,0,0,0,0,0,0,0,0,0,0,0,0,0,1070191,0,0,-1071140,0,0,0,0
19,350,722.140235782717,1,0,85821.2021183101,85822.2491951861,1,5,15,0,1,3,3,2341172,4160160,0,4020101,0,0,-1160161,0,1181011,0,0,0,0,0,0,0,0,0,0,0,4160160,0,0,0,0,0,0,0,0,0,0,0,0,0,4020101,0,0,0,0,0
19,351,838.711034346488,0,0,85824.0374832108,85825.0845639363,1,5,15,1,0,31,3,1160160,0,3121081,6212371,0,0,1160160,0,0,0,0,0,0,0,0,0,0,0,0,0,0,0,3121081,0,0,0,0,0,0,0,0,0,0,0,-4201201,0,0,0,2011170,0
19,352,1521.46817094763,0,0,85827.1199249104,85828.1670156449,1,5,15,0,0,18,7,5321112,6240221,7452241,4111120,4180041,0,0,0,0,0,0,0,1141071,0,3200030,0,0,0,0,0,0,-3040191,0,0,3161200,0,0,0,3120031,0,1171010,0,0,0,0,0,0,4111120,0,0
19,353,526.565439024125,1,0,85830.8965959682,85831.943594697,1,5,15,1,1,20,3,3320281,0,4061111,0,0,0,0,0,0,0,2160161,1160120,0,0,0,0,0,0,0,0,0,0,0,-3031010,0,0,0,0,1030101,0,0,0,0,0,0,0,0,0,0,0
19,354,582.865979595226,0,1,85833.6025500824,85834.649550736,1,5,15,1,1,19,7,4100242,7373333,2110270,3161110,2060171,2040071,0,0,0,0,0,0,0,0,0,0,3181131,3161131,0,1031071,0,0,-1030200,0,1080070,0,0,0,0,0,0,0,0,0,0,0,0,0,0,3161110
19,355,754.303339141188,0,0,85836.3907753584,85837.4378687877,1,5,15,0,0,27,7,3261121,6201220,5261301,2121090,1111080,2150041,0,0,0,0,0,0,0,0,0,0,0,4100020,0,0,0,2101200,1060160,0,0,0,2160081,0,0,0,-2041060,2121090,0,0,0,0,0,0,0,0
19,356,421.70630779583,0,0,85839.3555791477,85840.4026641078,1,5,15,1,0,21,7,7513191,1040120,8273372,4110171,2141010,0,0,0,0,0,0,2201171,3171010,0,1040120,0,0,0,0,0,0,0,4071011,0,-2141170,0,2061191,0,0,0,0,0,0,0,0,0,0,0,0,4110171
19,357,624.876384317758,1,0,85841.9321205506,85842.9792694143,1,5,15,0,1,9,3,4151151,3190181,3030141,1171190,0,0,0,0,0,0,0,0,-4151151,0,0,0,0,0,3190181,0,0,0,0,0,0,0,0,0,0,3030141,0,0,0,1171190,0,0,0,0,0,0
19,358,634.565466752974,1,0,85844.8145577077,85845.8616357385,1,5,15,1,1,4,3,2110121,0,2110111,5251322,0,0,0,-2110121,0,0,0,0,0,0,0,0,0,0,0,0,0,0,2110111,0,0,0,0,0,0,0,0,0,0,0,0,0,0,1160181,0,4091141
19,359,599.707636676612,0,0,85847.6734579666,85848.7205463914,1,5,15,0,0,16,7,7052401,8272352,0,3200231,0,0,0,0,0,1011171,4030030,2011200,0,0,0,2181201,0,3040011,0,-3051140,0,0,0,0,0,0,0,0,0,0,0,0,0,0,1170200,0,0,2030031,0,0
19,360,681.420990134939,1,1,85850.3676638422,85851.4147538068,1,5,15,1,0,5,3,3162272,0,3131040,1021051,2141091,0,0,0,-1021181,0,0,0,0,0,0,0,0,0,0,0,0,0,0,0,0,0,0,0,0,0,3131040,1021051,0,0,0,0,0,0,0,0
19,361,558.846725383773,0,0,85857.0031446931,85858.050231193,1,5,16,1,0,20,3,3320281,0,4061111,0,0,0,0,0,0,0,2160161,1160120,0,0,0,0,0,0,0,0,0,0,0,-3031010,0,0,0,0,1030101,0,0,0,0,0,0,0,0,0,0,0
19,362,697.600514366059,1,0,85859.7914650545,85860.83854655,1,5,16,1,1,12,7,5181121,7092130,0,9512400,2150031,0,0,0,0,0,0,0,3031090,0,0,-3021060,0,0,0,0,0,4071070,0,0,0,0,0,0,0,0,0,0,0,0,0,1030050,3190090,4141070,0,1151190
19,363,621.823643901735,1,0,85862.5680768283,85863.6151075089,1,5,16,1,1,31,3,1160160,0,3121081,6212371,0,0,1160160,0,0,0,0,0,0,0,0,0,0,0,0,0,0,0,3121081,0,0,0,0,0,0,0,0,0,0,0,-4201201,0,0,0,2011170,0
19,364,940.581328686676,0,0,85865.3563382907,85866.4034194012,1,5,16,0,0,6,3,3010141,5220101,2031061,0,0,0,0,0,0,-3010141,0,0,0,3200041,0,0,0,0,0,0,2020060,0,0,0,0,0,0,2031061,0,0,0,0,0,0,0,0,0,0,0,0
19,365,735.992286063265,1,0,85868.4387765256,85869.4858541715,1,5,16,1,1,13,7,6341252,10312431,0,6172422,0,0,3190171,3151081,0,0,0,0,0,0,4101101,4110180,-2101150,0,0,0,0,0,0,0,0,0,0,0,0,0,0,3050180,0,0,0,0,2011161,0,0,1111081
19,366,600.979932656628,1,0,85871.2977433828,85872.3447744484,1,5,16,0,1,8,7,5050321,3111402,3291241,2172152,0,0,0,0,0,2020121,0,-3030200,0,0,0,0,0,0,2100201,1011201,0,0,0,0,0,1091171,0,0,0,2200070,0,0,1151071,0,0,0,0,0,0,1021081
19,367,577.898058385472,0,0,85873.9918799654,85875.0389733947,1,5,16,0,0,18,7,4181382,8111270,8391371,2101040,1101181,0,0,3080201,0,0,0,0,0,4040200,0,0,0,0,0,0,0,-4071070,0,0,0,0,0,4150100,0,2170181,2071090,0,2101040,0,0,0,0,0,0,0
19,368,1010.72814509098,1,0,85876.7331434689,85877.78021842,1,5,16,0,1,27,3,4191161,0,3240181,1041140,0,0,0,0,4191161,0,0,0,0,0,0,0,0,0,0,0,0,0,0,0,0,0,0,0,2080161,0,-1160020,0,0,0,0,0,0,0,1041140,0
19,369,561.97530310601,0,0,85879.8979271632,85880.945014818,1,5,16,1,0,11,7,9202351,7241231,3150181,4350211,3080161,0,2091040,0,0,0,0,4031150,0,0,-3070170,0,0,0,0,0,4171061,0,0,0,0,3150181,0,0,0,0,0,0,0,0,0,0,0,0,1160060,3190151
19,370,730.059267734759,1,0,85882.5215396676,85883.568631557,1,5,16,0,1,17,7,4130100,7170052,4072092,6290411,0,0,0,0,0,0,0,4130100,0,0,0,0,0,0,3070011,0,-4100041,0,3021031,0,0,1051061,0,0,0,0,0,0,1040200,0,0,2080080,3170131,0,0,0
19,371,921.605448034825,1,0,85885.451040227,85886.4981097886,1,5,16,1,1,32,3,0,6382122,0,2141331,0,0,0,0,0,0,0,0,0,0,0,0,0,4201041,2181081,0,0,0,0,0,0,0,0,0,0,0,0,0,1070191,0,0,-1071140,0,0,0,0
19,372,859.103956288891,0,0,85888.5334761522,85889.5805557228,1,5,16,0,0,1,3,3080070,2051101,4341222,0,-3080070,0,0,0,0,0,0,0,0,2051101,0,0,0,0,0,0,0,0,1161151,0,0,0,0,0,0,0,3180071,0,0,0,0,0,0,0,0,0
19,373,457.033020313247,1,0,85891.4865055254,85892.5335843262,1,5,16,0,1,26,3,4060110,0,2020041,6150102,0,4060110,0,0,0,0,0,0,0,0,0,0,0,0,0,0,0,0,0,0,0,0,0,0,0,-2020041,0,0,0,0,3080061,0,0,0,0,3070041
19,374,807.455283997115,1,0,85894.0512794417,85895.0983747958,1,5,16,1,1,21,7,7513191,1040120,8273372,4110171,2141010,0,0,0,0,0,0,2201171,3171010,0,1040120,0,0,0,0,0,0,0,4071011,0,-2141170,0,2061191,0,0,0,0,0,0,0,0,0,0,0,0,4110171
19,375,578.855071347789,0,0,85896.9925417133,85898.0396285982,1,5,16,0,0,16,7,0,4180291,4330191,5490393,0,0,0,0,0,0,0,0,0,0,0,0,1040200,0,0,-3140091,0,0,1170050,0,0,0,0,0,0,3160141,0,0,2150181,0,0,1110121,1130071,0,0,1100020
19,376,576.45868936379,1,0,85899.6749839518,85900.7220650623,1,5,16,0,1,14,3,2081161,6232200,3030110,0,2081161,0,0,0,0,0,0,0,0,0,3071160,0,0,-3161040,0,0,0,0,0,0,0,3030110,0,0,0,0,0,0,0,0,0,0,0,0,0,0
19,377,892.299139974057,0,0,85902.5103627111,85903.5574361224,1,5,16,1,0,22,3,2201080,4160111,5271210,0,0,0,0,0,2201080,0,0,0,0,0,0,4160111,0,0,0,0,0,0,0,0,0,-4090200,0,1181010,0,0,0,0,0,0,0,0,0,0,0,0
19,378,549.874825228471,0,0,85905.5575050304,85906.6046504294,1,5,16,1,0,4,3,2110121,0,2110111,5251322,0,0,0,-2110121,0,0,0,0,0,0,0,0,0,0,0,0,0,0,2110111,0,0,0,0,0,0,0,0,0,0,0,0,0,0,1160181,0,4091141
19,379,962.393986657844,0,0,85908.1928742426,85909.2399611275,1,5,16,0,0,25,7,0,11301422,5300352,7221242,0,0,0,0,0,0,0,0,0,3010181,4181170,0,0,0,0,0,4110071,0,0,1090181,0,0,2110011,0,-2100160,0,0,0,4040101,0,0,0,0,0,0,3181141
19,380,757.80725380173,0,0,85911.3106137826,85912.357735314,1,5,16,1,0,5,3,3162272,0,3131040,1021051,2141091,0,0,0,-1021181,0,0,0,0,0,0,0,0,0,0,0,0,0,0,0,0,0,0,0,0,0,3131040,1021051,0,0,0,0,0,0,0,0
19,381,1054.1432723694,0,0,85914.1812903823,85915.2283603289,1,5,16,1,0,29,7,9633451,6150321,0,6281180,0,0,4191060,0,0,3071110,0,1200150,1171131,0,3040181,0,0,3110140,0,0,0,0,0,0,0,0,0,0,0,0,0,0,-4180010,0,2101170,0,0,0,0,0
19,382,522.536052652868,1,0,85917.3578496474,85918.404939997,1,5,16,0,1,9,3,3030081,2191121,2080090,4050101,0,0,0,0,0,0,0,0,-3030081,0,0,0,0,0,0,0,0,2191121,0,0,0,2080090,0,0,0,0,0,0,0,0,0,0,0,0,4050101,0
19,383,587.935915449634,0,0,85920.0285294038,85921.0756062797,1,5,16,1,0,19,7,4100242,7373333,2110270,3161110,2060171,2040071,0,0,0,0,0,0,0,0,0,0,3181131,3161131,0,1031071,0,0,-1030200,0,1080070,0,0,0,0,0,0,0,0,0,0,0,0,0,0,3161110
19,384,706.793382109026,1,0,85922.6874193458,85923.7345008412,1,5,16,0,1,3,7,9442302,0,1141111,10232350,0,0,-2151021,0,3070200,1180031,0,0,3041050,0,0,0,0,0,0,0,0,0,0,0,0,0,1141111,0,0,0,0,0,0,2091180,0,0,0,4071070,0,4070100
19,385,622.155095290509,0,0,85928.9581847175,85930.0052639031,1,5,17,1,0,12,7,5181121,7092130,0,9512400,2150031,0,0,0,0,0,0,0,3031090,0,0,-3021060,0,0,0,0,0,4071070,0,0,0,0,0,0,0,0,0,0,0,0,0,1030050,3190090,4141070,0,1151190
19,386,583.940790602355,1,0,85931.8053956368,85932.8524036047,1,5,17,0,1,9,3,7061171,3030030,2200121,0,3041040,0,0,0,0,0,0,0,-4020131,0,0,0,3030030,0,0,0,0,0,0,0,0,0,0,2200121,0,0,0,0,0,0,0,0,0,0,0,0
19,387,439.753277649288,0,0,85934.5112896971,85935.5583835113,1,5,17,0,0,16,3,0,3292211,2071112,0,0,0,0,0,0,0,0,0,0,0,0,0,0,0,0,-1201120,2091091,0,0,0,0,1061021,0,0,1010091,0,0,0,0,0,0,0,0,0,0,0
19,388,724.086983376765,1,0,85937.0760643833,85938.1231539629,1,5,17,0,1,17,3,1101150,9292390,0,0,0,0,0,0,0,0,1101150,0,0,3150050,0,3071140,0,0,0,0,-3071200,0,0,0,0,0,0,0,0,0,0,0,0,0,0,0,0,0,0,0
19,389,812.783143701381,0,0,85939.9232090893,85940.9703333155,1,5,17,1,0,13,7,6341252,10312431,0,6172422,0,0,3190171,3151081,0,0,0,0,0,0,4101101,4110180,-2101150,0,0,0,0,0,0,0,0,0,0,0,0,0,0,3050180,0,0,0,0,2011161,0,0,1111081
19,390,520.051129642525,1,0,85942.9821396832,85944.0292000058,1,5,17,0,1,8,7,13391422,4070071,0,7311210,4020030,0,4090080,3040040,0,0,1181111,-1060161,0,0,0,4070071,0,0,0,0,0,0,0,0,0,0,0,0,0,0,0,0,0,0,4160190,3151020,0,0,0,0
19,391,697.078507306287,0,0,85945.5939662228,85946.6410484882,1,5,17,0,0,27,3,2111101,2020051,3140140,4071141,0,0,0,0,0,2111101,0,0,0,2020051,0,0,0,0,0,0,0,0,0,0,0,0,0,0,0,0,-3140140,0,0,0,0,0,0,0,4071141,0
19,392,653.260325896554,0,0,85948.5117100744,85949.5587831008,1,5,17,1,0,32,3,0,6382122,0,2141331,0,0,0,0,0,0,0,0,0,0,0,0,0,4201041,2181081,0,0,0,0,0,0,0,0,0,0,0,0,0,1070191,0,0,-1071140,0,0,0,0
19,393,1014.85685139778,0,0,85951.394201126,85952.4412129436,1,5,17,1,0,11,7,9202351,7241231,3150181,4350211,3080161,0,2091040,0,0,0,0,4031150,0,0,-3070170,0,0,0,0,0,4171061,0,0,0,0,3150181,0,0,0,0,0,0,0,0,0,0,0,0,1160060,3190151
19,394,840.931489176,1,0,85954.6059962529,85955.6530696642,1,5,17,0,1,14,7,4210261,7232162,2051091,6081091,0,0,0,0,1180100,0,0,3030161,0,2041020,0,2010111,0,-3181031,0,0,0,0,0,0,0,2051091,0,0,0,0,0,3050081,0,0,3031010,0,0,0,0,0
19,395,913.242171140155,1,0,85957.6296105282,85958.6766916387,1,5,17,1,1,19,7,4100242,7373333,2110270,3161110,2060171,2040071,0,0,0,0,0,0,0,0,0,0,3181131,3161131,0,1031071,0,0,-1030200,0,1080070,0,0,0,0,0,0,0,0,0,0,0,0,0,0,3161110
19,396,482.509351757471,1,0,85960.641464631,85961.6885484363,1,5,17,1,1,21,7,7513191,1040120,8273372,4110171,2141010,0,0,0,0,0,0,2201171,3171010,0,1040120,0,0,0,0,0,0,0,4071011,0,-2141170,0,2061191,0,0,0,0,0,0,0,0,0,0,0,0,4110171
19,397,688.92195445369,1,0,85963.2651121669,85964.3122109856,1,5,17,0,1,6,3,4080090,0,8341471,0,0,0,0,0,0,-4080090,0,0,0,0,0,0,0,0,0,0,0,0,0,2200160,0,0,0,4101121,0,2040190,0,0,0,0,0,0,0,0,0,0
19,398,960.284015629441,1,0,85966.1357391067,85967.1828229119,1,5,17,1,1,29,7,9633451,6150321,0,6281180,0,0,4191060,0,0,3071110,0,1200150,1171131,0,3040181,0,0,3110140,0,0,0,0,0,0,0,0,0,0,0,0,0,0,-4180010,0,2101170,0,0,0,0,0
19,399,554.753820440965,0,0,85969.1711297227,85970.2182081385,1,5,17,0,0,26,3,4080021,8210091,1060070,0,0,0,4080021,0,0,0,0,0,0,0,0,0,0,4070031,0,0,4140060,0,0,0,0,0,0,0,0,-1060070,0,0,0,0,0,0,0,0,0,0
19,400,655.472696540528,0,0,85971.8182541028,85972.8653475321,1,5,17,0,0,3,7,11393463,2081140,3340112,2171061,0,0,-4101051,0,2101201,0,2051170,3140041,0,0,0,0,0,0,0,0,2081140,0,0,0,0,0,0,1180091,0,0,2160021,0,2171061,0,0,0,0,0,0,0
19,401,920.714648367721,1,0,85974.5359845578,85975.5830629735,1,5,17,0,1,1,7,10664333,4130130,6230251,1151140,-2121081,0,0,0,0,0,3151120,2191041,3201091,0,4130130,0,0,0,0,0,0,0,0,0,0,0,4190111,0,0,0,2040140,0,0,1151140,0,0,0,0,0,0
19,402,1739.57319291367,0,0,85977.5360935017,85978.5831492048,1,5,17,0,0,18,7,7111031,11371433,0,3201212,3071021,0,0,4040010,0,0,0,0,0,1090181,3051051,4090171,0,0,0,0,0,-3140030,0,0,0,0,0,0,0,0,0,0,0,2171171,0,1030041,0,0,0,0
19,403,1637.2382506961,0,1,85981.5244199455,85982.5715037508,1,5,17,0,1,25,7,0,9352142,7220332,3231362,0,0,0,0,0,0,0,0,0,3101020,4071051,0,0,2180071,0,0,0,0,4020050,0,0,0,0,0,-1040181,0,2160101,0,0,0,0,2100171,0,0,0,1131191
19,404,629.355020151706,1,0,85985.2774724935,85986.3245582235,1,5,17,1,1,5,3,3162272,0,3131040,1021051,2141091,0,0,0,-1021181,0,0,0,0,0,0,0,0,0,0,0,0,0,0,0,0,0,0,0,0,0,3131040,1021051,0,0,0,0,0,0,0,0
19,405,839.142190627172,0,0,85988.1363746772,85989.1834657967,1,5,17,1,0,31,3,1160160,0,3121081,6212371,0,0,1160160,0,0,0,0,0,0,0,0,0,0,0,0,0,0,0,3121081,0,0,0,0,0,0,0,0,0,0,0,-4201201,0,0,0,2011170,0
19,406,556.847238156479,0,0,85991.1129186209,85992.1600216742,1,5,17,1,0,20,3,3320281,0,4061111,0,0,0,0,0,0,0,2160161,1160120,0,0,0,0,0,0,0,0,0,0,0,-3031010,0,0,0,0,1030101,0,0,0,0,0,0,0,0,0,0,0
19,407,568.203971473849,0,0,85993.9012497612,85994.9483324116,1,5,17,1,0,22,3,2201080,4160111,5271210,0,0,0,0,0,2201080,0,0,0,0,0,0,4160111,0,0,0,0,0,0,0,0,0,-4090200,0,1181010,0,0,0,0,0,0,0,0,0,0,0,0
19,408,499.396819199319,0,0,85996.560141628,85997.6072450662,1,5,17,1,0,4,3,2110121,0,2110111,5251322,0,0,0,-2110121,0,0,0,0,0,0,0,0,0,0,0,0,0,0,2110111,0,0,0,0,0,0,0,0,0,0,0,0,0,0,1160181,0,4091141
19,409,523.115033938666,0,0,86002.3014917477,86003.348575168,1,5,18,1,0,21,7,7513191,1040120,8273372,4110171,2141010,0,0,0,0,0,0,2201171,3171010,0,1040120,0,0,0,0,0,0,0,4071011,0,-2141170,0,2061191,0,0,0,0,0,0,0,0,0,0,0,0,4110171
19,410,581.693388507119,1,0,86004.9368713538,86005.983956314,1,5,18,1,1,11,7,9202351,7241231,3150181,4350211,3080161,0,2091040,0,0,0,0,4031150,0,0,-3070170,0,0,0,0,0,4171061,0,0,0,0,3150181,0,0,0,0,0,0,0,0,0,0,0,0,1160060,3190151
19,411,521.835423700395,1,0,86007.7604807016,86008.8075652768,1,5,18,0,1,17,7,3212360,3200091,9380332,3251240,0,0,0,0,0,0,2091170,1121190,0,0,0,0,0,0,0,0,-3200091,0,0,0,0,0,4150161,0,4140110,0,1090061,0,0,0,2080100,0,0,0,0,1171140
19,412,586.334477862692,0,0,86010.4899751786,86011.5370516696,1,5,18,0,0,3,7,8510221,6280281,2020200,4240201,0,0,-3200031,0,2160160,0,0,0,3150030,0,0,0,0,4190100,0,2090181,0,0,0,0,0,0,0,0,2020200,0,0,0,1180121,0,0,0,3060080,0,0,0
19,413,700.895010275417,1,0,86013.1606418463,86014.2077191072,1,5,18,0,1,26,3,0,1021120,7320322,2020101,0,0,0,0,0,0,0,0,0,0,0,0,0,0,0,0,0,1021120,0,4120121,0,0,0,0,0,-3200201,0,0,2020101,0,0,0,0,0,0,0
19,414,974.301599111641,1,0,86015.9489529686,86016.9960394686,1,5,18,0,1,6,7,8462741,0,7601412,4140191,0,0,0,0,1201160,-3070190,0,1171200,3020191,0,0,0,0,0,0,0,0,0,4200161,0,2201181,0,0,0,0,0,1200070,0,0,0,4140191,0,0,0,0,0
19,415,642.879853578052,1,0,86019.1725829503,86020.2196586714,1,5,18,1,1,5,3,3162272,0,3131040,1021051,2141091,0,0,0,-1021181,0,0,0,0,0,0,0,0,0,0,0,0,0,0,0,0,0,0,0,0,0,3131040,1021051,0,0,0,0,0,0,0,0
19,416,620.249923493247,0,0,86021.9491281259,86022.9962084665,1,5,18,0,0,25,3,0,4322230,2041170,2121091,0,0,0,0,0,0,0,0,0,0,0,0,0,3191090,0,0,0,1131140,0,0,0,0,0,0,-2041170,0,0,0,0,0,0,0,0,0,2121091,0
19,417,579.011365494807,1,0,86024.6903881647,86025.7374939127,1,5,18,0,1,16,7,4010101,11622532,3011181,7172110,0,0,0,0,0,0,0,0,4010101,0,3171120,0,3200170,0,3161171,-2090071,0,0,0,0,3011181,0,0,0,0,0,0,0,0,0,0,0,0,4021090,3151020,0
19,418,889.602873416152,0,0,86027.3375271733,86028.3846075139,1,5,18,0,0,27,7,8211301,4161060,6291351,5251231,4111170,0,0,0,0,0,4100131,0,0,0,0,0,4161060,0,0,0,0,0,0,0,4101201,0,0,0,0,0,-2190150,2131050,0,1030111,0,0,0,2090070,0,0
19,419,576.259279579972,1,0,86030.4670307354,86031.5141079963,1,5,18,0,1,1,3,4200162,0,0,4161111,-1010051,0,0,0,2020080,0,1170031,0,0,0,0,0,0,0,0,0,0,0,0,0,0,0,0,0,0,0,0,0,0,0,4161111,0,0,0,0,0
19,420,834.907235082937,0,0,86033.1494598852,86034.1965409957,1,5,18,0,0,18,3,0,2161101,2171141,6212371,0,0,0,0,0,0,0,0,0,0,0,0,0,0,0,0,0,-2161101,0,0,0,0,2171141,0,0,0,0,0,0,0,0,0,0,0,3181191,3031180
19,421,507.717365428107,1,0,86036.2083804701,86037.255526254,1,5,18,1,1,12,7,5181121,7092130,0,9512400,2150031,0,0,0,0,0,0,0,3031090,0,0,-3021060,0,0,0,0,0,4071070,0,0,0,0,0,0,0,0,0,0,0,0,0,1030050,3190090,4141070,0,1151190
19,422,468.3905235579,1,0,86038.7967232363,86039.8437550718,1,5,18,1,1,22,3,2201080,4160111,5271210,0,0,0,0,0,2201080,0,0,0,0,0,0,4160111,0,0,0,0,0,0,0,0,0,-4090200,0,1181010,0,0,0,0,0,0,0,0,0,0,0,0
19,423,1316.33748824243,1,0,86041.4438110451,86042.4909013947,1,5,18,1,1,29,7,9633451,6150321,0,6281180,0,0,4191060,0,0,3071110,0,1200150,1171131,0,3040181,0,0,3110140,0,0,0,0,0,0,0,0,0,0,0,0,0,0,-4180010,0,2101170,0,0,0,0,0
19,424,812.840117912856,0,0,86044.9262968612,86045.973404919,1,5,18,1,0,31,3,1160160,0,3121081,6212371,0,0,1160160,0,0,0,0,0,0,0,0,0,0,0,0,0,0,0,3121081,0,0,0,0,0,0,0,0,0,0,0,-4201201,0,0,0,2011170,0
19,425,696.503375627799,1,0,86047.8675325705,86048.9146029021,1,5,18,1,1,20,3,3320281,0,4061111,0,0,0,0,0,0,0,2160161,1160120,0,0,0,0,0,0,0,0,0,0,0,-3031010,0,0,0,0,1030101,0,0,0,0,0,0,0,0,0,0,0
19,426,739.555869673495,0,0,86050.6793798211,86051.7264555421,1,5,18,1,0,13,7,6341252,10312431,0,6172422,0,0,3190171,3151081,0,0,0,0,0,0,4101101,4110180,-2101150,0,0,0,0,0,0,0,0,0,0,0,0,0,0,3050180,0,0,0,0,2011161,0,0,1111081
19,427,546.049468161073,1,0,86053.6088665218,86054.655951097,1,5,18,0,1,14,3,5261171,2031041,4110160,0,0,0,0,0,0,0,0,2171091,3090080,0,0,0,0,-2031041,0,0,0,0,0,0,0,4110160,0,0,0,0,0,0,0,0,0,0,0,0,0,0
19,428,544.946170048206,0,0,86056.4089493654,86057.4560374052,1,5,18,1,0,19,7,4100242,7373333,2110270,3161110,2060171,2040071,0,0,0,0,0,0,0,0,0,0,3181131,3161131,0,1031071,0,0,-1030200,0,1080070,0,0,0,0,0,0,0,0,0,0,0,0,0,0,3161110
19,429,504.531813465292,0,0,86059.0443197325,86060.0914147016,1,5,18,0,0,8,3,4321170,1010010,0,2090150,0,3130160,0,0,0,0,0,-1191010,0,1010010,0,0,0,0,0,0,0,0,0,0,0,0,0,0,0,0,0,0,0,0,2090150,0,0,0,0,0
19,430,633.161899095285,1,0,86061.6326324717,86062.6797151221,1,5,18,1,1,32,3,0,6382122,0,2141331,0,0,0,0,0,0,0,0,0,0,0,0,0,4201041,2181081,0,0,0,0,0,0,0,0,0,0,0,0,0,1070191,0,0,-1071140,0,0,0,0
19,431,1537.96913758561,0,0,86064.4797717883,86065.5268594432,1,5,18,0,0,9,7,5271231,12502163,4112062,0,0,0,0,0,0,0,0,3131060,-2140171,3031031,0,0,0,4170021,0,3200011,0,2101100,0,0,0,0,0,0,1071011,0,3041051,0,0,0,0,0,0,0,0,0
19,432,480.428252805723,0,0,86068.1034150896,86069.1504954302,1,5,18,1,0,4,3,2110121,0,2110111,5251322,0,0,0,-2110121,0,0,0,0,0,0,0,0,0,0,0,0,0,0,2110111,0,0,0,0,0,0,0,0,0,0,0,0,0,0,1160181,0,4091141
19,433,557.705316139618,0,0,86073.9860004567,86075.033033447,1,5,19,1,0,19,7,4100242,7373333,2110270,3161110,2060171,2040071,0,0,0,0,0,0,0,0,0,0,3181131,3161131,0,1031071,0,0,-1030200,0,1080070,0,0,0,0,0,0,0,0,0,0,0,0,0,0,3161110
19,434,865.368426020723,0,0,86076.6683699376,86077.715451433,1,5,19,0,0,6,3,6171182,0,4070120,2021081,0,0,0,4100101,0,-2071081,0,0,0,0,0,0,0,0,0,0,0,0,0,0,0,0,0,4070120,0,0,0,0,0,0,0,0,0,0,0,2021081
19,435,472.874548839172,1,0,86079.703756319,86080.7508343498,1,5,19,1,1,4,3,2110121,0,2110111,5251322,0,0,0,-2110121,0,0,0,0,0,0,0,0,0,0,0,0,0,0,2110111,0,0,0,0,0,0,0,0,0,0,0,0,0,0,1160181,0,4091141
19,436,1019.15224580443,0,0,86082.3626504956,86083.4097262166,1,5,19,0,0,1,7,9252141,4121101,6081373,4191150,-1151051,0,4040050,0,4061040,0,0,0,0,0,0,4121101,0,0,0,0,0,0,0,1020161,0,0,0,2040101,0,3021111,0,0,0,0,4191150,0,0,0,0,0
19,437,598.868806759128,0,0,86085.6097958176,86086.6568842423,1,5,19,0,0,14,7,8291371,9282262,4160180,3101111,0,0,0,0,2130191,0,3100110,3061070,0,0,0,0,0,-2181091,4080140,0,0,3021031,0,0,0,0,0,0,0,4160180,0,0,3101111,0,0,0,0,0,0,0
19,438,913.669092842611,0,0,86088.3628780075,86089.4099136926,1,5,19,1,0,12,7,5181121,7092130,0,9512400,2150031,0,0,0,0,0,0,0,3031090,0,0,-3021060,0,0,0,0,0,4071070,0,0,0,0,0,0,0,0,0,0,0,0,0,1030050,3190090,4141070,0,1151190
19,439,483.643446757924,0,0,86091.5158580288,86092.5629337499,1,5,19,0,0,8,3,6291242,0,4121150,0,1161041,0,0,0,0,0,1120150,-4010051,0,0,0,0,0,0,0,0,0,0,0,0,0,0,4121150,0,0,0,0,0,0,0,0,0,0,0,0,0
19,440,757.113939122064,1,0,86094.139463219,86095.1865439445,1,5,19,0,1,3,7,9410330,7551222,2030011,3171160,0,0,-3130080,0,0,2150160,0,0,4130090,0,0,2180121,0,0,4200071,0,0,1171030,0,0,0,0,2030011,0,0,0,0,0,0,0,0,0,0,0,3171160,0
19,441,906.792535199202,1,0,86096.9748585316,86098.0219396421,1,5,19,1,1,32,3,0,6382122,0,2141331,0,0,0,0,0,0,0,0,0,0,0,0,0,4201041,2181081,0,0,0,0,0,0,0,0,0,0,0,0,0,1070191,0,0,-1071140,0,0,0,0
19,442,1561.35859565984,0,0,86100.0572844477,86101.1043690229,1,5,19,0,0,18,7,8221282,3090191,13324182,0,0,2020131,0,4070080,0,2131071,0,0,0,0,0,0,0,0,0,0,0,-3090191,0,3081080,0,0,0,4081010,0,4061071,2101021,0,0,0,0,0,0,0,0,0
19,443,504.803980860743,1,0,86103.6927156387,86104.7397744214,1,5,19,0,1,9,3,1201191,1031051,0,7181261,0,0,0,0,0,0,0,0,-1201191,0,0,0,0,0,0,1031051,0,0,0,0,0,0,0,0,0,0,0,3111141,0,0,0,0,0,0,0,4070120
19,444,758.325026283273,1,0,86106.2809910367,86107.3280802314,1,5,19,1,1,31,3,1160160,0,3121081,6212371,0,0,1160160,0,0,0,0,0,0,0,0,0,0,0,0,0,0,0,3121081,0,0,0,0,0,0,0,0,0,0,0,-4201201,0,0,0,2011170,0
19,445,522.721603832906,1,0,86109.1046569737,86110.1517223008,1,5,19,0,1,17,3,0,1011190,2121171,4141272,0,0,0,0,0,0,0,0,0,0,0,0,0,0,0,0,-1011190,0,0,0,0,2121171,0,0,0,0,0,0,0,0,1080141,0,0,0,3061131,0
19,446,748.287939146394,0,0,86111.8340925516,86112.8811767418,1,5,19,1,0,13,7,6341252,10312431,0,6172422,0,0,3190171,3151081,0,0,0,0,0,0,4101101,4110180,-2101150,0,0,0,0,0,0,0,0,0,0,0,0,0,0,3050180,0,0,0,0,2011161,0,0,1111081
19,447,930.476103458204,0,0,86114.7400585226,86115.7871531068,1,5,19,0,0,27,7,8241400,3201071,3291232,3030160,4090190,0,0,0,3120180,0,0,1031030,0,0,2021060,0,0,0,0,0,0,1180011,0,0,0,0,0,0,2111131,0,-1180101,0,0,0,0,3030160,0,0,0,0
19,448,710.761174748768,1,0,86117.7637320819,86118.8107693068,1,5,19,1,1,11,7,9202351,7241231,3150181,4350211,3080161,0,2091040,0,0,0,0,4031150,0,0,-3070170,0,0,0,0,0,4171061,0,0,0,0,3150181,0,0,0,0,0,0,0,0,0,0,0,0,1160060,3190151
19,449,446.431195450714,0,0,86120.5519977789,86121.5990831239,1,5,19,0,0,16,3,0,7202242,1140101,4121130,0,0,0,0,0,0,0,0,0,0,0,0,4121071,0,0,-3081171,0,0,0,0,0,0,0,0,0,0,1140101,0,0,0,0,0,4121130,0,0,0
19,450,594.771667238092,1,0,86123.0815281342,86124.1285738283,1,5,19,1,1,20,3,3320281,0,4061111,0,0,0,0,0,0,0,2160161,1160120,0,0,0,0,0,0,0,0,0,0,0,-3031010,0,0,0,0,1030101,0,0,0,0,0,0,0,0,0,0,0
19,451,1065.77063322766,1,0,86125.9286297246,86126.9757058306,1,5,19,0,1,25,7,0,5271280,9571492,2201100,0,0,0,0,0,0,0,0,0,4141090,0,0,0,0,1130190,0,0,0,0,3200151,1141130,0,0,3180160,-2050051,0,0,1170020,0,0,0,0,0,1031080,0,0
19,452,844.559361270512,0,0,86129.128724733,86130.1758043037,1,5,19,1,0,5,3,3162272,0,3131040,1021051,2141091,0,0,0,-1021181,0,0,0,0,0,0,0,0,0,0,0,0,0,0,0,0,0,0,0,0,0,3131040,1021051,0,0,0,0,0,0,0,0
19,453,725.396620560787,1,0,86132.1288009553,86133.1758905349,1,5,19,1,1,29,7,9633451,6150321,0,6281180,0,0,4191060,0,0,3071110,0,1200150,1171131,0,3040181,0,0,3110140,0,0,0,0,0,0,0,0,0,0,0,0,0,0,-4180010,0,2101170,0,0,0,0,0
19,454,654.239666590001,0,0,86134.975948356,86136.0230290816,1,5,19,0,0,26,3,4091031,3170021,4270242,0,0,0,0,0,0,0,0,4091031,0,0,0,0,0,0,0,0,0,3170021,0,0,0,0,1140091,0,0,-3130151,0,0,0,0,0,0,0,0,0,0
19,455,476.608670156565,1,0,86137.7995534692,86138.8466434338,1,5,19,1,1,22,3,2201080,4160111,5271210,0,0,0,0,0,2201080,0,0,0,0,0,0,4160111,0,0,0,0,0,0,0,0,0,-4090200,0,1181010,0,0,0,0,0,0,0,0,0,0,0,0
19,456,438.55065961543,0,0,86140.5055934297,86141.5526064022,1,5,19,1,0,21,7,7513191,1040120,8273372,4110171,2141010,0,0,0,0,0,0,2201171,3171010,0,1040120,0,0,0,0,0,0,0,4071011,0,-2141170,0,2061191,0,0,0,0,0,0,0,0,0,0,0,0,4110171
19,457,684.739353615441,1,0,86146.6234088071,86147.6704344832,1,5,20,1,1,31,3,1160160,0,3121081,6212371,0,0,1160160,0,0,0,0,0,0,0,0,0,0,0,0,0,0,0,3121081,0,0,0,0,0,0,0,0,0,0,0,-4201201,0,0,0,2011170,0
19,458,1306.11561983824,0,0,86149.3999035528,86150.4469919775,1,5,20,1,0,12,7,5181121,7092130,0,9512400,2150031,0,0,0,0,0,0,0,3031090,0,0,-3021060,0,0,0,0,0,4071070,0,0,0,0,0,0,0,0,0,0,0,0,0,1030050,3190090,4141070,0,1151190
19,459,636.805169619038,1,0,86152.941178682,86153.9882674918,1,5,20,1,1,5,3,3162272,0,3131040,1021051,2141091,0,0,0,-1021181,0,0,0,0,0,0,0,0,0,0,0,0,0,0,0,0,0,0,0,0,0,3131040,1021051,0,0,0,0,0,0,0,0
19,460,435.34124008147,0,0,86155.7765539766,86156.8236408615,1,5,20,0,0,17,3,0,1170121,3080090,6281280,0,0,0,0,0,0,0,0,0,0,0,0,0,0,0,0,-1170121,0,0,0,0,0,0,3080090,0,0,0,0,0,0,4130120,2151160,0,0,0,0
19,461,1520.19010056392,0,0,86158.3648624813,86159.411941667,1,5,20,0,0,1,7,4031191,10302260,2151051,6153152,-4031191,0,0,0,0,0,0,0,0,0,4061020,0,0,0,0,2180170,4061070,0,0,0,0,0,0,0,0,0,2151051,0,1021030,4031041,0,0,1101081,0,0,0
19,462,908.53409859119,0,0,86162.0002698046,86163.0473447557,1,5,20,0,0,18,3,0,7452311,0,2180190,0,0,0,0,0,0,0,0,0,0,0,4160081,0,1191110,0,0,0,-2101120,0,0,0,0,0,0,0,0,0,0,2180190,0,0,0,0,0,0,0
19,463,672.916047624312,1,0,86165.0709420927,86166.1180894165,1,5,20,1,1,11,7,9202351,7241231,3150181,4350211,3080161,0,2091040,0,0,0,0,4031150,0,0,-3070170,0,0,0,0,0,4171061,0,0,0,0,3150181,0,0,0,0,0,0,0,0,0,0,0,0,1160060,3190151
19,464,431.347270103288,0,0,86168.0004299484,86169.047529922,1,5,20,0,0,16,3,0,5332191,0,2040110,0,0,0,0,0,0,0,0,0,0,0,0,1090060,0,2161050,-2081081,0,0,0,0,0,0,0,0,0,0,0,0,0,0,0,0,0,0,2040110,0
19,465,548.826191574335,1,0,86170.6828683373,86171.7299463681,1,5,20,0,1,9,7,7452421,0,5280301,11322471,0,0,1180050,0,0,0,0,4181181,-2091190,0,0,0,0,0,0,0,0,0,0,0,0,0,1180190,0,0,0,4100111,0,0,0,0,4041120,0,3101200,4180151,0
19,466,426.708875485929,1,0,86173.3300396826,86174.3771654486,1,5,20,1,1,20,3,3320281,0,4061111,0,0,0,0,0,0,0,2160161,1160120,0,0,0,0,0,0,0,0,0,0,0,-3031010,0,0,0,0,1030101,0,0,0,0,0,0,0,0,0,0,0
19,467,1256.28357831738,1,0,86175.9065499037,86176.953633324,1,5,20,0,1,25,7,3191201,3020111,13261453,3252221,0,0,0,3191201,0,0,0,0,0,0,0,3020111,0,0,0,0,0,0,0,0,3101121,4010081,0,0,-4010180,0,2140071,1051060,0,0,0,0,2201161,0,0,0
19,468,663.450242544059,0,1,86179.3654791887,86180.4125568346,1,5,20,0,1,26,3,2260271,0,4191121,3010010,0,0,0,1060101,0,0,1200170,0,0,0,0,0,0,0,0,0,0,0,0,0,0,0,0,0,0,-4191121,0,3010010,0,0,0,0,0,0,0,0
