sub_id,Trial,RT,Resp,Error,Fix_onset,Disp_onset,q1,q2,block,repeat,tid,tloc,d_setsize,quad1,quad2,quad3,quad4,loc1,loc2,loc3,loc4,loc5,loc6,loc7,loc8,loc9,loc10,loc11,loc12,loc13,loc14,loc15,loc16,loc17,loc18,loc19,loc20,loc21,loc22,loc23,loc24,loc25,loc26,loc27,loc28,loc29,loc30,loc31,loc32,loc33,loc34,loc35,loc36
12,1,683.115035819355,1,0,34425.2340925652,34426.2811351796,1,12,1,0,1,2,3,4321271,0,4161101,4021150,0,-2120090,0,0,0,0,2201181,0,0,0,0,0,0,0,0,0,0,0,0,0,0,0,0,0,0,4161101,0,0,0,0,0,0,0,4021150,0,0
12,2,599.558104324387,1,0,34428.1164211632,34429.1634514589,1,12,1,1,1,3,3,7210341,2180041,0,2041161,3040200,0,-4170141,0,0,0,0,0,0,0,2180041,0,0,0,0,0,0,0,0,0,0,0,0,0,0,0,0,0,0,0,0,2041161,0,0,0,0
12,3,885.139468518901,0,0,34430.7869673381,34431.8340018684,1,12,1,0,0,33,3,0,6071090,0,2161201,0,0,0,0,0,0,0,0,0,0,0,0,0,4041040,2030050,0,0,0,0,0,0,0,0,0,0,0,0,0,0,0,0,0,-1150021,0,0,1011180
12,4,722.650526520738,0,1,34433.8104514966,34434.8574914163,1,12,1,1,1,14,3,3100191,6181082,4130041,0,0,0,0,0,0,3100191,0,0,0,2141051,0,0,0,-4040031,0,0,0,0,0,0,0,4130041,0,0,0,0,0,0,0,0,0,0,0,0,0,0
12,5,925.032587954775,0,0,34436.7868822618,34437.8339183318,1,12,1,1,0,19,7,1201131,8271212,3511351,2151081,1201131,0,0,0,0,0,0,0,0,0,0,0,1051071,0,0,4050071,0,3170070,-1200080,0,1171091,0,0,0,1140180,0,0,0,0,0,0,0,0,0,2151081,0
12,6,404.793650384818,1,1,34439.7750601106,34440.8221608542,1,12,1,0,0,16,7,7232332,1030071,4172151,7181222,0,0,3181090,0,0,1020111,0,3031131,0,0,0,0,0,0,0,-1030071,0,0,0,0,1081040,0,0,0,3091111,0,0,4110121,0,0,0,0,0,0,3071101,0
12,7,828.770789863484,0,0,34442.2691609689,34443.3162551681,1,12,1,1,0,26,3,1081131,0,4180160,6231100,0,0,0,0,0,0,1081131,0,0,0,0,0,0,0,0,0,0,0,0,0,0,0,0,0,0,-4180160,0,0,0,0,0,0,0,4120090,2111010,0
12,8,876.186816407426,1,0,34445.3397023703,34446.3867395952,1,12,1,0,1,34,7,3061201,6162321,12531462,1180151,0,0,0,0,0,3061201,0,0,0,0,4081120,0,0,0,0,2081201,0,0,0,3080161,4140190,4111021,1200090,0,0,0,0,0,0,0,0,0,0,-1180151,0,0
12,9,960.209935619787,0,0,34448.2926039365,34449.3396407765,1,12,1,0,0,35,3,3180061,0,4160130,7140072,0,3180061,0,0,0,0,0,0,0,0,0,0,0,0,0,0,0,0,0,0,0,0,4160130,0,0,0,0,0,4040041,0,0,0,0,0,-3100031,0
12,10,1258.75178049318,0,0,34451.4219731472,34452.4690076774,1,12,1,0,0,5,3,3110121,3051070,2090130,3170050,0,0,0,0,-3110121,0,0,0,0,0,0,0,0,0,3051070,0,0,0,0,0,0,0,2090130,0,0,0,0,0,0,0,0,3170050,0,0,0,0
12,11,698.293276589538,1,0,34454.7866181785,34455.8336684922,1,12,1,0,1,4,3,2121071,3080201,5312250,0,0,0,0,-2121071,0,0,0,0,0,0,0,3080201,0,0,0,0,0,0,0,0,1201100,0,0,0,0,0,4111150,0,0,0,0,0,0,0,0,0
12,12,562.504071975127,1,0,34457.6572431935,34458.70421536,1,12,1,0,1,15,7,2060150,10432193,4241061,3051172,0,0,0,0,0,0,2060150,0,0,3111051,0,0,0,0,-3191041,0,0,4130101,0,2090030,0,0,2151031,0,0,0,0,0,0,1030011,0,0,0,2021161,0,0
12,13,1146.41362770635,1,0,34460.3512592833,34461.3982911188,1,12,1,1,1,31,7,5272313,2031031,3181041,7442232,2101081,0,0,1081201,0,0,0,0,2090031,0,0,0,2031031,0,0,0,0,0,0,0,0,3181041,0,0,0,0,0,0,0,0,-2151031,0,0,1090151,0,4201050
12,14,1251.32780835702,0,0,34463.5982671742,34464.6453070939,1,12,1,1,0,36,7,6131291,5151171,2060070,10273220,0,3071131,0,0,0,3060160,0,0,0,0,0,0,1091090,4060081,0,0,0,0,0,0,0,0,0,0,0,0,2060070,0,0,3071040,0,0,0,0,3031020,-4171160
12,15,1926.77184157947,0,0,34467.0217515637,34468.068784554,1,12,1,1,0,13,7,8242210,7211170,1090130,12370382,0,4111140,0,0,4131070,0,0,0,0,0,0,0,-4170030,0,0,0,0,3041140,0,0,0,0,0,1090130,0,0,0,0,0,4090051,0,0,4100140,0,4180191,0
12,16,656.631646495953,1,0,34471.151104606,34472.1981460655,1,12,1,0,1,28,3,1071171,4041081,0,7332082,0,1071171,0,0,0,0,0,0,0,0,0,0,0,0,0,4041081,0,0,0,0,0,0,0,0,0,0,0,-3161031,0,0,0,0,0,0,0,4171051
12,17,1113.95679914858,1,0,34473.9745919211,34475.0216276062,1,12,1,0,1,29,7,0,3191031,4151031,12663531,0,0,0,0,0,0,0,0,0,0,3191031,0,0,0,0,0,0,0,0,0,0,0,4151031,0,0,0,0,0,-2071120,3180020,1130050,2091060,3070160,0,1121121,0
12,18,912.21223307366,1,0,34477.139261667,34478.1862954273,1,12,1,1,1,20,7,6301052,2111191,5272171,6402231,0,0,2110041,4191011,0,0,0,0,0,0,0,0,0,0,0,2111191,0,0,0,-1141041,0,0,0,4131130,0,0,0,0,2171010,0,0,0,0,1160061,0,3071160
12,19,580.581453745253,1,0,34480.1509752591,34481.1980159487,1,12,1,1,1,24,3,4040161,3070080,4021130,1061081,0,0,0,0,0,0,0,4040161,0,0,0,0,0,0,0,3070080,0,0,0,0,0,0,0,-4021130,0,0,0,0,0,0,0,0,1061081,0,0,0
12,20,725.552747207985,1,0,34482.8568739389,34483.9038588092,1,12,1,1,1,8,3,4100130,4060111,0,3171240,0,0,0,0,0,0,0,-4100130,0,0,0,0,4060111,0,0,0,0,0,0,0,0,0,0,0,0,0,0,0,0,1131080,0,0,0,0,2040160,0
12,21,1476.08072116418,0,0,34485.6803304572,34486.7273484341,1,12,1,0,0,12,7,0,7212252,8442081,6312321,0,0,0,0,0,0,0,0,0,0,0,-3040011,0,0,2111181,0,0,2061060,0,0,0,0,2150041,4171010,2121030,0,0,4161140,0,0,0,0,0,2151181,0,0
12,22,2260.04948389163,0,0,34489.2684976811,34490.3155302866,1,12,1,1,0,1,7,1061191,7381322,5301471,8272100,-1061191,0,0,0,0,0,0,0,0,0,0,4180131,0,3201191,0,0,0,0,1121201,2150130,0,2030140,0,0,0,0,0,0,0,0,4191020,0,4081080,0,0,0
12,23,899.198242812417,1,0,34493.7743125165,34494.8213501264,1,12,1,1,1,23,3,4050140,0,6081302,4010201,0,0,0,0,0,0,4050140,0,0,0,0,0,0,0,0,0,0,0,0,0,0,4040191,-2041111,0,0,0,0,0,0,0,0,0,0,0,4010201,0
12,24,642.2009999078,0,0,34496.8330960552,34497.8801363599,1,12,1,0,0,7,7,5111312,7160242,4080191,8431191,0,0,0,0,0,1020141,-4091171,0,0,0,0,4060041,0,0,0,0,0,3100201,0,0,0,0,0,0,0,0,4080191,3121030,0,0,2180081,0,0,0,0,3130080
12,25,598.335853268509,1,0,34510.5270209093,34511.5740612139,1,12,2,1,1,19,7,1201131,8271212,3511351,2151081,1201131,0,0,0,0,0,0,0,0,0,0,0,1051071,0,0,4050071,0,3170070,-1200080,0,1171091,0,0,0,1140180,0,0,0,0,0,0,0,0,0,2151081,0
12,26,865.692010687781,0,0,34513.2563991281,34514.3034317335,1,12,2,1,0,24,3,4040161,3070080,4021130,1061081,0,0,0,0,0,0,0,4040161,0,0,0,0,0,0,0,3070080,0,0,0,0,0,0,0,-4021130,0,0,0,0,0,0,0,0,1061081,0,0,0
12,27,627.43428239628,0,0,34516.2328271985,34517.2798682731,1,12,2,1,0,26,3,1081131,0,4180160,6231100,0,0,0,0,0,0,1081131,0,0,0,0,0,0,0,0,0,0,0,0,0,0,0,0,0,0,-4180160,0,0,0,0,0,0,0,4120090,2111010,0
12,28,1674.64820444002,0,0,34518.9504352358,34519.9975124967,1,12,2,0,0,12,7,2241362,6070292,3221230,5321141,0,0,1060161,1181201,0,0,0,0,0,0,2020151,-4050141,0,0,0,0,0,0,0,1201170,0,0,0,0,0,0,2020060,2131080,0,0,0,3190061,0,0,0,0
12,29,1077.10756603774,1,0,34522.7739556576,34523.8209470722,1,12,2,0,1,4,3,5231100,6161200,0,0,0,0,0,-4121080,0,0,1110020,0,0,0,0,0,0,4021010,0,2140190,0,0,0,0,0,0,0,0,0,0,0,0,0,0,0,0,0,0,0,0
12,30,853.108021830849,0,0,34525.9620980131,34527.0091379328,1,12,2,0,0,28,3,3181120,5361130,0,1180110,0,0,0,0,3181120,0,0,0,0,0,0,0,4191040,0,0,0,0,1170090,0,0,0,0,0,0,0,0,0,-1180110,0,0,0,0,0,0,0,0
12,31,468.225977718248,1,0,34528.926767066,34529.9738031361,1,12,2,0,1,16,7,0,7390331,5262251,5362330,0,0,0,0,0,0,0,0,0,0,4130090,0,0,0,0,-2190161,1070080,0,0,0,0,0,3161061,0,2101190,0,0,0,3110130,1201160,0,0,0,0,0,1051040
12,32,1652.46020952327,0,0,34531.6326060769,34532.6796579304,1,12,2,1,0,31,7,5272313,2031031,3181041,7442232,2101081,0,0,1081201,0,0,0,0,2090031,0,0,0,2031031,0,0,0,0,0,0,0,0,3181041,0,0,0,0,0,0,0,0,-2151031,0,0,1090151,0,4201050
12,33,789.149452866695,1,0,34535.4678497148,34536.5148880947,1,12,2,1,1,23,3,4050140,0,6081302,4010201,0,0,0,0,0,0,4050140,0,0,0,0,0,0,0,0,0,0,0,0,0,0,4040191,-2041111,0,0,0,0,0,0,0,0,0,0,0,4010201,0
12,34,533.886459088535,1,0,34538.3502064151,34539.3972051439,1,12,2,0,1,15,3,3021180,4251110,4141141,0,0,0,3021180,0,0,0,0,0,0,0,0,0,0,0,-1140060,3111050,0,0,0,0,0,4141141,0,0,0,0,0,0,0,0,0,0,0,0,0,0
12,35,1269.10222585866,1,0,34541.0677721067,34542.1148135662,1,12,2,0,1,2,3,3041161,6161322,0,4111140,0,-3041161,0,0,0,0,0,0,0,0,0,4131151,0,0,0,2030171,0,0,0,0,0,0,0,0,0,0,0,4111140,0,0,0,0,0,0,0,0
12,36,515.193909690424,1,0,34544.5735996458,34545.6206411053,1,12,2,1,1,3,3,7210341,2180041,0,2041161,3040200,0,-4170141,0,0,0,0,0,0,0,2180041,0,0,0,0,0,0,0,0,0,0,0,0,0,0,0,0,0,0,0,0,2041161,0,0,0,0
12,37,1738.41429292224,0,0,34547.1735697728,34548.2206058428,1,12,2,1,0,1,7,1061191,7381322,5301471,8272100,-1061191,0,0,0,0,0,0,0,0,0,0,4180131,0,3201191,0,0,0,0,1121201,2150130,0,2030140,0,0,0,0,0,0,0,0,4191020,0,4081080,0,0,0
12,38,557.523832016159,1,0,34551.1382234273,34552.1852614221,1,12,2,1,1,14,3,3100191,6181082,4130041,0,0,0,0,0,0,3100191,0,0,0,2141051,0,0,0,-4040031,0,0,0,0,0,0,0,4130041,0,0,0,0,0,0,0,0,0,0,0,0,0,0
12,39,578.333281730011,1,0,34553.8793575838,34554.9263959637,1,12,2,0,1,7,7,3271232,5061251,8333463,1010171,0,0,0,0,2130161,0,-1141071,0,0,0,0,0,0,0,4011201,1050050,0,0,0,0,1031161,0,0,4141201,0,3161101,0,0,1010171,0,0,0,0,0,0,0
12,40,472.422822116641,1,0,34556.6322584572,34557.6792995317,1,12,2,1,1,20,7,6301052,2111191,5272171,6402231,0,0,2110041,4191011,0,0,0,0,0,0,0,0,0,0,0,2111191,0,0,0,-1141041,0,0,0,4131130,0,0,0,0,2171010,0,0,0,0,1160061,0,3071160
12,41,970.158096781233,0,0,34559.2086970755,34560.2557331456,1,12,2,0,0,29,3,5130170,0,2011011,1010061,0,0,0,0,0,1040030,4090140,0,0,0,0,0,0,0,0,0,0,0,0,0,0,0,0,0,0,0,2011011,0,-1010061,0,0,0,0,0,0,0
12,42,1302.53993494262,0,0,34562.2910152026,34563.3380820696,1,12,2,1,0,36,7,6131291,5151171,2060070,10273220,0,3071131,0,0,0,3060160,0,0,0,0,0,0,1091090,4060081,0,0,0,0,0,0,0,0,0,0,0,0,2060070,0,0,3071040,0,0,0,0,3031020,-4171160
12,43,1248.52683240169,1,0,34565.7850744851,34566.8321147897,1,12,2,0,1,33,7,5270150,6100222,0,8291523,0,0,0,1140070,0,0,0,4130080,0,0,0,0,0,0,0,0,4060081,2040141,0,0,0,0,0,0,0,0,0,0,0,1101120,0,1030181,-4040121,2120101,0,0
12,44,1157.17290160683,0,0,34569.2673801395,34570.314421599,1,12,2,0,0,35,7,2101160,9402422,4040100,7231231,0,0,0,0,0,0,0,2101160,0,0,3031090,0,1031061,4190180,1150091,0,0,0,0,0,0,0,0,0,0,4040100,0,3130191,0,0,0,0,0,0,-4101040,0
12,45,709.636151310406,0,0,34572.5849925654,34573.6320159318,1,12,2,1,0,8,3,4100130,4060111,0,3171240,0,0,0,0,0,0,0,-4100130,0,0,0,0,4060111,0,0,0,0,0,0,0,0,0,0,0,0,0,0,0,0,1131080,0,0,0,0,2040160,0
12,46,654.190994006058,1,0,34575.3614103189,34576.4084463889,1,12,2,0,1,34,3,2131120,0,0,7491373,0,0,0,0,0,2131120,0,0,0,0,0,0,0,0,0,0,0,0,0,0,0,0,0,0,0,0,0,0,1100151,0,0,0,4190041,-2201181,0,0
12,47,1588.43658215483,0,0,34578.220200479,34579.267236934,1,12,2,1,0,13,7,8242210,7211170,1090130,12370382,0,4111140,0,0,4131070,0,0,0,0,0,0,0,-4170030,0,0,0,0,3041140,0,0,0,0,0,1090130,0,0,0,0,0,4090051,0,0,4100140,0,4180191,0
12,48,1534.79958648677,1,0,34581.9848984809,34583.0318860459,1,12,2,0,1,5,7,5152112,8431350,3160150,5281142,0,0,0,0,-2081071,0,0,3071041,0,0,0,1100130,4150180,0,0,0,0,3181040,3160150,0,0,0,0,0,0,0,0,0,0,2190061,0,0,0,0,0,3091081
12,49,806.87074574962,0,0,34597.643452352,34598.6904884221,1,12,3,1,0,13,7,8242210,7211170,1090130,12370382,0,4111140,0,0,4131070,0,0,0,0,0,0,0,-4170030,0,0,0,0,3041140,0,0,0,0,0,1090130,0,0,0,0,0,4090051,0,0,4100140,0,4180191,0
12,50,593.072282048524,1,0,34600.5493020648,34601.5963335153,1,12,3,0,1,2,3,5312242,0,4131051,3120090,0,-2131161,0,0,3181081,0,0,0,0,0,0,0,0,0,0,0,0,0,0,0,0,0,4131051,0,0,0,0,0,0,0,0,3120090,0,0,0,0
12,51,668.123886069225,0,0,34603.1963232753,34604.2433570357,1,12,3,0,0,16,3,0,3211232,0,7311112,0,0,0,0,0,0,0,0,0,0,0,0,0,0,0,-1111061,2100171,0,0,0,0,0,0,0,0,0,0,0,0,0,0,0,3111061,0,4200051,0
12,52,1000.50803399063,0,0,34605.9727525776,34607.0197948071,1,12,3,0,0,12,3,4120020,4131130,3020021,2151091,0,0,0,4120020,0,0,0,0,0,0,0,-4131130,0,0,0,0,0,0,0,0,3020021,0,0,0,0,0,0,0,0,0,0,2151091,0,0,0,0
12,53,801.438176662487,0,0,34609.2197716324,34610.2668061627,1,12,3,1,0,26,3,1081131,0,4180160,6231100,0,0,0,0,0,0,1081131,0,0,0,0,0,0,0,0,0,0,0,0,0,0,0,0,0,0,-4180160,0,0,0,0,0,0,0,4120090,2111010,0
12,54,1979.48762567103,1,0,34612.1138434646,34613.1608856941,1,12,3,1,1,1,7,1061191,7381322,5301471,8272100,-1061191,0,0,0,0,0,0,0,0,0,0,4180131,0,3201191,0,0,0,0,1121201,2150130,0,2030140,0,0,0,0,0,0,0,0,4191020,0,4081080,0,0,0
12,55,649.392070663453,0,0,34616.3137867984,34617.3608286429,1,12,3,1,0,3,3,7210341,2180041,0,2041161,3040200,0,-4170141,0,0,0,0,0,0,0,2180041,0,0,0,0,0,0,0,0,0,0,0,0,0,0,0,0,0,0,0,0,2041161,0,0,0,0
12,56,1294.34180631506,0,0,34619.0666938311,34620.1137337507,1,12,3,0,0,7,7,8032152,7450393,0,9252351,0,0,0,4011111,0,0,-4021041,0,0,0,4140131,0,0,0,1190071,0,2120191,0,0,0,0,0,0,0,0,0,0,2160191,0,0,0,0,0,3031120,4061040,0
12,57,823.265848121082,1,0,34622.4548826898,34623.5019187599,1,12,3,1,1,24,3,4040161,3070080,4021130,1061081,0,0,0,0,0,0,0,4040161,0,0,0,0,0,0,0,3070080,0,0,0,0,0,0,0,-4021130,0,0,0,0,0,0,0,0,1061081,0,0,0
12,58,1447.87232177623,1,0,34625.3371924248,34626.384227725,1,12,3,1,1,36,7,6131291,5151171,2060070,10273220,0,3071131,0,0,0,3060160,0,0,0,0,0,0,1091090,4060081,0,0,0,0,0,0,0,0,0,0,0,0,2060070,0,0,3071040,0,0,0,0,3031020,-4171160
12,59,2132.3529286019,1,0,34628.8547789814,34629.901829295,1,12,3,0,1,33,7,3130141,9433552,5260151,2081140,0,0,0,2010120,0,0,1120021,0,0,0,0,4151181,0,3121191,0,0,2161180,0,2060130,0,0,0,0,3200021,0,0,0,0,0,0,0,0,-2081140,0,0,0
12,60,854.214014674653,1,0,34633.1017907219,34634.1488337213,1,12,3,0,1,5,3,4212251,2151161,0,2061141,0,0,0,0,-2081091,0,2131160,0,0,0,0,0,0,0,0,2151161,0,0,0,0,0,0,0,0,0,0,0,0,0,0,0,0,0,0,2061141,0
12,61,496.943295489473,1,0,34636.1840965303,34637.2311422244,1,12,3,1,1,23,3,4050140,0,6081302,4010201,0,0,0,0,0,0,4050140,0,0,0,0,0,0,0,0,0,0,0,0,0,0,4040191,-2041111,0,0,0,0,0,0,0,0,0,0,0,4010201,0
12,62,593.163902762171,0,0,34638.8428983162,34639.8899274569,1,12,3,1,0,8,3,4100130,4060111,0,3171240,0,0,0,0,0,0,0,-4100130,0,0,0,0,4060111,0,0,0,0,0,0,0,0,0,0,0,0,0,0,0,0,1131080,0,0,0,0,2040160,0
12,63,1137.68271310983,1,0,34641.5252119777,34642.5722453531,1,12,3,0,1,35,7,0,1100121,9410292,9293333,0,0,0,0,0,0,0,0,0,0,0,0,0,0,1100121,0,0,0,0,1050121,0,0,4160111,4200060,0,0,0,0,1081041,0,3011201,2121051,0,0,-3080040,0
12,64,680.851080403954,1,1,34644.8781472666,34645.9251440706,1,12,3,0,0,29,3,2161061,0,2020201,6120191,0,0,0,0,0,2161061,0,0,0,0,0,0,0,0,0,0,0,0,0,0,0,0,0,0,2020201,0,0,0,-3110090,0,0,0,0,3010101,0,0
12,65,743.273270170903,1,0,34647.807469589,34648.8545129733,1,12,3,1,1,19,7,1201131,8271212,3511351,2151081,1201131,0,0,0,0,0,0,0,0,0,0,0,1051071,0,0,4050071,0,3170070,-1200080,0,1171091,0,0,0,1140180,0,0,0,0,0,0,0,0,0,2151081,0
12,66,649.089491344057,0,0,34650.7956689957,34651.8427081455,1,12,3,0,0,28,3,2160080,0,0,11392242,0,0,0,0,0,0,2160080,0,0,0,0,0,0,0,0,0,0,0,0,0,0,0,0,0,0,0,0,-4181091,0,0,4010120,3201031,0,0,0,0
12,67,1449.47914883232,0,0,34653.6662100891,34654.7132534735,1,12,3,1,0,31,7,5272313,2031031,3181041,7442232,2101081,0,0,1081201,0,0,0,0,2090031,0,0,0,2031031,0,0,0,0,0,0,0,0,3181041,0,0,0,0,0,0,0,0,-2151031,0,0,1090151,0,4201050
12,68,662.730198040663,1,0,34657.2661655876,34658.3132028126,1,12,3,1,1,14,3,3100191,6181082,4130041,0,0,0,0,0,0,3100191,0,0,0,2141051,0,0,0,-4040031,0,0,0,0,0,0,0,4130041,0,0,0,0,0,0,0,0,0,0,0,0,0,0
12,69,1068.15452896262,1,0,34659.9955434214,34661.042574872,1,12,3,0,1,34,7,4130162,2301190,3170291,5391301,0,0,0,0,1030081,3100081,0,0,0,0,0,1161160,1140030,0,0,0,0,0,2100161,0,1070130,0,0,0,0,0,0,0,0,0,0,0,0,-1190111,4201190,0
12,70,570.413094923424,0,0,34663.1484402912,34664.1954794409,1,12,3,1,0,20,7,6301052,2111191,5272171,6402231,0,0,2110041,4191011,0,0,0,0,0,0,0,0,0,0,0,2111191,0,0,0,-1141041,0,0,0,4131130,0,0,0,0,2171010,0,0,0,0,1160061,0,3071160
12,71,1807.34578757983,0,0,34665.8072262937,34666.8542642885,1,12,3,0,0,4,7,10542293,5381482,3141141,3031011,0,0,0,-4191181,0,0,4181011,2170101,0,1061191,0,0,0,0,0,2130161,2190130,0,0,0,0,0,3141141,0,0,0,0,0,0,3031011,0,0,0,0,0,0
12,72,506.344812085445,1,0,34669.7012892717,34670.7483318861,1,12,3,0,1,15,7,11291212,6202071,1181161,8111071,3120061,0,4150021,0,0,0,0,4021130,0,0,0,0,0,0,-4191011,0,0,2011060,0,0,0,0,0,0,0,0,1181161,0,0,0,4021051,0,0,0,4090020,0
12,73,577.805115295632,0,0,34682.3246396178,34683.3716799224,1,12,4,0,0,28,3,0,2140201,3070170,2202152,0,0,0,0,0,0,0,0,0,0,0,0,2140201,0,0,0,0,0,0,0,0,0,3070170,0,0,0,0,-1111091,0,0,0,0,1091061,0,0,0
12,74,1011.89248449373,1,0,34685.030495182,34686.0775304821,1,12,4,1,1,31,7,5272313,2031031,3181041,7442232,2101081,0,0,1081201,0,0,0,0,2090031,0,0,0,2031031,0,0,0,0,0,0,0,0,3181041,0,0,0,0,0,0,0,0,-2151031,0,0,1090151,0,4201050
12,75,782.18358426966,0,0,34688.2422152414,34689.289256701,1,12,4,1,0,8,3,4100130,4060111,0,3171240,0,0,0,0,0,0,0,-4100130,0,0,0,0,4060111,0,0,0,0,0,0,0,0,0,0,0,0,0,0,0,0,1131080,0,0,0,0,2040160,0
12,76,720.62101233314,1,0,34691.2539411523,34692.3009764525,1,12,4,1,1,23,3,4050140,0,6081302,4010201,0,0,0,0,0,0,4050140,0,0,0,0,0,0,0,0,0,0,0,0,0,0,4040191,-2041111,0,0,0,0,0,0,0,0,0,0,0,4010201,0
12,77,554.916106470046,0,0,34694.2186017361,34695.2656451204,1,12,4,1,0,3,3,7210341,2180041,0,2041161,3040200,0,-4170141,0,0,0,0,0,0,0,2180041,0,0,0,0,0,0,0,0,0,0,0,0,0,0,0,0,0,0,0,0,2041161,0,0,0,0
12,78,643.467521469574,0,0,34697.0067962153,34698.0538415244,1,12,4,0,0,16,7,3141201,7171471,5260221,4201271,0,0,0,0,0,3141201,0,0,0,0,0,0,0,1011201,0,-3010110,3150160,0,4080040,0,0,1180181,0,0,0,0,0,0,0,0,0,0,1101080,0,0,3100191
12,79,958.677021073527,1,0,34699.8538893366,34700.9008634279,1,12,4,1,1,13,7,8242210,7211170,1090130,12370382,0,4111140,0,0,4131070,0,0,0,0,0,0,0,-4170030,0,0,0,0,3041140,0,0,0,0,0,1090130,0,0,0,0,0,4090051,0,0,4100140,0,4180191,0
12,80,1101.13297961652,0,0,34702.8890670692,34703.9361127633,1,12,4,1,0,36,7,6131291,5151171,2060070,10273220,0,3071131,0,0,0,3060160,0,0,0,0,0,0,1091090,4060081,0,0,0,0,0,0,0,0,0,0,0,0,2060070,0,0,3071040,0,0,0,0,3031020,-4171160
12,81,534.177489578724,1,0,34706.1831383624,34707.2301852114,1,12,4,1,1,26,3,1081131,0,4180160,6231100,0,0,0,0,0,0,1081131,0,0,0,0,0,0,0,0,0,0,0,0,0,0,0,0,0,0,-4180160,0,0,0,0,0,0,0,4120090,2111010,0
12,82,1216.56968317984,1,0,34708.8536953162,34709.9007410103,1,12,4,0,1,12,3,0,2101150,5100151,1050181,0,0,0,0,0,0,0,0,0,0,0,-2101150,0,0,0,0,0,0,3040080,2060071,0,0,0,0,0,0,0,0,0,0,1050181,0,0,0,0,0
12,83,777.774626389146,0,0,34712.2066140518,34713.2536331835,1,12,4,1,0,19,7,1201131,8271212,3511351,2151081,1201131,0,0,0,0,0,0,0,0,0,0,0,1051071,0,0,4050071,0,3170070,-1200080,0,1171091,0,0,0,1140180,0,0,0,0,0,0,0,0,0,2151081,0
12,84,907.30937027547,1,0,34715.1830190245,34716.2300627938,1,12,4,0,1,7,7,8102070,6111330,2161100,3052191,0,0,0,0,4031040,3051020,-1020010,0,0,0,0,0,4010130,2101200,0,0,0,0,2161100,0,0,0,0,0,0,0,0,0,0,1031030,0,0,0,2021161,0,0
12,85,759.222202788806,1,0,34718.1829778337,34719.2300223729,1,12,4,0,1,33,3,3200351,0,0,6162112,0,2120171,0,0,0,1080180,0,0,0,0,0,0,0,0,0,0,0,0,0,0,0,0,0,0,0,0,0,0,3061041,0,0,0,-3101071,0,0,0
12,86,886.3640293348,1,0,34721.0417726133,34722.0888071436,1,12,4,0,1,2,3,7351261,0,6181132,0,0,-4201170,0,0,0,0,3150091,0,0,0,0,0,0,0,0,0,0,0,2091121,0,4090011,0,0,0,0,0,0,0,0,0,0,0,0,0,0,0
12,87,1356.9514720657,1,0,34724.1240791916,34725.1711106422,1,12,4,1,1,1,7,1061191,7381322,5301471,8272100,-1061191,0,0,0,0,0,0,0,0,0,0,4180131,0,3201191,0,0,0,0,1121201,2150130,0,2030140,0,0,0,0,0,0,0,0,4191020,0,4081080,0,0,0
12,88,1435.47157433932,1,0,34727.688743394,34728.7357717649,1,12,4,0,1,35,7,1131110,3280201,9361281,5212312,0,0,1131110,0,0,0,0,0,0,0,0,0,1120191,0,0,0,0,2160010,0,4170121,0,0,0,0,3110010,2081150,0,0,0,0,3111131,0,0,0,-2101181,0
12,89,492.165545001626,0,0,34731.3828037544,34732.4298402094,1,12,4,1,0,14,3,3100191,6181082,4130041,0,0,0,0,0,0,3100191,0,0,0,2141051,0,0,0,-4040031,0,0,0,0,0,0,0,4130041,0,0,0,0,0,0,0,0,0,0,0,0,0,0
12,90,1178.52976580616,0,0,34734.006296536,34735.0534045937,1,12,4,0,0,4,7,4252402,4281131,10352242,1060060,0,0,0,-1071201,0,0,0,0,3181201,0,0,0,0,0,3111060,0,1170071,0,0,0,0,3111050,0,4130101,0,0,3111091,0,0,0,0,1060060,0,0,0,0
12,91,1037.736068698,1,0,34737.3003716788,34738.3474092887,1,12,4,0,1,29,7,2061171,4191272,4251100,4381201,0,0,0,0,0,0,0,0,2061171,0,0,0,0,1050071,3141201,0,0,0,0,0,0,0,3191020,0,0,0,1060080,2030070,-1181110,0,0,0,0,1170021,0,0
12,92,1098.99221170781,0,0,34740.5238603798,34741.5708972198,1,12,4,1,0,24,3,4040161,3070080,4021130,1061081,0,0,0,0,0,0,0,4040161,0,0,0,0,0,0,0,3070080,0,0,0,0,0,0,0,-4021130,0,0,0,0,0,0,0,0,1061081,0,0,0
12,93,600.657167866302,0,0,34743.8061668811,34744.8532094955,1,12,4,0,0,5,3,5161100,4190050,0,1101031,1031090,0,0,0,-4130010,0,0,0,0,0,0,0,0,0,0,0,0,4190050,0,0,0,0,0,0,0,0,0,0,0,0,0,0,0,1101031,0,0
12,94,1101.37819975353,1,0,34746.4884836224,34747.535523542,1,12,4,0,1,34,7,10252181,4080231,0,5313162,4041070,0,4110031,0,0,0,2101080,0,0,2040070,0,0,0,0,0,0,0,2040161,0,0,0,0,0,0,0,0,0,0,0,0,1061011,0,0,-3201051,1051100,0
12,95,562.903276491852,1,0,34749.7119684738,34750.7590022341,1,12,4,1,1,20,7,6301052,2111191,5272171,6402231,0,0,2110041,4191011,0,0,0,0,0,0,0,0,0,0,0,2111191,0,0,0,-1141041,0,0,0,4131130,0,0,0,0,2171010,0,0,0,0,1160061,0,3071160
12,96,519.36380683037,0,0,34752.335464335,34753.3825007901,1,12,4,0,0,15,3,0,6241322,1120191,2080060,0,0,0,0,0,0,0,0,0,0,0,0,0,0,-2061121,0,0,4180201,0,0,0,0,0,0,0,1120191,0,0,2080060,0,0,0,0,0,0,0
12,97,704.251317387389,0,0,34761.4294571732,34762.4764974779,1,12,5,0,0,2,3,9410371,2081191,0,0,0,-3150070,0,0,0,4130120,0,0,2130181,0,0,0,0,2081191,0,0,0,0,0,0,0,0,0,0,0,0,0,0,0,0,0,0,0,0,0,0
12,98,453.327603565413,1,0,34764.3235363197,34765.3705770093,1,12,5,0,1,15,7,4120101,14463303,3131161,4192231,0,0,0,0,0,0,4120101,0,0,4081011,0,0,0,4121171,-4200111,0,0,2061010,0,0,0,0,0,3131161,0,0,0,0,0,1091120,0,0,0,3101111,0,0
12,99,520.107166448724,1,0,34766.9235002873,34767.970540207,1,12,5,1,1,8,3,4100130,4060111,0,3171240,0,0,0,0,0,0,0,-4100130,0,0,0,0,4060111,0,0,0,0,0,0,0,0,0,0,0,0,0,0,0,0,1131080,0,0,0,0,2040160,0
12,100,1145.78421653277,0,0,34769.5470057726,34770.5940333736,1,12,5,0,0,34,7,3200061,8383240,4091110,8211361,0,0,0,3200061,0,0,0,0,0,4201120,0,1111020,0,0,3071100,0,0,0,0,0,0,4091110,0,0,0,0,0,4050061,0,0,0,0,0,-1021110,3140190,0
12,101,568.599543832534,0,0,34772.8881308441,34773.9351649894,1,12,5,0,0,33,3,3201060,0,2020051,4301212,0,3201060,0,0,0,0,0,0,0,0,0,0,0,0,0,0,0,0,0,0,0,0,0,2020051,0,0,0,0,0,0,3191031,0,-1110181,0,0,0
12,102,722.200122196227,0,0,34775.6763226286,34776.7233644731,1,12,5,0,0,29,3,3140140,2191151,3101100,2070060,0,0,0,0,0,0,0,0,3140140,0,0,0,0,0,0,0,2191151,0,0,0,0,0,0,3101100,0,0,0,0,-2070060,0,0,0,0,0,0,0
12,103,715.266590326792,1,0,34778.5704052397,34779.617439,1,12,5,0,1,4,3,4120100,10442293,0,0,0,0,0,-4120100,0,0,0,0,0,0,0,0,0,4161021,2131171,0,4150101,0,0,0,0,0,0,0,0,0,0,0,0,0,0,0,0,0,0,0
12,104,600.36305768881,1,0,34781.5233056511,34782.5703421061,1,12,5,0,1,16,7,2011081,5250171,3281131,7281303,0,0,0,0,0,0,0,0,2011081,0,0,0,0,0,4190041,-1060130,0,0,0,0,1191120,2090011,0,0,0,0,0,0,0,1060101,0,0,3191101,3030101,0,0
12,105,738.104014388227,0,0,34784.2173871843,34785.2644282588,1,12,5,0,0,35,3,0,3311161,1100110,3041081,0,0,0,0,0,0,0,0,0,0,0,1150110,0,0,0,0,2161051,0,0,1100110,0,0,0,0,0,0,0,0,0,0,0,0,0,0,-3041081,0
12,106,1105.56388027908,1,0,34787.1938706891,34788.2408567142,1,12,5,0,1,7,7,11432232,2021061,2150140,2151111,2181040,0,1121041,0,0,0,-4120101,4010050,0,0,0,0,0,0,0,2021061,0,0,0,2150140,0,0,0,0,0,0,0,0,0,0,1071081,0,0,0,0,1080030
12,107,1401.4275517402,1,0,34790.3820130445,34791.4290471898,1,12,5,0,1,12,7,5181211,7130182,7251342,2221191,0,0,4031200,0,1150011,0,0,0,0,0,0,-3080171,0,0,0,0,4050011,0,0,4121191,0,0,0,0,3130151,0,0,0,1030171,0,0,0,1191020,0,0,0
12,108,960.640321973187,0,0,34793.8878355791,34794.9348882025,1,12,5,1,0,31,7,5272313,2031031,3181041,7442232,2101081,0,0,1081201,0,0,0,0,2090031,0,0,0,2031031,0,0,0,0,0,0,0,0,3181041,0,0,0,0,0,0,0,0,-2151031,0,0,1090151,0,4201050
12,109,1176.68580280588,1,0,34797.0407474623,34798.0877866121,1,12,5,1,1,36,7,6131291,5151171,2060070,10273220,0,3071131,0,0,0,3060160,0,0,0,0,0,0,1091090,4060081,0,0,0,0,0,0,0,0,0,0,0,0,2060070,0,0,3071040,0,0,0,0,3031020,-4171160
12,110,559.450176668179,0,0,34800.3348110563,34801.3818555955,1,12,5,1,0,3,3,7210341,2180041,0,2041161,3040200,0,-4170141,0,0,0,0,0,0,0,2180041,0,0,0,0,0,0,0,0,0,0,0,0,0,0,0,0,0,0,0,0,2041161,0,0,0,0
12,111,2198.10195099126,1,0,34803.0171385765,34804.0641773413,1,12,5,1,1,1,7,1061191,7381322,5301471,8272100,-1061191,0,0,0,0,0,0,0,0,0,0,4180131,0,3201191,0,0,0,0,1121201,2150130,0,2030140,0,0,0,0,0,0,0,0,4191020,0,4081080,0,0,0
12,112,682.397083619435,0,0,34807.3817805281,34808.4288239125,1,12,5,0,0,28,7,5281362,7332232,3181070,9391201,1160201,0,4121161,0,0,0,0,0,0,0,4201061,3131171,0,0,0,0,0,0,0,3181070,0,0,0,0,0,0,0,-4170151,0,0,0,0,4071040,1150010,0,0
12,113,708.93783212523,0,0,34810.2523339403,34811.2993680856,1,12,5,0,0,5,3,4180170,4011051,3011081,2130081,0,0,0,0,-4180170,0,0,0,0,0,0,4011051,0,0,0,0,0,0,0,0,0,3011081,0,0,0,0,0,2130081,0,0,0,0,0,0,0,0
12,114,902.578200060816,0,0,34813.1346456001,34814.1816839799,1,12,5,1,0,14,3,3100191,6181082,4130041,0,0,0,0,0,0,3100191,0,0,0,2141051,0,0,0,-4040031,0,0,0,0,0,0,0,4130041,0,0,0,0,0,0,0,0,0,0,0,0,0,0
12,115,651.599051852827,0,0,34816.240493696,34817.287579811,1,12,5,1,0,19,7,1201131,8271212,3511351,2151081,1201131,0,0,0,0,0,0,0,0,0,0,0,1051071,0,0,4050071,0,3170070,-1200080,0,1171091,0,0,0,1140180,0,0,0,0,0,0,0,0,0,2151081,0
12,116,524.272829010442,1,0,34819.122803431,34820.1698395011,1,12,5,1,1,13,7,8242210,7211170,1090130,12370382,0,4111140,0,0,4131070,0,0,0,0,0,0,0,-4170030,0,0,0,0,3041140,0,0,0,0,0,1090130,0,0,0,0,0,4090051,0,0,4100140,0,4180191,0
12,117,1174.58314603573,0,0,34821.8286459065,34822.8757058442,1,12,5,1,0,24,3,4040161,3070080,4021130,1061081,0,0,0,0,0,0,0,4040161,0,0,0,0,0,0,0,3070080,0,0,0,0,0,0,0,-4021130,0,0,0,0,0,0,0,0,1061081,0,0,0
12,118,449.542667389323,1,0,34825.2286007121,34826.2756464062,1,12,5,1,1,26,3,1081131,0,4180160,6231100,0,0,0,0,0,0,1081131,0,0,0,0,0,0,0,0,0,0,0,0,0,0,0,0,0,0,-4180160,0,0,0,0,0,0,0,4120090,2111010,0
12,119,729.626789056056,1,0,34827.9344543515,34828.9815142891,1,12,5,1,1,23,3,4050140,0,6081302,4010201,0,0,0,0,0,0,4050140,0,0,0,0,0,0,0,0,0,0,0,0,0,0,4040191,-2041111,0,0,0,0,0,0,0,0,0,0,0,4010201,0
12,120,608.019546249125,0,0,34830.8520700111,34831.8990995368,1,12,5,1,0,20,7,6301052,2111191,5272171,6402231,0,0,2110041,4191011,0,0,0,0,0,0,0,0,0,0,0,2111191,0,0,0,-1141041,0,0,0,4131130,0,0,0,0,2171010,0,0,0,0,1160061,0,3071160
12,121,511.754283514165,0,0,34838.3693852043,34839.4284166238,1,12,6,1,0,14,3,3100191,6181082,4130041,0,0,0,0,0,0,3100191,0,0,0,2141051,0,0,0,-4040031,0,0,0,0,0,0,0,4130041,0,0,0,0,0,0,0,0,0,0,0,0,0,0
12,122,1005.19031416479,0,0,34841.0519752337,34842.0989570243,1,12,6,1,0,36,7,6131291,5151171,2060070,10273220,0,3071131,0,0,0,3060160,0,0,0,0,0,0,1091090,4060081,0,0,0,0,0,0,0,0,0,0,0,0,2060070,0,0,3071040,0,0,0,0,3031020,-4171160
12,123,596.337520917587,1,0,34844.24015878,34845.2871625133,1,12,6,0,1,16,7,8371371,5321262,3161220,1191041,0,0,3190061,0,2030160,0,3151150,0,0,0,0,0,1140081,0,0,-4181181,0,0,0,0,1100070,0,0,2061150,0,0,0,0,0,0,0,0,1191041,0,0,0
12,124,458.810987489414,0,0,34846.9343296241,34847.981229418,1,12,6,1,0,26,3,1081131,0,4180160,6231100,0,0,0,0,0,0,1081131,0,0,0,0,0,0,0,0,0,0,0,0,0,0,0,0,0,0,-4180160,0,0,0,0,0,0,0,4120090,2111010,0
12,125,439.832797070267,1,0,34849.4871143162,34850.5341369127,1,12,6,1,1,20,7,6301052,2111191,5272171,6402231,0,0,2110041,4191011,0,0,0,0,0,0,0,0,0,0,0,2111191,0,0,0,-1141041,0,0,0,4131130,0,0,0,0,2171010,0,0,0,0,1160061,0,3071160
12,126,1550.08138176345,1,0,34852.1458964691,34853.1929521722,1,12,6,0,1,35,7,8232201,4242281,5261372,1090101,0,4091061,0,0,0,4141140,0,0,0,1010050,0,2091080,0,1141151,0,0,0,0,0,2091201,0,3170171,0,0,0,0,0,0,0,0,0,0,0,0,-1090101,0
12,127,403.41664502921,1,0,34855.8164445688,34856.8634810239,1,12,6,1,1,23,3,4050140,0,6081302,4010201,0,0,0,0,0,0,4050140,0,0,0,0,0,0,0,0,0,0,0,0,0,0,4040191,-2041111,0,0,0,0,0,0,0,0,0,0,0,4010201,0
12,128,494.403708027676,0,0,34858.4281552353,34859.4752067038,1,12,6,1,0,3,3,7210341,2180041,0,2041161,3040200,0,-4170141,0,0,0,0,0,0,0,2180041,0,0,0,0,0,0,0,0,0,0,0,0,0,0,0,0,0,0,0,0,2041161,0,0,0,0
12,129,566.089598367398,1,0,34861.0516495567,34862.0986879365,1,12,6,1,1,13,7,8242210,7211170,1090130,12370382,0,4111140,0,0,4131070,0,0,0,0,0,0,0,-4170030,0,0,0,0,3041140,0,0,0,0,0,1090130,0,0,0,0,0,4090051,0,0,4100140,0,4180191,0
12,130,1222.01572589984,1,0,34863.7457703559,34864.7927702397,1,12,6,1,1,1,7,1061191,7381322,5301471,8272100,-1061191,0,0,0,0,0,0,0,0,0,0,4180131,0,3201191,0,0,0,0,1121201,2150130,0,2030140,0,0,0,0,0,0,0,0,4191020,0,4081080,0,0,0
12,131,897.092506362242,0,0,34867.098624418,34868.1456647226,1,12,6,0,0,28,7,7190141,0,6321182,7501312,0,0,3030111,0,4160030,0,0,0,0,0,0,0,0,0,0,0,0,0,0,4051021,0,0,1070050,0,1200111,0,0,-4160071,0,1201090,0,0,2140151,0,0,0
12,132,1059.26385556086,1,0,34870.1574329792,34871.2044605801,1,12,6,0,1,34,7,2121170,3081141,9302442,10262412,0,0,0,0,0,2121170,0,0,0,0,0,0,3081141,0,0,0,0,0,3091141,3171141,0,0,0,0,0,3040160,0,0,0,0,0,0,3120170,-4121061,0,3021181
12,133,685.50795315241,0,1,34873.3691376402,34874.4161725554,1,12,6,0,1,33,3,3171021,1191130,0,6281092,3171021,0,0,0,0,0,0,0,0,0,0,0,0,0,0,0,0,1191130,0,0,0,0,0,0,0,0,0,0,0,0,0,0,-3101081,3180011,0,0
12,134,914.250216395885,1,1,34876.2044232389,34877.2514346715,1,12,6,0,0,2,7,10511612,0,5202321,5211150,4141120,-1020151,0,4180150,0,0,0,1170191,0,0,0,0,0,0,0,0,0,0,0,0,2021130,0,0,3181191,0,0,0,0,1161010,0,0,0,4050140,0,0,0
12,135,784.185766227893,0,0,34879.2044328629,34880.2513892461,1,12,6,0,0,7,3,3071160,0,3201360,2190151,0,0,0,0,0,0,-3071160,0,0,0,0,0,0,0,0,0,0,0,0,2010160,0,0,0,0,0,0,1191200,0,0,2190151,0,0,0,0,0,0
12,136,894.997548806714,1,0,34882.1455014992,34883.1925360294,1,12,6,0,1,12,3,3182110,5130201,0,0,0,2061010,0,0,0,0,0,1121100,0,0,0,-3010061,0,0,2120140,0,0,0,0,0,0,0,0,0,0,0,0,0,0,0,0,0,0,0,0,0
12,137,591.738777286082,1,0,34885.1336866623,34886.1807550691,1,12,6,1,1,19,7,1201131,8271212,3511351,2151081,1201131,0,0,0,0,0,0,0,0,0,0,0,1051071,0,0,4050071,0,3170070,-1200080,0,1171091,0,0,0,1140180,0,0,0,0,0,0,0,0,0,2151081,0
12,138,470.595797392889,0,0,34887.9689499333,34889.0159840785,1,12,6,1,0,8,3,4100130,4060111,0,3171240,0,0,0,0,0,0,0,-4100130,0,0,0,0,4060111,0,0,0,0,0,0,0,0,0,0,0,0,0,0,0,0,1131080,0,0,0,0,2040160,0
12,139,812.826476780174,0,0,34890.5924357856,34891.6395719455,1,12,6,0,0,4,3,7180160,0,0,7092221,0,0,0,-4100060,0,0,0,0,3080100,0,0,0,0,0,0,0,0,0,0,0,0,0,0,0,0,0,0,0,0,3031140,4061081,0,0,0,0,0
12,140,514.400120198843,0,0,34893.5569021219,34894.604215591,1,12,6,0,0,15,3,1010040,1070180,1200031,4050101,0,0,0,0,1010040,0,0,0,0,0,0,0,0,0,-1070180,0,0,0,0,0,1200031,0,0,0,0,0,0,0,0,0,0,0,0,0,0,4050101
12,141,908.088146294176,1,0,34896.1923574075,34897.2394069512,1,12,6,0,1,5,7,17283762,2030181,2220180,0,4050141,1031201,0,0,-4011200,0,4121030,4070190,0,0,2030181,0,0,0,0,0,0,0,0,0,0,0,0,1110040,0,0,1110140,0,0,0,0,0,0,0,0,0
12,142,1007.6594537677,1,0,34899.2159297221,34900.2628972691,1,12,6,1,1,31,7,5272313,2031031,3181041,7442232,2101081,0,0,1081201,0,0,0,0,2090031,0,0,0,2031031,0,0,0,0,0,0,0,0,3181041,0,0,0,0,0,0,0,0,-2151031,0,0,1090151,0,4201050
12,143,498.513551254291,1,0,34902.4158253206,34903.4628617757,1,12,6,0,1,29,3,0,3140120,0,7332341,0,0,0,0,0,0,0,0,0,0,0,0,3140120,0,0,0,0,0,0,0,0,0,0,0,0,0,0,0,-1150150,4131131,0,2051060,0,0,0,0
12,144,795.057063776767,1,1,34905.0863541723,34906.1334083355,1,12,6,1,0,24,3,4040161,3070080,4021130,1061081,0,0,0,0,0,0,0,4040161,0,0,0,0,0,0,0,3070080,0,0,0,0,0,0,0,-4021130,0,0,0,0,0,0,0,0,1061081,0,0,0
12,145,600.764187016466,0,0,34917.4273760743,34918.4744390916,1,12,7,1,0,20,7,6301052,2111191,5272171,6402231,0,0,2110041,4191011,0,0,0,0,0,0,0,0,0,0,0,2111191,0,0,0,-1141041,0,0,0,4131130,0,0,0,0,2171010,0,0,0,0,1160061,0,3071160
12,146,652.184192513232,1,0,34920.0979965467,34921.1449694831,1,12,7,1,1,23,3,4050140,0,6081302,4010201,0,0,0,0,0,0,4050140,0,0,0,0,0,0,0,0,0,0,0,0,0,0,4040191,-2041111,0,0,0,0,0,0,0,0,0,0,0,4010201,0
12,147,750.561351087526,1,0,34922.9567894015,34924.0037669575,1,12,7,0,1,4,3,2191171,2061051,2040130,2071081,0,0,0,-2191171,0,0,0,0,0,0,0,0,0,0,0,0,2061051,0,0,0,0,2040130,0,0,0,0,0,2071081,0,0,0,0,0,0,0,0
12,148,511.617237410974,1,0,34925.8155322114,34926.8625355598,1,12,7,0,1,16,7,2222230,4232221,8281260,3151030,0,0,0,0,0,1081100,0,0,1141130,0,2021030,0,0,0,0,-1050150,0,1161041,4160180,0,4121080,0,0,0,0,0,0,3151030,0,0,0,0,0,0,0,0
12,149,1346.9651692285,1,0,34928.5213612133,34929.5681917447,1,12,7,0,1,33,7,4171130,3031031,5330431,7141201,0,0,0,0,0,4171130,0,0,0,0,0,3031031,0,0,0,0,0,0,0,0,2120121,1130120,0,0,0,2080190,0,3020060,1030011,0,0,0,-3091130,0,0,0
12,150,961.704970293795,1,0,34932.1095461454,34933.1563821895,1,12,7,0,1,29,7,8663423,2150141,5120230,2190030,0,0,1201181,1201100,0,4100081,0,2161061,0,0,0,2150141,0,0,0,0,0,0,0,0,0,1110030,0,4010200,0,0,0,0,-2190030,0,0,0,0,0,0,0
12,151,770.963512106391,0,0,34935.2859779885,34936.3330213728,1,12,7,1,0,19,7,1201131,8271212,3511351,2151081,1201131,0,0,0,0,0,0,0,0,0,0,0,1051071,0,0,4050071,0,3170070,-1200080,0,1171091,0,0,0,1140180,0,0,0,0,0,0,0,0,0,2151081,0
12,152,619.542967659072,1,0,34938.2623918153,34939.3094436688,1,12,7,0,1,15,3,3071151,7310131,0,3160111,0,0,0,0,3071151,0,0,0,0,3200111,0,0,0,0,-4110020,0,0,0,0,0,0,0,0,0,0,0,0,0,3160111,0,0,0,0,0,0,0
12,153,804.711499724363,1,0,34941.0741185731,34942.1212212414,1,12,7,0,1,2,7,9402343,6161231,5250080,4141170,3171091,-2080101,0,4151151,0,0,0,0,0,0,0,0,0,2050071,0,0,4111160,0,0,0,0,0,2110050,0,3140030,0,0,0,4141170,0,0,0,0,0,0,0
12,154,989.006555355445,1,0,34944.0268172412,34945.0859241709,1,12,7,0,1,12,3,3020130,5232191,3131141,0,0,0,0,0,0,0,0,0,3020130,0,2081150,-3151041,0,0,0,0,0,0,0,0,0,0,0,0,0,0,3131141,0,0,0,0,0,0,0,0,0
12,155,601.574144871847,1,0,34947.1563974342,34948.215269514,1,12,7,1,1,26,3,1081131,0,4180160,6231100,0,0,0,0,0,0,1081131,0,0,0,0,0,0,0,0,0,0,0,0,0,0,0,0,0,0,-4180160,0,0,0,0,0,0,0,4120090,2111010,0
12,156,832.258151211136,1,0,34949.8857991356,34950.9328174975,1,12,7,0,1,28,3,2130020,0,2191150,3131181,0,0,0,0,0,0,0,2130020,0,0,0,0,0,0,0,0,0,0,0,0,0,0,0,0,2191150,0,0,-2041030,0,0,0,0,1090151,0,0,0
12,157,1694.31432009878,0,0,34952.8152069194,34953.8975743215,1,12,7,1,0,1,7,1061191,7381322,5301471,8272100,-1061191,0,0,0,0,0,0,0,0,0,0,4180131,0,3201191,0,0,0,0,1121201,2150130,0,2030140,0,0,0,0,0,0,0,0,4191020,0,4081080,0,0,0
12,158,1051.42027598049,1,0,34956.7212987726,34957.7800214875,1,12,7,0,1,35,7,11503364,7402191,0,4060131,4111151,1130061,3161031,0,0,0,3101121,0,0,3150011,0,0,0,0,3141140,0,1111040,0,0,0,0,0,0,0,0,0,0,0,0,0,0,0,0,0,-4060131,0
12,159,1136.28876947041,0,0,34959.8974149476,34960.9444664161,1,12,7,0,0,5,7,5162112,3121090,8050150,6271192,2041101,0,0,0,-3121011,0,0,0,0,0,0,0,0,0,3121090,0,0,0,0,4020140,0,0,0,0,0,0,4030010,0,0,1161011,1020160,4090021,0,0,0,0
12,160,670.977216708707,0,0,34963.2268472149,34964.2738193815,1,12,7,1,0,8,3,4100130,4060111,0,3171240,0,0,0,0,0,0,0,-4100130,0,0,0,0,4060111,0,0,0,0,0,0,0,0,0,0,0,0,0,0,0,0,1131080,0,0,0,0,2040160,0
12,161,482.864118261205,0,0,34966.0738460208,34967.1208639977,1,12,7,1,0,14,3,3100191,6181082,4130041,0,0,0,0,0,0,3100191,0,0,0,2141051,0,0,0,-4040031,0,0,0,0,0,0,0,4130041,0,0,0,0,0,0,0,0,0,0,0,0,0,0
12,162,490.539854865347,1,0,34968.7561866296,34969.8031595661,1,12,7,0,1,7,3,7302131,2091020,0,2091150,3201100,0,0,0,0,0,-4101031,0,0,0,0,0,0,2091020,0,0,0,0,0,0,0,0,0,0,0,0,0,0,0,0,0,0,2091150,0,0,0
12,163,993.305799369409,0,0,34971.3441175861,34972.3913783748,1,12,7,0,0,34,3,1180051,0,4090091,3202250,0,0,0,0,0,0,1180051,0,0,0,0,0,0,0,0,0,0,0,0,0,0,0,0,0,4090091,0,0,0,0,0,0,0,0,-2121110,0,1081140
12,164,555.051612733223,0,0,34974.579641608,34975.6266083851,1,12,7,1,0,3,3,7210341,2180041,0,2041161,3040200,0,-4170141,0,0,0,0,0,0,0,2180041,0,0,0,0,0,0,0,0,0,0,0,0,0,0,0,0,0,0,0,0,2041161,0,0,0,0
12,165,1365.87332729687,0,0,34977.2737435442,34978.3206906882,1,12,7,1,0,31,7,5272313,2031031,3181041,7442232,2101081,0,0,1081201,0,0,0,0,2090031,0,0,0,2031031,0,0,0,0,0,0,0,0,3181041,0,0,0,0,0,0,0,0,-2151031,0,0,1090151,0,4201050
12,166,632.456868057488,0,0,34980.8500739885,34981.8971212224,1,12,7,1,0,13,7,8242210,7211170,1090130,12370382,0,4111140,0,0,4131070,0,0,0,0,0,0,0,-4170030,0,0,0,0,3041140,0,0,0,0,0,1090130,0,0,0,0,0,4090051,0,0,4100140,0,4180191,0
12,167,939.067879640788,0,0,34983.62651099,34984.6735509097,1,12,7,1,0,24,3,4040161,3070080,4021130,1061081,0,0,0,0,0,0,0,4040161,0,0,0,0,0,0,0,3070080,0,0,0,0,0,0,0,-4021130,0,0,0,0,0,0,0,0,1061081,0,0,0
12,168,843.684562460112,1,0,34986.8029482225,34987.8500089301,1,12,7,1,1,36,7,6131291,5151171,2060070,10273220,0,3071131,0,0,0,3060160,0,0,0,0,0,0,1091090,4060081,0,0,0,0,0,0,0,0,0,0,0,0,2060070,0,0,3071040,0,0,0,0,3031020,-4171160
12,169,545.099601964466,1,0,34996.9322192681,34997.9792622675,1,12,8,0,1,2,3,7231321,0,2031120,4170050,0,-3111140,0,0,0,0,0,4120181,0,0,0,0,0,0,0,0,0,0,0,2031120,0,0,0,0,0,0,0,0,0,0,0,0,0,0,0,4170050
12,170,1400.64839075785,0,0,34999.7086562697,35000.7558440143,1,12,8,0,0,35,7,7162131,1130131,3171222,10341370,0,0,3071091,0,0,0,0,4091040,0,0,0,1130131,0,0,0,0,0,0,0,0,0,2050041,0,0,0,0,1121181,2181200,0,0,0,4100060,0,0,-4060110,0
12,171,691.165724398161,1,0,35003.2851272247,35004.3321244137,1,12,8,1,1,14,3,3100191,6181082,4130041,0,0,0,0,0,0,3100191,0,0,0,2141051,0,0,0,-4040031,0,0,0,0,0,0,0,4130041,0,0,0,0,0,0,0,0,0,0,0,0,0,0
12,172,551.496883213986,1,0,35006.1909303572,35007.2379679672,1,12,8,0,1,16,3,2041021,2040140,2131091,4071081,0,0,0,0,0,0,0,2041021,0,0,0,0,0,0,0,-2040140,0,0,2131091,0,0,0,0,0,0,0,0,4071081,0,0,0,0,0,0,0,0
12,173,599.766753162839,1,0,35008.9085376247,35009.9555802391,1,12,8,0,1,29,7,3060181,4191170,7101222,9432301,3060181,0,0,0,0,0,0,0,0,0,0,4191170,0,0,0,0,0,0,0,0,4081071,0,1010120,0,2010031,0,0,0,-2201041,0,0,3131200,4100060,0,0,0
12,174,670.328172534937,0,0,35011.6379169983,35012.684957303,1,12,8,1,0,24,3,4040161,3070080,4021130,1061081,0,0,0,0,0,0,0,4040161,0,0,0,0,0,0,0,3070080,0,0,0,0,0,0,0,-4021130,0,0,0,0,0,0,0,0,1061081,0,0,0
12,175,429.364938616345,1,1,35014.3908228761,35015.4378627958,1,12,8,0,0,15,3,3061140,2231281,3141041,0,0,3061140,0,0,0,0,0,0,0,0,0,1161191,0,0,-1070090,0,0,0,0,0,0,3141041,0,0,0,0,0,0,0,0,0,0,0,0,0,0
12,176,777.848153928062,1,0,35017.4613669723,35018.5084030423,1,12,8,0,1,12,3,2161071,4121121,2021111,2190170,0,0,0,0,0,2161071,0,0,0,0,0,-4121121,0,0,0,0,0,0,0,0,0,2021111,0,0,0,0,0,0,0,0,0,2190170,0,0,0,0
12,177,2162.61047518492,0,0,35020.4025118308,35021.4495452061,1,12,8,1,0,1,7,1061191,7381322,5301471,8272100,-1061191,0,0,0,0,0,0,0,0,0,0,4180131,0,3201191,0,0,0,0,1121201,2150130,0,2030140,0,0,0,0,0,0,0,0,4191020,0,4081080,0,0,0
12,178,1105.89417677693,1,0,35024.7554009243,35025.8024354545,1,12,8,1,1,31,7,5272313,2031031,3181041,7442232,2101081,0,0,1081201,0,0,0,0,2090031,0,0,0,2031031,0,0,0,0,0,0,0,0,3181041,0,0,0,0,0,0,0,0,-2151031,0,0,1090151,0,4201050
12,179,997.033376363106,1,0,35028.1201495101,35029.1670901099,1,12,8,1,1,19,7,1201131,8271212,3511351,2151081,1201131,0,0,0,0,0,0,0,0,0,0,0,1051071,0,0,4050071,0,3170070,-1200080,0,1171091,0,0,0,1140180,0,0,0,0,0,0,0,0,0,2151081,0
12,180,751.760889441357,0,0,35031.3553352499,35032.4023412931,1,12,8,1,0,23,3,4050140,0,6081302,4010201,0,0,0,0,0,0,4050140,0,0,0,0,0,0,0,0,0,0,0,0,0,0,4040191,-2041111,0,0,0,0,0,0,0,0,0,0,0,4010201,0
12,181,702.938985472429,1,0,35034.1670346755,35035.2140672809,1,12,8,0,1,5,3,5202211,4031170,2111161,0,0,0,0,0,-3151060,0,0,2051151,0,4031170,0,0,0,0,0,0,0,0,0,2111161,0,0,0,0,0,0,0,0,0,0,0,0,0,0,0,0
12,182,883.590000652475,1,0,35037.0494033095,35038.0963920294,1,12,8,0,1,7,7,5281251,8441332,0,11282283,0,0,0,0,0,0,-4140060,1141191,0,3070110,0,0,0,4180051,1191171,0,0,0,0,0,0,0,0,0,0,0,0,4101101,0,0,0,4151021,0,0,3030161,0
12,183,985.426803381415,1,0,35040.1316744714,35041.1787013024,1,12,8,1,1,36,7,6131291,5151171,2060070,10273220,0,3071131,0,0,0,3060160,0,0,0,0,0,0,1091090,4060081,0,0,0,0,0,0,0,0,0,0,0,0,2060070,0,0,3071040,0,0,0,0,3031020,-4171160
12,184,697.944501960592,0,0,35043.3080990002,35044.3551308357,1,12,8,1,0,26,3,1081131,0,4180160,6231100,0,0,0,0,0,0,1081131,0,0,0,0,0,0,0,0,0,0,0,0,0,0,0,0,0,0,-4180160,0,0,0,0,0,0,0,4120090,2111010,0
12,185,830.610903256456,0,0,35046.2492365444,35047.2962714596,1,12,8,0,0,33,3,0,0,9251351,1131011,0,0,0,0,0,0,0,0,0,0,0,0,0,0,0,0,0,0,1130060,0,0,4020140,0,0,0,4101151,0,0,0,0,0,0,-1131011,0,0,0
12,186,880.29473482311,0,0,35049.1786031373,35050.2256426721,1,12,8,1,0,8,3,4100130,4060111,0,3171240,0,0,0,0,0,0,0,-4100130,0,0,0,0,4060111,0,0,0,0,0,0,0,0,0,0,0,0,0,0,0,0,1131080,0,0,0,0,2040160,0
12,187,1835.20733713522,1,0,35052.2726822068,35053.3197217415,1,12,8,0,1,4,7,2201151,6323190,6071330,5170302,0,0,0,-2201151,0,0,0,0,0,0,0,0,0,1101090,0,0,1151060,4071040,0,4041170,0,0,0,0,0,2030160,0,0,1010131,0,4160171,0,0,0,0,0
12,188,2233.03369357018,0,0,35056.3196851702,35057.3667270147,1,12,8,0,0,34,7,11292510,4180100,6261182,4120041,0,0,0,0,0,1120090,4081130,3040190,3051100,0,0,4180100,0,0,0,0,0,0,3070091,0,3191091,0,0,0,0,0,0,0,0,0,0,0,0,-4120041,0,0
12,189,1169.07165995508,0,0,35060.7196315067,35061.7666710414,1,12,8,0,0,28,7,8543372,1041171,5081080,1200101,0,0,1091051,0,1050131,2201050,4201140,0,0,0,0,0,1041171,0,0,0,0,0,2071060,0,0,0,0,0,0,3010020,0,-1200101,0,0,0,0,0,0,0,0
12,190,757.024845617707,0,0,35064.1078288346,35065.1548664445,1,12,8,1,0,13,7,8242210,7211170,1090130,12370382,0,4111140,0,0,4131070,0,0,0,0,0,0,0,-4170030,0,0,0,0,3041140,0,0,0,0,0,1090130,0,0,0,0,0,4090051,0,0,4100140,0,4180191,0
12,191,564.501249435125,1,0,35066.9783768573,35068.0254179319,1,12,8,1,1,3,3,7210341,2180041,0,2041161,3040200,0,-4170141,0,0,0,0,0,0,0,2180041,0,0,0,0,0,0,0,0,0,0,0,0,0,0,0,0,0,0,0,0,2041161,0,0,0,0
12,192,478.899405323318,0,0,35069.7077546911,35070.7547930709,1,12,8,1,0,20,7,6301052,2111191,5272171,6402231,0,0,2110041,4191011,0,0,0,0,0,0,0,0,0,0,0,2111191,0,0,0,-1141041,0,0,0,4131130,0,0,0,0,2171010,0,0,0,0,1160061,0,3071160
12,193,472.16181857948,0,0,35084.1193299282,35085.1663752374,1,12,9,1,0,14,3,3100191,6181082,4130041,0,0,0,0,0,0,3100191,0,0,0,2141051,0,0,0,-4040031,0,0,0,0,0,0,0,4130041,0,0,0,0,0,0,0,0,0,0,0,0,0,0
12,194,1253.76615108689,1,0,35086.8016470545,35087.8487119966,1,12,9,0,1,5,3,1111150,1120181,0,7092152,0,0,0,0,-1111150,0,0,0,0,1120181,0,0,0,0,0,0,0,0,0,0,0,0,0,0,0,0,0,0,0,0,0,4061101,0,3031051,0,0
12,195,1303.06309687876,0,0,35090.1545623253,35091.2015899263,1,12,9,1,0,31,7,5272313,2031031,3181041,7442232,2101081,0,0,1081201,0,0,0,0,2090031,0,0,0,2031031,0,0,0,0,0,0,0,0,3181041,0,0,0,0,0,0,0,0,-2151031,0,0,1090151,0,4201050
12,196,1049.28412760637,0,0,35093.5662719139,35094.6133149132,1,12,9,0,0,33,7,4151071,4030140,11321373,4150170,0,0,0,0,0,0,4151071,0,0,4030140,0,0,0,0,0,0,0,0,4160021,0,4020141,1080170,0,0,0,2061041,0,1120040,0,0,0,0,-3030130,0,0,0
12,197,1199.58905518433,0,0,35096.7427087614,35097.7897948764,1,12,9,0,0,34,7,5121131,0,8290420,8150332,0,0,0,0,4060071,0,0,1061060,0,0,0,0,0,0,0,0,0,0,0,0,0,0,1190090,3030150,0,4070180,0,0,4080151,0,0,2030110,0,-2040071,0,0
12,198,638.409134444373,1,0,35100.0250187273,35101.0720574921,1,12,9,0,1,16,7,2150120,4452350,8192251,3070171,0,0,0,2150120,0,0,0,0,0,0,0,0,1171150,0,1100080,-2181120,0,0,0,0,0,1151091,0,3030080,4011080,0,0,0,0,3070171,0,0,0,0,0,0
12,199,670.126452991099,1,0,35102.8603231891,35103.907311909,1,12,9,1,1,19,7,1201131,8271212,3511351,2151081,1201131,0,0,0,0,0,0,0,0,0,0,0,1051071,0,0,4050071,0,3170070,-1200080,0,1171091,0,0,0,1140180,0,0,0,0,0,0,0,0,0,2151081,0
12,200,560.009139982867,1,0,35105.7072942778,35106.7543311178,1,12,9,0,1,28,7,4291230,8252321,0,2141251,0,0,0,0,2150190,0,2141040,0,0,1011060,0,0,2010130,2051070,0,3180061,0,0,0,0,0,0,0,0,0,0,0,-1041190,0,0,0,0,0,0,0,1100061
12,201,993.804708778043,1,0,35108.495498381,35109.5425606284,1,12,9,1,1,36,7,6131291,5151171,2060070,10273220,0,3071131,0,0,0,3060160,0,0,0,0,0,0,1091090,4060081,0,0,0,0,0,0,0,0,0,0,0,0,2060070,0,0,3071040,0,0,0,0,3031020,-4171160
12,202,528.773792560969,0,0,35111.6366335385,35112.6836730732,1,12,9,1,0,3,3,7210341,2180041,0,2041161,3040200,0,-4170141,0,0,0,0,0,0,0,2180041,0,0,0,0,0,0,0,0,0,0,0,0,0,0,0,0,0,0,0,0,2041161,0,0,0,0
12,203,669.169440036057,1,0,35114.4130674603,35115.4601104597,1,12,9,0,1,12,3,4060170,3191172,3110061,0,0,0,0,0,4060170,0,0,0,0,0,0,-2091041,0,0,1100131,0,0,0,0,0,0,0,0,0,3110061,0,0,0,0,0,0,0,0,0,0,0
12,204,465.12126755988,0,0,35117.1542135507,35118.2012515456,1,12,9,0,0,15,7,4050131,10484742,1161040,1030081,4050131,0,0,0,0,0,0,0,0,0,2051200,1150031,0,2061191,-1111190,0,0,4111130,0,0,0,0,0,1161040,0,0,0,0,0,0,0,1030081,0,0,0,0
12,205,1269.77205792355,0,0,35119.7424596917,35120.7894584205,1,12,9,0,0,35,7,11351381,8281151,4210250,1130120,0,4110120,0,0,4151141,0,0,0,3090120,0,0,4111010,0,0,0,0,4170141,0,0,0,1150150,0,3060100,0,0,0,0,0,0,0,0,0,0,0,-1130120,0
12,206,678.594054283167,0,0,35123.1776680672,35124.2247091417,1,12,9,0,0,7,3,10142421,0,4101030,0,4050120,0,0,3071140,0,0,-3021161,0,0,0,0,0,0,0,0,0,0,0,0,0,0,4101030,0,0,0,0,0,0,0,0,0,0,0,0,0,0
12,207,651.981703049387,0,0,35126.001158462,35127.0481968418,1,12,9,1,0,20,7,6301052,2111191,5272171,6402231,0,0,2110041,4191011,0,0,0,0,0,0,0,0,0,0,0,2111191,0,0,0,-1141041,0,0,0,4131130,0,0,0,0,2171010,0,0,0,0,1160061,0,3071160
12,208,436.78852578887,1,0,35128.7423057073,35129.7893567908,1,12,9,1,1,23,3,4050140,0,6081302,4010201,0,0,0,0,0,0,4050140,0,0,0,0,0,0,0,0,0,0,0,0,0,0,4040191,-2041111,0,0,0,0,0,0,0,0,0,0,0,4010201,0
12,209,869.46847771469,1,0,35131.3187377813,35132.3657788559,1,12,9,1,1,24,3,4040161,3070080,4021130,1061081,0,0,0,0,0,0,0,4040161,0,0,0,0,0,0,0,3070080,0,0,0,0,0,0,0,-4021130,0,0,0,0,0,0,0,0,1061081,0,0,0
12,210,689.465736795682,0,0,35134.4128172357,35135.4598579253,1,12,9,0,0,4,3,7390342,4101070,0,0,0,0,2160061,-4030191,0,1200090,0,0,0,0,0,0,0,0,0,0,0,4101070,0,0,0,0,0,0,0,0,0,0,0,0,0,0,0,0,0,0
12,211,689.926920022117,0,1,35137.1892900386,35138.2362914622,1,12,9,1,1,13,7,8242210,7211170,1090130,12370382,0,4111140,0,0,4131070,0,0,0,0,0,0,0,-4170030,0,0,0,0,3041140,0,0,0,0,0,1090130,0,0,0,0,0,4090051,0,0,4100140,0,4180191,0
12,212,522.913916815014,0,1,35139.9421516459,35140.9892431503,1,12,9,0,1,29,3,4181171,0,3121192,3030100,0,0,0,4181171,0,0,0,0,0,0,0,0,0,0,0,0,0,0,0,0,2031031,0,0,0,1090161,0,0,0,-3030100,0,0,0,0,0,0,0
12,213,679.337413901521,0,0,35142.6597808561,35143.7068138465,1,12,9,1,0,26,3,1081131,0,4180160,6231100,0,0,0,0,0,0,1081131,0,0,0,0,0,0,0,0,0,0,0,0,0,0,0,0,0,0,-4180160,0,0,0,0,0,0,0,4120090,2111010,0
12,214,611.666281431098,0,0,35145.4832731758,35146.5303061661,1,12,9,1,0,8,3,4100130,4060111,0,3171240,0,0,0,0,0,0,0,-4100130,0,0,0,0,4060111,0,0,0,0,0,0,0,0,0,0,0,0,0,0,0,0,1131080,0,0,0,0,2040160,0
12,215,1875.9254279139,1,0,35148.3420591013,35149.3891548403,1,12,9,1,1,1,7,1061191,7381322,5301471,8272100,-1061191,0,0,0,0,0,0,0,0,0,0,4180131,0,3201191,0,0,0,0,1121201,2150130,0,2030140,0,0,0,0,0,0,0,0,4191020,0,4081080,0,0,0
12,216,615.907011379022,1,0,35152.3420113661,35153.3891101848,1,12,9,0,1,2,3,5211221,2100051,4030090,0,2071031,-3140190,0,0,0,0,0,0,0,0,2100051,0,0,0,0,0,0,0,0,0,0,0,0,4030090,0,0,0,0,0,0,0,0,0,0,0,0
12,217,615.405792210368,0,0,35173.9182059192,35174.9652527682,1,12,10,1,0,3,3,7210341,2180041,0,2041161,3040200,0,-4170141,0,0,0,0,0,0,0,2180041,0,0,0,0,0,0,0,0,0,0,0,0,0,0,0,0,0,0,0,0,2041161,0,0,0,0
12,218,1002.04210342054,0,0,35176.6005280499,35177.6475668147,1,12,10,0,0,34,3,1151040,2051140,4050031,1010011,1151040,0,0,0,0,0,0,0,0,2051140,0,0,0,0,0,0,0,0,0,0,4050031,0,0,0,0,0,0,0,0,0,0,0,0,-1010011,0,0
12,219,445.73925309669,1,0,35179.8357892421,35180.8828530294,1,12,10,0,1,15,3,3041051,3192272,0,2160171,0,0,0,0,0,3041051,0,0,0,0,0,2011151,0,0,-1181121,0,0,0,0,0,0,0,0,0,0,0,0,0,0,0,0,0,2160171,0,0,0
12,220,711.186774060479,0,0,35182.3533981264,35183.4004415107,1,12,10,1,0,20,7,6301052,2111191,5272171,6402231,0,0,2110041,4191011,0,0,0,0,0,0,0,0,0,0,0,2111191,0,0,0,-1141041,0,0,0,4131130,0,0,0,0,2171010,0,0,0,0,1160061,0,3071160
12,221,571.211118993233,0,0,35185.2592459144,35186.3062823694,1,12,10,1,0,8,3,4100130,4060111,0,3171240,0,0,0,0,0,0,0,-4100130,0,0,0,0,4060111,0,0,0,0,0,0,0,0,0,0,0,0,0,0,0,0,1131080,0,0,0,0,2040160,0
12,222,447.329911781708,1,0,35187.9650922395,35189.0121344689,1,12,10,1,1,26,3,1081131,0,4180160,6231100,0,0,0,0,0,0,1081131,0,0,0,0,0,0,0,0,0,0,0,0,0,0,0,0,0,0,-4180160,0,0,0,0,0,0,0,4120090,2111010,0
12,223,1433.82471134828,1,0,35190.4827080531,35191.5297491276,1,12,10,0,1,35,7,6171152,6140242,4170141,8501252,0,0,0,0,3040051,0,0,0,3131101,0,0,0,2080201,0,4060041,0,0,0,0,0,0,0,0,0,0,0,4170141,0,0,0,4141031,0,3160121,0,-1200100,0
12,224,563.61737906991,0,0,35194.0238411318,35195.0708833612,1,12,10,1,0,23,3,4050140,0,6081302,4010201,0,0,0,0,0,0,4050140,0,0,0,0,0,0,0,0,0,0,0,0,0,0,4040191,-2041111,0,0,0,0,0,0,0,0,0,0,0,4010201,0
12,225,613.172633675276,0,0,35196.6944046299,35197.7414380053,1,12,10,0,0,28,7,1070180,5241422,4100170,8261320,0,1070180,0,0,0,0,0,0,0,0,0,1050121,0,0,0,2060130,2131171,0,0,4100170,0,0,0,0,0,0,0,-1060090,0,0,3130180,0,4071050,0,0,0
12,226,1025.13283179724,0,0,35199.5531843961,35200.6002289353,1,12,10,1,0,36,7,6131291,5151171,2060070,10273220,0,3071131,0,0,0,3060160,0,0,0,0,0,0,1091090,4060081,0,0,0,0,0,0,0,0,0,0,0,0,2060070,0,0,3071040,0,0,0,0,3031020,-4171160
12,227,706.483705995197,1,0,35202.6590294123,35203.7060712568,1,12,10,1,1,13,7,8242210,7211170,1090130,12370382,0,4111140,0,0,4131070,0,0,0,0,0,0,0,-4170030,0,0,0,0,3041140,0,0,0,0,0,1090130,0,0,0,0,0,4090051,0,0,4100140,0,4180191,0
12,228,841.765147109982,1,0,35205.5296090018,35206.5766223592,1,12,10,1,1,24,3,4040161,3070080,4021130,1061081,0,0,0,0,0,0,0,4040161,0,0,0,0,0,0,0,3070080,0,0,0,0,0,0,0,-4021130,0,0,0,0,0,0,0,0,1061081,0,0,0
12,229,1692.98620477639,0,0,35208.4943315643,35209.541292567,1,12,10,0,0,12,7,9262212,2290231,2110150,4142170,1140071,0,4111091,0,0,0,0,0,4011050,0,0,-1100070,0,0,0,0,1190161,0,0,0,2110150,0,0,0,0,0,0,0,0,3101120,0,0,0,0,0,1041050
12,230,570.264884947392,0,0,35212.3059717059,35213.3530150902,1,12,10,0,0,4,3,3150010,2010061,0,4190292,0,0,0,-3150010,0,0,0,0,0,0,2010061,0,0,0,0,0,0,0,0,0,0,0,0,0,0,0,0,0,0,0,0,0,2090141,2100151,0,0
12,231,796.197318137274,1,0,35214.9529929165,35216.0000397655,1,12,10,0,1,7,3,2161082,2020021,0,1100141,0,0,0,1091021,0,0,-1070061,0,0,0,0,0,0,0,0,0,2020021,0,0,0,0,0,0,0,0,0,0,0,0,1100141,0,0,0,0,0,0
12,232,1544.22150601022,0,0,35217.9059056466,35218.9529444114,1,12,10,1,0,31,7,5272313,2031031,3181041,7442232,2101081,0,0,1081201,0,0,0,0,2090031,0,0,0,2031031,0,0,0,0,0,0,0,0,3181041,0,0,0,0,0,0,0,0,-2151031,0,0,1090151,0,4201050
12,233,699.531696001941,1,0,35221.5646812552,35222.6117254094,1,12,10,1,1,19,7,1201131,8271212,3511351,2151081,1201131,0,0,0,0,0,0,0,0,0,0,0,1051071,0,0,4050071,0,3170070,-1200080,0,1171091,0,0,0,1140180,0,0,0,0,0,0,0,0,0,2151081,0
12,234,1080.07523008564,1,0,35224.3411178717,35225.3881550967,1,12,10,0,1,2,7,6122290,1150191,2180131,9260212,0,-1021150,0,0,0,0,1081050,4020090,0,0,0,0,0,0,0,0,0,1150191,0,0,0,0,0,0,0,0,2180131,0,0,1040060,0,4040111,0,4180041,0,0
12,235,654.562866293418,0,0,35227.5175500997,35228.5645888645,1,12,10,0,0,5,3,4091251,4180170,0,1121150,0,0,0,0,-3051121,1040130,0,0,0,4180170,0,0,0,0,0,0,0,0,0,0,0,0,0,0,0,0,0,0,0,1121150,0,0,0,0,0,0
12,236,498.097793410125,1,0,35230.2939863313,35231.3410277909,1,12,10,1,1,14,3,3100191,6181082,4130041,0,0,0,0,0,0,3100191,0,0,0,2141051,0,0,0,-4040031,0,0,0,0,0,0,0,4130041,0,0,0,0,0,0,0,0,0,0,0,0,0,0
12,237,2041.23651871487,1,0,35232.9998407406,35234.0468802754,1,12,10,1,1,1,7,1061191,7381322,5301471,8272100,-1061191,0,0,0,0,0,0,0,0,0,0,4180131,0,3201191,0,0,0,0,1121201,2150130,0,2030140,0,0,0,0,0,0,0,0,4191020,0,4081080,0,0,0
12,238,734.177797545271,1,0,35237.2468420872,35238.2938866264,1,12,10,0,1,33,3,5190211,2200160,0,2030131,0,1140091,0,4050120,0,0,0,0,0,0,0,0,0,0,0,0,0,2200160,0,0,0,0,0,0,0,0,0,0,0,0,0,0,-2030131,0,0,0
12,239,958.044915176288,1,0,35240.2350464984,35241.2820791038,1,12,10,0,1,16,7,1191170,9321151,2301161,5211240,1191170,0,0,0,0,0,0,0,0,0,4150101,0,4011010,0,0,-1160040,0,0,0,0,0,0,0,0,0,1141091,1160070,0,0,0,0,1040120,4171120,0,0,0
12,240,1282.59472257923,1,0,35243.2703054578,35244.3173430677,1,12,10,0,1,29,7,6271342,4161240,4221330,7240381,0,0,4091191,0,0,0,0,0,2180151,0,3060080,1101160,0,0,0,0,0,0,0,0,0,0,3150170,0,0,0,1071160,3070201,-4170180,0,0,0,0,0,0,0
12,241,573.490857801517,0,0,35254.3054516236,35255.3525061718,1,12,11,1,0,26,3,1081131,0,4180160,6231100,0,0,0,0,0,0,1081131,0,0,0,0,0,0,0,0,0,0,0,0,0,0,0,0,0,0,-4180160,0,0,0,0,0,0,0,4120090,2111010,0
12,242,966.925194632495,1,0,35257.0348386965,35258.0818786162,1,12,11,1,1,31,7,5272313,2031031,3181041,7442232,2101081,0,0,1081201,0,0,0,0,2090031,0,0,0,2031031,0,0,0,0,0,0,0,0,3181041,0,0,0,0,0,0,0,0,-2151031,0,0,1090151,0,4201050
12,243,897.166418864799,1,0,35260.1406848676,35261.1877255572,1,12,11,1,1,36,7,6131291,5151171,2060070,10273220,0,3071131,0,0,0,3060160,0,0,0,0,0,0,1091090,4060081,0,0,0,0,0,0,0,0,0,0,0,0,2060070,0,0,3071040,0,0,0,0,3031020,-4171160
12,244,525.229841950932,1,0,35263.2935944411,35264.3406282014,1,12,11,1,1,3,3,7210341,2180041,0,2041161,3040200,0,-4170141,0,0,0,0,0,0,0,2180041,0,0,0,0,0,0,0,0,0,0,0,0,0,0,0,0,0,0,0,0,2041161,0,0,0,0
12,245,588.8477204644,1,0,35265.9288493199,35266.9758896245,1,12,11,0,1,7,3,3140110,3250160,2190100,0,0,0,0,0,0,0,-3140110,0,0,0,2150110,0,0,1100050,0,0,0,0,0,0,0,2190100,0,0,0,0,0,0,0,0,0,0,0,0,0,0
12,246,1187.56672436575,0,0,35268.7641098961,35269.8111505857,1,12,11,0,0,12,7,4141041,7100161,7432111,1150090,0,1101010,0,3040031,0,0,0,0,0,0,3020090,-4080071,0,0,0,0,0,0,0,1131030,4170021,0,0,0,0,2131060,0,0,1150090,0,0,0,0,0,0,0
12,247,618.492794157646,1,0,35272.1993633121,35273.2464024618,1,12,11,0,1,28,7,0,7431300,7220151,6382350,0,0,0,0,0,0,0,0,0,1160030,3070130,3201140,0,0,0,0,0,0,0,0,0,0,0,3090111,0,0,4130040,-2180150,0,0,0,0,2111150,0,0,2091050
12,248,493.349299955298,1,0,35274.8934486949,35275.9404913093,1,12,11,1,1,20,7,6301052,2111191,5272171,6402231,0,0,2110041,4191011,0,0,0,0,0,0,0,0,0,0,0,2111191,0,0,0,-1141041,0,0,0,4131130,0,0,0,0,2171010,0,0,0,0,1160061,0,3071160
12,249,829.37633345864,1,0,35277.5051851537,35278.5522216087,1,12,11,0,1,33,3,4161121,0,2191150,1140011,0,0,0,0,0,4161121,0,0,0,0,0,0,0,0,0,0,0,0,0,0,1051070,1140080,0,0,0,0,0,0,0,0,0,0,-1140011,0,0,0
12,250,1431.90837568545,0,0,35280.4110310168,35281.4580693967,1,12,11,0,0,5,3,1110120,5091222,0,3110021,0,0,0,0,-1110120,0,0,0,0,0,0,0,0,3051191,0,2040031,0,0,0,0,0,0,0,0,0,0,0,0,0,0,0,3110021,0,0,0,0
12,251,695.216283624177,0,0,35283.9403969938,35284.987441918,1,12,11,0,0,16,3,3091070,3072101,2110160,0,0,0,0,0,0,0,0,0,3091070,0,0,0,0,0,0,-1051021,2021080,0,0,2110160,0,0,0,0,0,0,0,0,0,0,0,0,0,0,0,0
12,252,592.541805846849,1,0,35286.7639401283,35287.8109369324,1,12,11,1,1,14,3,3100191,6181082,4130041,0,0,0,0,0,0,3100191,0,0,0,2141051,0,0,0,-4040031,0,0,0,0,0,0,0,4130041,0,0,0,0,0,0,0,0,0,0,0,0,0,0
12,253,609.733007491741,0,0,35289.4697845286,35290.5167855673,1,12,11,1,0,19,7,1201131,8271212,3511351,2151081,1201131,0,0,0,0,0,0,0,0,0,0,0,1051071,0,0,4050071,0,3170070,-1200080,0,1171091,0,0,0,1140180,0,0,0,0,0,0,0,0,0,2151081,0
12,254,1082.89083455747,0,0,35292.3285308032,35293.3755699529,1,12,11,1,0,24,3,4040161,3070080,4021130,1061081,0,0,0,0,0,0,0,4040161,0,0,0,0,0,0,0,3070080,0,0,0,0,0,0,0,-4021130,0,0,0,0,0,0,0,0,1061081,0,0,0
12,255,474.080079053238,0,0,35295.540257407,35296.5873000214,1,12,11,0,0,15,3,0,6271152,2040020,3060201,0,0,0,0,0,0,0,0,0,4090121,0,0,0,0,-2181031,0,0,0,0,0,0,0,0,2040020,0,0,0,0,3060201,0,0,0,0,0,0,0
12,256,804.488222362124,1,0,35298.2578735285,35299.304915373,1,12,11,0,1,29,3,4070100,4160161,3051071,4010030,0,0,0,4070100,0,0,0,0,0,0,0,0,4160161,0,0,0,0,0,0,0,0,0,0,0,0,3051071,0,0,-4010030,0,0,0,0,0,0,0
12,257,717.149049422005,0,0,35301.1401871131,35302.1872316523,1,12,11,1,0,13,7,8242210,7211170,1090130,12370382,0,4111140,0,0,4131070,0,0,0,0,0,0,0,-4170030,0,0,0,0,3041140,0,0,0,0,0,1090130,0,0,0,0,0,4090051,0,0,4100140,0,4180191,0
12,258,1466.76428094361,1,0,35304.0107401403,35305.0577827547,1,12,11,1,1,1,7,1061191,7381322,5301471,8272100,-1061191,0,0,0,0,0,0,0,0,0,0,4180131,0,3201191,0,0,0,0,1121201,2150130,0,2030140,0,0,0,0,0,0,0,0,4191020,0,4081080,0,0,0
12,259,490.579890807567,1,0,35307.563656874,35308.6107148869,1,12,11,1,1,8,3,4100130,4060111,0,3171240,0,0,0,0,0,0,0,-4100130,0,0,0,0,4060111,0,0,0,0,0,0,0,0,0,0,0,0,0,0,0,0,1131080,0,0,0,0,2040160,0
12,260,723.391576371796,0,0,35310.1518495054,35311.1988840357,1,12,11,1,0,23,3,4050140,0,6081302,4010201,0,0,0,0,0,0,4050140,0,0,0,0,0,0,0,0,0,0,0,0,0,0,4040191,-2041111,0,0,0,0,0,0,0,0,0,0,0,4010201,0
12,261,1238.42199213686,1,0,35312.9988748736,35314.0459163331,1,12,11,0,1,4,7,8441354,2191070,5322032,1080020,0,0,0,-1111031,2110051,2150181,0,3070091,0,2191070,0,0,0,0,0,0,0,0,0,2141021,0,0,0,0,0,3181011,0,0,0,0,0,0,1080020,0,0,0
12,262,1303.7725799295,0,0,35316.3635364583,35317.4106260379,1,12,11,0,0,2,7,7161221,5140152,8171270,6361242,0,-3061151,0,0,0,0,0,0,4100070,0,0,0,0,0,0,2110061,3030091,0,0,0,0,0,0,0,0,4010190,4161080,0,0,0,0,0,0,4201161,0,2160081
12,263,1225.2251454338,0,0,35319.7399666845,35320.7870050643,1,12,11,0,0,35,7,3020141,0,1080131,14605762,0,0,0,0,0,0,0,3020141,0,0,0,0,0,0,0,0,0,0,1080131,0,0,0,0,0,0,0,0,1061100,0,0,1061121,4120180,0,1051070,-3141111,4171180
12,264,1276.86034409999,0,0,35323.0693396678,35324.1163822822,1,12,11,0,0,34,7,8300331,0,9281552,2091171,0,0,2080071,0,2150090,0,0,4070170,0,0,0,0,0,0,0,0,0,0,0,0,2040190,0,3090121,2011161,0,0,2140080,0,0,0,0,0,0,-2091171,0,0
12,265,790.885626796808,1,0,35337.8691557334,35338.9162010425,1,12,12,0,1,33,3,2141171,0,4010120,5142291,0,0,0,0,0,0,0,0,2141171,0,0,0,0,0,0,0,0,0,0,0,0,0,0,4010120,0,0,0,4101181,0,0,0,0,-1041110,0,0,0
12,266,1000.79213517893,0,0,35340.8691218568,35341.9161613916,1,12,12,0,0,12,7,3110020,8571353,5042331,3141080,3110020,0,0,0,0,0,0,0,0,0,3180061,-1160041,0,2131130,0,0,2100121,0,0,0,0,0,2031170,0,0,0,3011161,0,0,3141080,0,0,0,0,0,0
12,267,1434.36442661914,0,0,35344.0455579345,35345.0926013188,1,12,12,1,0,24,3,4040161,3070080,4021130,1061081,0,0,0,0,0,0,0,4040161,0,0,0,0,0,0,0,3070080,0,0,0,0,0,0,0,-4021130,0,0,0,0,0,0,0,0,1061081,0,0,0
12,268,643.736994141364,0,0,35347.7160987199,35348.7631405644,1,12,12,1,0,14,3,3100191,6181082,4130041,0,0,0,0,0,0,3100191,0,0,0,2141051,0,0,0,-4040031,0,0,0,0,0,0,0,4130041,0,0,0,0,0,0,0,0,0,0,0,0,0,0
12,269,425.148846166849,1,0,35350.4337206159,35351.4807593807,1,12,12,0,1,15,3,0,5311162,2031161,3080060,0,0,0,0,0,0,0,0,0,3180021,0,0,0,0,-2131141,0,0,0,0,0,0,2031161,0,0,0,0,0,0,0,0,3080060,0,0,0,0,0
12,270,543.426946584077,0,0,35352.9395697127,35353.9866123271,1,12,12,0,0,28,3,1050041,1061111,2010130,2191090,0,1050041,0,0,0,0,0,0,0,0,0,1061111,0,0,0,0,0,0,0,0,0,0,0,0,0,0,2010130,-2191090,0,0,0,0,0,0,0,0
12,271,726.129803690128,0,0,35355.6336581752,35356.680697325,1,12,12,0,0,4,3,3232081,2201200,3150011,0,0,0,0,-1141011,0,0,0,2091070,0,0,0,0,0,0,0,0,2201200,0,0,0,3150011,0,0,0,0,0,0,0,0,0,0,0,0,0,0,0
12,272,827.963141768123,1,0,35358.5747957195,35359.6218337143,1,12,12,0,1,7,7,2181110,13582221,1120161,3320161,0,0,0,0,0,0,-2181110,0,0,4161050,4150061,2100080,0,3171030,0,0,0,0,0,0,1120161,0,0,0,0,0,0,0,0,2190050,0,0,0,0,0,1130111
12,273,557.824101568258,0,0,35361.4688775606,35362.5159155555,1,12,12,1,0,13,7,8242210,7211170,1090130,12370382,0,4111140,0,0,4131070,0,0,0,0,0,0,0,-4170030,0,0,0,0,3041140,0,0,0,0,0,1090130,0,0,0,0,0,4090051,0,0,4100140,0,4180191,0
12,274,885.610660734528,1,0,35364.151203156,35365.1982407659,1,12,12,0,1,2,3,10322230,3060160,0,0,0,-3040030,4081040,0,3201160,0,0,0,0,0,0,0,0,0,3060160,0,0,0,0,0,0,0,0,0,0,0,0,0,0,0,0,0,0,0,0,0
12,275,795.745758936391,0,0,35367.1041389838,35368.1511477216,1,12,12,1,0,1,7,1061191,7381322,5301471,8272100,-1061191,0,0,0,0,0,0,0,0,0,0,4180131,0,3201191,0,0,0,0,1121201,2150130,0,2030140,0,0,0,0,0,0,0,0,4191020,0,4081080,0,0,0
12,276,1050.33199134778,1,0,35370.1393675312,35371.1864051411,1,12,12,0,1,35,7,1180131,7252161,4242201,9142240,0,0,0,1180131,0,0,0,0,0,4161140,0,3091021,0,0,0,0,0,0,0,0,1201161,3041040,0,0,0,0,0,0,0,0,0,0,0,4081090,-1041050,4020100
12,277,1539.87876141036,0,0,35373.2687375118,35374.3157805112,1,12,12,1,0,31,7,5272313,2031031,3181041,7442232,2101081,0,0,1081201,0,0,0,0,2090031,0,0,0,2031031,0,0,0,0,0,0,0,0,3181041,0,0,0,0,0,0,0,0,-2151031,0,0,1090151,0,4201050
12,278,1023.26885081129,0,0,35376.9392940807,35377.9863239914,1,12,12,0,0,5,3,3061191,0,8212313,0,0,0,0,0,-3061191,0,0,0,0,0,0,0,0,0,0,0,0,0,0,0,0,4011171,0,0,1060051,3141091,0,0,0,0,0,0,0,0,0,0
12,279,638.031487738772,1,0,35380.174543339,35381.2215847986,1,12,12,1,1,23,3,4050140,0,6081302,4010201,0,0,0,0,0,0,4050140,0,0,0,0,0,0,0,0,0,0,0,0,0,0,4040191,-2041111,0,0,0,0,0,0,0,0,0,0,0,4010201,0
12,280,1135.71132802463,1,0,35383.0098016055,35384.0568476846,1,12,12,1,1,36,7,6131291,5151171,2060070,10273220,0,3071131,0,0,0,3060160,0,0,0,0,0,0,1091090,4060081,0,0,0,0,0,0,0,0,0,0,0,0,2060070,0,0,3071040,0,0,0,0,3031020,-4171160
12,281,911.132802539214,1,0,35386.3274051773,35387.3744508714,1,12,12,0,1,29,7,3161180,5240250,8421363,6141190,0,0,0,0,0,3161180,0,0,0,0,0,0,0,1090120,0,0,0,4150130,0,0,0,0,2190191,0,3140161,0,3091011,0,-2070110,0,0,0,4071080,0,0,0
12,282,627.487791978638,1,0,35389.3979600524,35390.4450061314,1,12,12,1,1,20,7,6301052,2111191,5272171,6402231,0,0,2110041,4191011,0,0,0,0,0,0,0,0,0,0,0,2111191,0,0,0,-1141041,0,0,0,4131130,0,0,0,0,2171010,0,0,0,0,1160061,0,3071160
12,283,550.70193883148,1,0,35392.2096933545,35393.2567540621,1,12,12,1,1,26,3,1081131,0,4180160,6231100,0,0,0,0,0,0,1081131,0,0,0,0,0,0,0,0,0,0,0,0,0,0,0,0,0,0,-4180160,0,0,0,0,0,0,0,4120090,2111010,0
12,284,723.389266611775,0,0,35394.8920127905,35395.9390507853,1,12,12,1,0,3,3,7210341,2180041,0,2041161,3040200,0,-4170141,0,0,0,0,0,0,0,2180041,0,0,0,0,0,0,0,0,0,0,0,0,0,0,0,0,0,0,0,0,2041161,0,0,0,0
12,285,605.337523236813,1,0,35397.7390404684,35398.7860780783,1,12,12,1,1,19,7,1201131,8271212,3511351,2151081,1201131,0,0,0,0,0,0,0,0,0,0,0,1051071,0,0,4050071,0,3170070,-1200080,0,1171091,0,0,0,1140180,0,0,0,0,0,0,0,0,0,2151081,0
12,286,930.795453547034,1,0,35400.5625370226,35401.609569628,1,12,12,0,1,34,7,6172102,4071100,3090151,11401603,0,0,2081081,0,0,4091021,0,0,0,0,0,0,0,4071100,0,0,0,0,3090151,0,0,0,0,0,0,0,0,0,2120161,0,0,0,4040161,-3080151,0,2161130
12,287,485.717448900687,0,0,35403.7036818041,35404.7507509808,1,12,12,0,0,16,7,1150051,9363542,5171321,2030030,0,0,0,0,0,0,1150051,0,0,0,3151111,1121200,0,4030081,0,-1061150,0,0,1120160,4051161,0,0,0,0,0,0,0,0,0,0,0,0,0,0,2030030,0
12,288,607.400913984748,0,0,35406.2918779001,35407.3389212845,1,12,12,1,0,8,3,4100130,4060111,0,3171240,0,0,0,0,0,0,0,-4100130,0,0,0,0,4060111,0,0,0,0,0,0,0,0,0,0,0,0,0,0,0,0,1131080,0,0,0,0,2040160,0
12,289,790.296251572727,0,0,35412.6800371169,35413.7270754968,1,12,13,0,0,4,3,8343362,4021160,0,0,0,0,0,-3101200,2131131,0,0,0,3111031,0,0,4021160,0,0,0,0,0,0,0,0,0,0,0,0,0,0,0,0,0,0,0,0,0,0,0,0
12,290,503.582717188692,1,0,35415.7035312844,35416.7506366474,1,12,13,1,1,3,3,7210341,2180041,0,2041161,3040200,0,-4170141,0,0,0,0,0,0,0,2180041,0,0,0,0,0,0,0,0,0,0,0,0,0,0,0,0,0,0,0,0,2041161,0,0,0,0
12,291,703.470616557752,0,0,35418.2917335398,35419.338777694,1,12,13,0,0,29,7,1091051,2131171,10411401,4240361,0,0,0,0,0,1091051,0,0,0,0,2131171,0,0,0,0,0,0,0,1180020,0,2071180,0,0,3090080,0,4070121,0,0,-2180191,0,0,0,0,0,2060170,0
12,292,1365.75013979018,1,0,35421.1975859473,35422.244625867,1,12,13,0,1,34,7,3090041,3120070,10561271,8312280,0,0,0,0,0,0,3090041,0,0,0,0,0,0,3120070,0,0,0,0,0,0,3160031,0,0,4200200,0,3201040,0,2051070,0,0,0,0,2200010,-4061200,0,0
12,293,586.0790812294,0,0,35424.7622493798,35425.8092819852,1,12,13,0,0,28,7,4111100,3090030,10223361,8321332,0,0,4111100,0,0,0,0,0,0,0,0,0,0,0,0,3090030,0,0,0,0,3061170,0,0,3071020,0,0,4091171,-2120070,0,3180081,0,0,0,0,0,3021181
12,294,868.923757952871,1,0,35427.4563351475,35428.5034147182,1,12,13,0,1,12,3,6060221,1201151,0,3121130,0,0,0,0,0,3010051,0,0,3050170,0,0,-1201151,0,0,0,0,0,0,0,0,0,0,0,0,0,0,0,0,0,0,0,3121130,0,0,0,0
12,295,807.378894220165,1,0,35430.5268807835,35431.573923013,1,12,13,0,1,33,3,0,6282292,0,8201310,0,0,0,0,0,0,0,0,0,0,0,0,0,0,4101161,0,2181131,0,0,0,0,0,0,0,0,0,0,0,0,0,0,4040130,-4161180,0,0,0
12,296,860.828413897252,1,0,35433.4562596952,35434.5033011547,1,12,13,1,1,19,7,1201131,8271212,3511351,2151081,1201131,0,0,0,0,0,0,0,0,0,0,0,1051071,0,0,4050071,0,3170070,-1200080,0,1171091,0,0,0,1140180,0,0,0,0,0,0,0,0,0,2151081,0
12,297,445.681893914298,1,0,35436.4915178847,35437.5385628088,1,12,13,0,1,16,7,4130101,11201422,5340142,5262200,4130101,0,0,0,0,0,0,0,0,0,0,0,4141141,0,0,-4020121,3040160,0,0,0,3150021,0,0,0,2190121,0,0,0,0,0,0,1151020,0,0,4111180,0
12,298,433.240725571522,0,0,35439.0209038796,35440.0679403347,1,12,13,1,0,20,7,6301052,2111191,5272171,6402231,0,0,2110041,4191011,0,0,0,0,0,0,0,0,0,0,0,2111191,0,0,0,-1141041,0,0,0,4131130,0,0,0,0,2171010,0,0,0,0,1160061,0,3071160
12,299,528.174793304061,1,0,35441.5267560562,35442.5737925112,1,12,13,1,1,13,7,8242210,7211170,1090130,12370382,0,4111140,0,0,4131070,0,0,0,0,0,0,0,-4170030,0,0,0,0,3041140,0,0,0,0,0,1090130,0,0,0,0,0,4090051,0,0,4100140,0,4180191,0
12,300,1358.19528092543,0,0,35444.2678990668,35445.3149416813,1,12,13,0,0,35,3,3120141,0,1030090,4250241,0,3120141,0,0,0,0,0,0,0,0,0,0,0,0,0,0,0,0,0,0,0,0,0,0,1030090,0,0,1200191,0,0,0,0,0,0,-3050050,0
12,301,412.575251255475,0,0,35447.6913876909,35448.7384276105,1,12,13,0,0,15,3,3170110,1120140,0,5291072,0,0,0,0,0,0,3170110,0,0,0,0,0,0,0,-1120140,0,0,0,0,0,0,0,0,0,0,0,0,0,0,0,0,0,2120031,0,3171041,0
12,302,868.431777846126,1,0,35450.1854746905,35451.2325211545,1,12,13,0,1,7,7,6242341,11351342,6192162,0,0,0,0,0,0,1191050,-2011190,0,3040101,4160060,0,0,4101141,0,0,0,3090141,0,0,0,2131121,0,0,0,4061041,0,0,0,0,0,0,0,0,0,0,0
12,303,807.997526484542,0,0,35453.1619073805,35454.2089526896,1,12,13,1,0,24,3,4040161,3070080,4021130,1061081,0,0,0,0,0,0,0,4040161,0,0,0,0,0,0,0,3070080,0,0,0,0,0,0,0,-4021130,0,0,0,0,0,0,0,0,1061081,0,0,0
12,304,1188.61266329623,0,0,35456.1971759639,35457.2442143437,1,12,13,1,0,31,7,5272313,2031031,3181041,7442232,2101081,0,0,1081201,0,0,0,0,2090031,0,0,0,2031031,0,0,0,0,0,0,0,0,3181041,0,0,0,0,0,0,0,0,-2151031,0,0,1090151,0,4201050
12,305,987.148348795017,1,0,35459.561842938,35460.6088751585,1,12,13,1,1,36,7,6131291,5151171,2060070,10273220,0,3071131,0,0,0,3060160,0,0,0,0,0,0,1091090,4060081,0,0,0,0,0,0,0,0,0,0,0,0,2060070,0,0,3071040,0,0,0,0,3031020,-4171160
12,306,627.031228272244,1,0,35462.7147394228,35463.7617778026,1,12,13,0,1,2,3,6310271,0,1140120,4140011,0,-3120140,0,0,3190131,0,0,0,0,0,0,0,0,0,0,0,0,0,0,0,0,0,0,1140120,0,0,0,0,0,0,0,0,0,0,0,4140011
12,307,845.791838764853,0,0,35465.5970610915,35466.6441468216,1,12,13,1,0,1,7,1061191,7381322,5301471,8272100,-1061191,0,0,0,0,0,0,0,0,0,0,4180131,0,3201191,0,0,0,0,1121201,2150130,0,2030140,0,0,0,0,0,0,0,0,4191020,0,4081080,0,0,0
12,308,686.553122155601,1,0,35468.5382024854,35469.585243175,1,12,13,1,1,23,3,4050140,0,6081302,4010201,0,0,0,0,0,0,4050140,0,0,0,0,0,0,0,0,0,0,0,0,0,0,4040191,-2041111,0,0,0,0,0,0,0,0,0,0,0,4010201,0
12,309,1219.53811715503,0,0,35471.432290101,35472.4793257861,1,12,13,0,0,5,7,8222391,2152171,3320301,2100051,0,0,1011160,3120120,-4091111,0,0,0,0,0,1141130,0,0,0,0,0,0,1011041,0,0,0,0,0,2200171,0,0,1120130,0,0,0,0,0,2100051,0,0,0
12,310,531.900060523185,0,0,35474.8087157076,35475.855749083,1,12,13,1,0,8,3,4100130,4060111,0,3171240,0,0,0,0,0,0,0,-4100130,0,0,0,0,4060111,0,0,0,0,0,0,0,0,0,0,0,0,0,0,0,0,1131080,0,0,0,0,2040160,0
12,311,505.561801488511,1,0,35477.4910466924,35478.5380789129,1,12,13,1,1,26,3,1081131,0,4180160,6231100,0,0,0,0,0,0,1081131,0,0,0,0,0,0,0,0,0,0,0,0,0,0,0,0,0,0,-4180160,0,0,0,0,0,0,0,4120090,2111010,0
12,312,529.80048344034,0,0,35480.2439525703,35481.2910132778,1,12,13,1,0,14,3,3100191,6181082,4130041,0,0,0,0,0,0,3100191,0,0,0,2141051,0,0,0,-4040031,0,0,0,0,0,0,0,4130041,0,0,0,0,0,0,0,0,0,0,0,0,0,0
12,313,1183.07807956444,1,0,35491.1614619806,35492.2085019003,1,12,14,0,1,12,7,5181202,10444452,5111282,0,1140191,0,0,0,0,0,4041011,0,0,3161071,0,-3121100,0,0,2021121,0,2141160,0,2030201,0,0,3081081,0,0,0,0,0,0,0,0,0,0,0,0,0,0
12,314,886.822132881207,0,0,35494.5025989859,35495.5496365958,1,12,14,0,0,16,7,5161090,11400260,3031341,4011180,0,3071060,0,0,0,0,0,2090030,0,3180180,0,4040020,0,0,0,-4180060,0,0,2011191,0,0,0,1020150,0,0,0,0,0,0,0,0,0,0,0,0,4011180
12,315,851.358374260599,0,0,35497.4790359105,35498.5260758301,1,12,14,0,0,28,3,2090021,3060140,1061151,4041171,0,0,0,0,0,0,0,0,2090021,0,0,0,0,0,3060140,0,0,0,0,0,0,0,1061151,0,0,0,0,-4041171,0,0,0,0,0,0,0,0
12,316,926.892719326133,0,0,35500.3966469505,35501.4436853304,1,12,14,1,0,13,7,8242210,7211170,1090130,12370382,0,4111140,0,0,4131070,0,0,0,0,0,0,0,-4170030,0,0,0,0,3041140,0,0,0,0,0,1090130,0,0,0,0,0,4090051,0,0,4100140,0,4180191,0
12,317,1279.57008431258,1,0,35503.4907387237,35504.5377809531,1,12,14,1,1,1,7,1061191,7381322,5301471,8272100,-1061191,0,0,0,0,0,0,0,0,0,0,4180131,0,3201191,0,0,0,0,1121201,2150130,0,2030140,0,0,0,0,0,0,0,0,4191020,0,4081080,0,0,0
12,318,494.067252155219,1,0,35506.9142177237,35507.9612595682,1,12,14,1,1,26,3,1081131,0,4180160,6231100,0,0,0,0,0,0,1081131,0,0,0,0,0,0,0,0,0,0,0,0,0,0,0,0,0,0,-4180160,0,0,0,0,0,0,0,4120090,2111010,0
12,319,924.714995169779,1,0,35509.4907210155,35510.5376981865,1,12,14,0,1,35,3,0,1190131,4240131,3071161,0,0,0,0,0,0,0,0,0,0,0,0,1190131,0,0,0,0,0,3120040,0,0,0,1120091,0,0,0,0,0,0,0,0,0,0,0,-3071161,0
12,320,634.088717568375,1,0,35512.5141528193,35513.5611900442,1,12,14,0,1,15,7,4161051,5251231,9391341,2161140,2050020,0,0,0,2111031,0,0,0,0,0,0,0,0,3080050,-2171181,0,0,0,0,0,0,3171170,2050061,4170110,0,0,0,0,0,0,0,0,0,0,0,2161140
12,321,1186.86532550055,1,0,35515.2435445116,35516.2905763471,1,12,14,0,1,5,7,11302493,3161161,5261122,4100201,4131150,0,0,4140181,-1020051,0,2011111,0,0,0,0,0,0,0,0,0,3161161,0,0,1190041,0,0,0,0,0,0,4071081,0,0,0,0,0,0,0,0,4100201
12,322,750.874324345205,1,0,35518.5023164246,35519.5493567292,1,12,14,1,1,19,7,1201131,8271212,3511351,2151081,1201131,0,0,0,0,0,0,0,0,0,0,0,1051071,0,0,4050071,0,3170070,-1200080,0,1171091,0,0,0,1140180,0,0,0,0,0,0,0,0,0,2151081,0
12,323,931.507631321438,0,0,35521.3728763811,35522.4199120662,1,12,14,1,0,14,3,3100191,6181082,4130041,0,0,0,0,0,0,3100191,0,0,0,2141051,0,0,0,-4040031,0,0,0,0,0,0,0,4130041,0,0,0,0,0,0,0,0,0,0,0,0,0,0
12,324,926.599379068648,0,0,35524.43165838,35525.4787029192,1,12,14,0,0,2,3,8200300,3091161,2020131,0,0,-4080180,4120120,0,0,0,0,0,0,0,0,0,0,0,3091161,0,0,0,0,0,0,0,2020131,0,0,0,0,0,0,0,0,0,0,0,0,0
12,325,895.53764903394,0,0,35527.5845633339,35528.6316063333,1,12,14,1,0,24,3,4040161,3070080,4021130,1061081,0,0,0,0,0,0,0,4040161,0,0,0,0,0,0,0,3070080,0,0,0,0,0,0,0,-4021130,0,0,0,0,0,0,0,0,1061081,0,0,0
12,326,880.129201614182,0,0,35530.6551170541,35531.7021558189,1,12,14,0,0,33,7,7302260,2161100,0,10582623,4141110,0,0,0,0,3161150,0,0,0,0,0,0,0,2161100,0,0,0,0,0,0,0,0,0,0,0,0,0,0,0,3160191,1200060,0,-3111100,0,2021081,1090191
12,327,1033.85720205551,0,0,35533.7844920392,35534.8315361934,1,12,14,0,0,4,3,1091181,0,5181252,2091091,0,0,0,-1091181,0,0,0,0,0,0,0,0,0,0,0,0,0,0,0,3161201,0,0,0,0,0,0,2020051,0,0,0,0,0,0,0,0,2091091
12,328,564.609423468937,1,0,35536.9256318162,35537.9726725058,1,12,14,1,1,20,7,6301052,2111191,5272171,6402231,0,0,2110041,4191011,0,0,0,0,0,0,0,0,0,0,0,2111191,0,0,0,-1141041,0,0,0,4131130,0,0,0,0,2171010,0,0,0,0,1160061,0,3071160
12,329,1115.2560424016,0,0,35539.6197114246,35540.666753654,1,12,14,0,0,29,7,12271411,2170100,8131300,7240242,0,0,0,4011120,0,4090110,0,0,4170181,2170100,0,0,0,0,0,0,0,0,0,4030120,0,0,0,0,4101180,0,0,0,-4040101,0,0,3200141,0,0,0,0
12,330,934.482994591235,0,0,35542.9255552089,35543.9726005181,1,12,14,0,0,34,3,0,9483190,0,4021051,0,0,0,0,0,0,0,0,0,0,2111100,0,0,0,0,3191010,4181080,0,0,0,0,0,0,0,0,0,0,0,0,0,0,0,0,-4021051,0,0
12,331,573.981683024613,0,0,35546.0549313489,35547.1019728084,1,12,14,1,0,23,3,4050140,0,6081302,4010201,0,0,0,0,0,0,4050140,0,0,0,0,0,0,0,0,0,0,0,0,0,0,4040191,-2041111,0,0,0,0,0,0,0,0,0,0,0,4010201,0
12,332,1236.60844105325,0,0,35548.7372669532,35549.7842976339,1,12,14,1,0,31,7,5272313,2031031,3181041,7442232,2101081,0,0,1081201,0,0,0,0,2090031,0,0,0,2031031,0,0,0,0,0,0,0,0,3181041,0,0,0,0,0,0,0,0,-2151031,0,0,1090151,0,4201050
12,333,568.318907295179,1,0,35552.1607451833,35553.2077866428,1,12,14,1,1,8,3,4100130,4060111,0,3171240,0,0,0,0,0,0,0,-4100130,0,0,0,0,4060111,0,0,0,0,0,0,0,0,0,0,0,0,0,0,0,0,1131080,0,0,0,0,2040160,0
12,334,783.284957586147,1,0,35554.8195385001,35555.8665803446,1,12,14,0,1,7,3,8223181,0,4040150,0,0,0,0,3071081,3041030,0,-2111070,0,0,0,0,0,0,0,0,0,0,0,0,4040150,0,0,0,0,0,0,0,0,0,0,0,0,0,0,0,0
12,335,1148.48240790889,1,0,35557.7253874429,35558.7724292874,1,12,14,1,1,36,7,6131291,5151171,2060070,10273220,0,3071131,0,0,0,3060160,0,0,0,0,0,0,1091090,4060081,0,0,0,0,0,0,0,0,0,0,0,0,2060070,0,0,3071040,0,0,0,0,3031020,-4171160
12,336,529.9787203694,0,0,35561.054763121,35562.1018003459,1,12,14,1,0,3,3,7210341,2180041,0,2041161,3040200,0,-4170141,0,0,0,0,0,0,0,2180041,0,0,0,0,0,0,0,0,0,0,0,0,0,0,0,0,0,0,0,0,2041161,0,0,0,0
12,337,722.787187660288,0,0,35570.9841116207,35572.0311149691,1,12,15,0,0,7,3,4171370,0,0,5160181,0,0,0,0,0,0,-2060200,0,2111170,0,0,0,0,0,0,0,0,0,0,0,0,0,0,0,0,0,0,0,0,0,0,0,0,4050170,0,1110011
12,338,1484.13140974299,1,0,35573.8075508158,35574.8545926602,1,12,15,0,1,29,7,5241291,6171202,7360171,5172241,0,4150191,0,0,0,0,1091100,0,0,2010111,0,0,0,0,0,4161091,0,0,0,3170021,0,0,0,4190150,0,0,0,0,-3121170,0,0,0,0,0,2051071,0
12,339,554.631235354464,1,0,35577.4310393628,35578.4780777426,1,12,15,1,1,13,7,8242210,7211170,1090130,12370382,0,4111140,0,0,4131070,0,0,0,0,0,0,0,-4170030,0,0,0,0,3041140,0,0,0,0,0,1090130,0,0,0,0,0,4090051,0,0,4100140,0,4180191,0
12,340,880.750528602221,0,0,35580.0898958132,35581.136904936,1,12,15,1,0,24,3,4040161,3070080,4021130,1061081,0,0,0,0,0,0,0,4040161,0,0,0,0,0,0,0,3070080,0,0,0,0,0,0,0,-4021130,0,0,0,0,0,0,0,0,1061081,0,0,0
12,341,1648.28222821234,1,0,35583.0662676793,35584.1133049042,1,12,15,0,1,5,7,6452313,0,3180121,9332393,0,0,0,0,-2181041,0,2190121,0,2081151,0,0,0,0,0,0,0,0,0,0,0,0,0,0,0,3180121,0,0,0,0,0,0,1041051,0,4010021,2171140,2110181
12,342,638.415678775345,1,0,35586.913287273,35587.9603233431,1,12,15,1,1,8,3,4100130,4060111,0,3171240,0,0,0,0,0,0,0,-4100130,0,0,0,0,4060111,0,0,0,0,0,0,0,0,0,0,0,0,0,0,0,0,1131080,0,0,0,0,2040160,0
12,343,579.962051553593,1,0,35589.7485490041,35590.7955800697,1,12,15,0,1,16,7,4060061,5201341,1160140,9392270,0,0,0,0,0,0,4060061,0,0,0,0,0,0,3031151,0,-2170190,0,0,0,0,0,0,0,0,0,1160140,0,0,0,3110170,3120020,0,2091020,1071060,0,0
12,344,673.266194586176,0,0,35592.4543918646,35593.5014321693,1,12,15,1,0,20,7,6301052,2111191,5272171,6402231,0,0,2110041,4191011,0,0,0,0,0,0,0,0,0,0,0,2111191,0,0,0,-1141041,0,0,0,4131130,0,0,0,0,2171010,0,0,0,0,1160061,0,3071160
12,345,731.211288373743,1,0,35595.3131866442,35596.3602211745,1,12,15,0,1,33,3,4011011,4160352,0,2191060,0,0,0,0,0,0,0,4011011,0,0,0,0,0,0,0,1070161,0,3090191,0,0,0,0,0,0,0,0,0,0,0,0,0,0,-2191060,0,0,0
12,346,656.182782018732,1,0,35598.1013822783,35599.1484252777,1,12,15,0,1,4,3,12544283,0,0,0,3131021,0,0,-3191041,4051121,0,0,2171100,0,0,0,0,0,0,0,0,0,0,0,0,0,0,0,0,0,0,0,0,0,0,0,0,0,0,0,0
12,347,1287.81979771156,0,0,35600.8425264439,35601.8895671335,1,12,15,0,0,34,7,14412523,1100131,0,6182161,3130181,0,3071071,3071120,3120050,0,0,2020101,0,0,0,0,0,0,0,0,1100131,0,0,0,0,0,0,0,0,0,0,0,0,0,0,3071111,0,-3111050,0,0
12,348,532.204564646236,1,0,35604.3601337883,35605.4071752478,1,12,15,0,1,15,3,0,4211121,0,5111191,0,0,0,0,0,0,0,0,0,0,0,0,0,0,-2121060,0,0,2090061,0,0,0,0,0,0,0,0,0,2091081,0,0,0,0,0,3020110,0,0
12,349,831.04205953714,0,0,35607.1012741043,35608.1483197984,1,12,15,1,0,31,7,5272313,2031031,3181041,7442232,2101081,0,0,1081201,0,0,0,0,2090031,0,0,0,2031031,0,0,0,0,0,0,0,0,3181041,0,0,0,0,0,0,0,0,-2151031,0,0,1090151,0,4201050
12,350,608.984258418786,1,0,35610.1012436924,35611.1482990105,1,12,15,1,1,23,3,4050140,0,6081302,4010201,0,0,0,0,0,0,4050140,0,0,0,0,0,0,0,0,0,0,0,0,0,0,4040191,-2041111,0,0,0,0,0,0,0,0,0,0,0,4010201,0
12,351,938.220195603208,0,0,35612.7600404738,35613.8070788536,1,12,15,0,0,2,7,5353401,4090010,8140111,5192370,0,-2061020,1131201,2161180,0,0,0,0,0,0,0,0,0,4090010,0,0,0,0,0,0,0,4100090,0,0,4040021,0,0,1101190,0,4091180,0,0,0,0,0,0
12,352,1573.50856601261,0,0,35615.9247310075,35616.9717474446,1,12,15,0,0,35,7,2190170,5161251,5211190,4362472,2190170,0,0,0,0,0,0,0,0,2130120,0,0,0,0,0,3031131,0,0,0,0,1130120,4081070,0,0,0,0,0,0,1111191,0,0,0,0,0,-2111091,1140190
12,353,1288.10697857989,1,0,35619.6423070931,35620.6893473978,1,12,15,1,1,1,7,1061191,7381322,5301471,8272100,-1061191,0,0,0,0,0,0,0,0,0,0,4180131,0,3201191,0,0,0,0,1121201,2150130,0,2030140,0,0,0,0,0,0,0,0,4191020,0,4081080,0,0,0
12,354,665.714030452364,0,0,35623.1834890619,35624.2304889456,1,12,15,1,0,19,7,1201131,8271212,3511351,2151081,1201131,0,0,0,0,0,0,0,0,0,0,0,1051071,0,0,4050071,0,3170070,-1200080,0,1171091,0,0,0,1140180,0,0,0,0,0,0,0,0,0,2151081,0
12,355,974.285648204386,1,0,35625.9598841026,35627.0069278719,1,12,15,0,1,28,3,1040050,0,3131090,5200231,0,1040050,0,0,0,0,0,0,0,0,0,0,0,0,0,0,0,0,0,0,0,0,0,0,0,3131090,0,-4010131,0,0,0,0,0,1190100,0,0
12,356,549.503555354022,0,0,35629.1598451446,35630.2068869891,1,12,15,1,0,3,3,7210341,2180041,0,2041161,3040200,0,-4170141,0,0,0,0,0,0,0,2180041,0,0,0,0,0,0,0,0,0,0,0,0,0,0,0,0,0,0,0,0,2041161,0,0,0,0
12,357,513.416159978078,0,0,35631.9127514074,35632.9598009511,1,12,15,1,0,14,3,3100191,6181082,4130041,0,0,0,0,0,0,3100191,0,0,0,2141051,0,0,0,-4040031,0,0,0,0,0,0,0,4130041,0,0,0,0,0,0,0,0,0,0,0,0,0,0
12,358,1135.74327978858,0,0,35634.5833145206,35635.6303613695,1,12,15,1,0,36,7,6131291,5151171,2060070,10273220,0,3071131,0,0,0,3060160,0,0,0,0,0,0,1091090,4060081,0,0,0,0,0,0,0,0,0,0,0,0,2060070,0,0,3071040,0,0,0,0,3031020,-4171160
12,359,523.609156312887,1,0,35637.877452412,35638.924429968,1,12,15,1,1,26,3,1081131,0,4180160,6231100,0,0,0,0,0,0,1081131,0,0,0,0,0,0,0,0,0,0,0,0,0,0,0,0,0,0,-4180160,0,0,0,0,0,0,0,4120090,2111010,0
12,360,645.42735771829,1,0,35640.5126514715,35641.5596883115,1,12,15,0,1,12,3,0,4241251,4281271,0,0,0,0,0,0,0,0,0,0,0,1121050,-3120201,0,0,0,0,0,0,0,0,3100081,1181190,0,0,0,0,0,0,0,0,0,0,0,0,0,0
12,361,869.98394044349,1,0,35676.4416396478,35677.4886872667,1,12,16,0,1,12,3,0,9222312,2190111,0,0,0,0,0,0,0,0,0,0,0,4011051,-1081091,4130170,0,0,0,0,0,0,2190111,0,0,0,0,0,0,0,0,0,0,0,0,0,0,0,0
12,362,777.529791215784,0,0,35679.5592567703,35680.6062986147,1,12,16,1,0,26,3,1081131,0,4180160,6231100,0,0,0,0,0,0,1081131,0,0,0,0,0,0,0,0,0,0,0,0,0,0,0,0,0,0,-4180160,0,0,0,0,0,0,0,4120090,2111010,0
12,363,773.028442701616,1,0,35682.441568815,35683.4886160489,1,12,16,0,1,33,3,0,2051131,1181171,1200201,0,0,0,0,0,0,0,0,0,0,0,0,0,0,0,1010031,0,1041100,0,0,0,1181171,0,0,0,0,0,0,0,0,0,0,-1200201,0,0,0
12,364,497.384075795708,1,0,35685.3003666743,35686.3474038993,1,12,16,0,1,28,7,4181111,6342192,4090201,12603522,0,0,0,0,4181111,0,0,0,0,0,3191121,0,0,3151071,0,0,0,0,0,0,0,0,0,4090201,0,0,0,-4101120,0,1201101,0,0,0,4101101,3200200,0
12,365,507.377662339422,0,0,35688.0062053002,35689.0532590785,1,12,16,0,0,16,3,3060040,3201042,1171041,0,0,0,0,0,0,0,3060040,0,0,1150011,0,0,0,0,0,-2051031,0,0,0,0,0,0,0,0,1171041,0,0,0,0,0,0,0,0,0,0,0
12,366,875.074664189015,1,0,35690.7355916031,35691.7826307529,1,12,16,0,1,2,3,8231250,4240361,0,0,0,-4141060,0,0,0,0,4090190,0,0,1180200,0,0,0,3060161,0,0,0,0,0,0,0,0,0,0,0,0,0,0,0,0,0,0,0,0,0,0
12,367,988.409865873109,0,0,35693.7590873104,35694.8061349293,1,12,16,0,0,4,7,4150210,5181211,7351323,3151050,0,0,0,-2080120,0,0,0,0,2070090,0,2081090,0,0,0,3100121,0,0,0,0,0,0,0,4120031,1130191,0,0,2101101,0,0,0,0,0,0,3151050,0,0
12,368,454.147955373628,1,0,35696.8414092872,35697.8884499768,1,12,16,1,1,3,3,7210341,2180041,0,2041161,3040200,0,-4170141,0,0,0,0,0,0,0,2180041,0,0,0,0,0,0,0,0,0,0,0,0,0,0,0,0,0,0,0,0,2041161,0,0,0,0
12,369,527.752491136198,0,0,35699.4178525251,35700.4648855154,1,12,16,1,0,20,7,6301052,2111191,5272171,6402231,0,0,2110041,4191011,0,0,0,0,0,0,0,0,0,0,0,2111191,0,0,0,-1141041,0,0,0,4131130,0,0,0,0,2171010,0,0,0,0,1160061,0,3071160
12,370,1195.52001782722,1,0,35702.0648791251,35703.1119302086,1,12,16,0,1,5,7,10411453,3242180,7320321,4100180,4160141,3151161,0,0,-3100151,0,0,0,0,0,2081080,0,0,0,1161100,0,0,0,0,3140200,0,0,0,0,4180121,0,0,0,0,0,4100180,0,0,0,0,0
12,371,631.107579894888,0,0,35705.347189476,35706.3942332453,1,12,16,1,0,19,7,1201131,8271212,3511351,2151081,1201131,0,0,0,0,0,0,0,0,0,0,0,1051071,0,0,4050071,0,3170070,-1200080,0,1171091,0,0,0,1140180,0,0,0,0,0,0,0,0,0,2151081,0
12,372,1085.11475402338,0,0,35708.0412756287,35709.0883174732,1,12,16,1,0,36,7,6131291,5151171,2060070,10273220,0,3071131,0,0,0,3060160,0,0,0,0,0,0,1091090,4060081,0,0,0,0,0,0,0,0,0,0,0,0,2060070,0,0,3071040,0,0,0,0,3031020,-4171160
12,373,647.855691466248,0,0,35711.3236086923,35712.3706366782,1,12,16,1,0,8,3,4100130,4060111,0,3171240,0,0,0,0,0,0,0,-4100130,0,0,0,0,4060111,0,0,0,0,0,0,0,0,0,0,0,0,0,0,0,0,1131080,0,0,0,0,2040160,0
12,374,1093.71131724765,1,0,35714.064732455,35715.1117754543,1,12,16,1,1,31,7,5272313,2031031,3181041,7442232,2101081,0,0,1081201,0,0,0,0,2090031,0,0,0,2031031,0,0,0,0,0,0,0,0,3181041,0,0,0,0,0,0,0,0,-2151031,0,0,1090151,0,4201050
12,375,1045.05841113132,0,0,35717.2646961916,35718.3117434256,1,12,16,0,0,34,3,0,9302122,0,3160120,0,0,0,0,0,0,0,0,0,0,0,2081030,0,3050031,0,0,4171061,0,0,0,0,0,0,0,0,0,0,0,0,0,0,0,0,-3160120,0,0
12,376,907.599245867459,1,0,35720.4176119245,35721.4646418352,1,12,16,0,1,7,7,10311391,6392323,3171021,4121100,3170150,0,0,0,0,0,-3120161,4021080,0,0,1191161,0,0,0,2111121,3090041,0,0,0,0,0,0,3171021,0,0,0,0,0,0,0,0,0,4121100,0,0,0
12,377,476.297069231805,1,0,35723.4999177328,35724.5469580375,1,12,16,0,1,15,3,0,7231380,4100120,0,0,0,0,0,0,0,0,0,0,0,0,0,2051190,0,-2120060,3060130,0,0,0,0,0,0,4100120,0,0,0,0,0,0,0,0,0,0,0,0,0
12,378,407.512629659323,0,0,35726.0645915593,35727.1116357135,1,12,16,1,0,14,3,3100191,6181082,4130041,0,0,0,0,0,0,3100191,0,0,0,2141051,0,0,0,-4040031,0,0,0,0,0,0,0,4130041,0,0,0,0,0,0,0,0,0,0,0,0,0,0
12,379,1327.25827825197,1,0,35728.5469191564,35729.5939579212,1,12,16,0,1,35,7,3021091,6210122,6271330,7131491,0,3021091,0,0,0,0,0,0,0,0,0,0,4180111,0,0,0,2030011,0,0,4140140,0,0,0,2131190,0,0,0,0,0,4010161,0,0,0,1061150,-2060180,0
12,380,833.50619464909,0,0,35732.1115845137,35733.1586263582,1,12,16,1,0,23,3,4050140,0,6081302,4010201,0,0,0,0,0,0,4050140,0,0,0,0,0,0,0,0,0,0,0,0,0,0,4040191,-2041111,0,0,0,0,0,0,0,0,0,0,0,4010201,0
12,381,678.617151948856,1,0,35735.1586017207,35736.2056512644,1,12,16,1,1,24,3,4040161,3070080,4021130,1061081,0,0,0,0,0,0,0,4040161,0,0,0,0,0,0,0,3070080,0,0,0,0,0,0,0,-4021130,0,0,0,0,0,0,0,0,1061081,0,0,0
12,382,1496.43494770135,0,0,35737.8997497359,35738.9465927549,1,12,16,1,0,1,7,1061191,7381322,5301471,8272100,-1061191,0,0,0,0,0,0,0,0,0,0,4180131,0,3201191,0,0,0,0,1121201,2150130,0,2030140,0,0,0,0,0,0,0,0,4191020,0,4081080,0,0,0
12,383,1034.06469601032,0,0,35741.6408758083,35742.6879199625,1,12,16,0,0,29,7,1020101,3322131,3121261,10412171,1020101,0,0,0,0,0,0,0,0,0,2161121,0,0,0,0,0,1161010,0,0,0,2090190,0,0,1031071,0,0,0,0,-4121081,0,4190070,0,0,0,0,2101020
12,384,495.600166694203,1,0,35744.8173192001,35745.8643953062,1,12,16,1,1,13,7,8242210,7211170,1090130,12370382,0,4111140,0,0,4131070,0,0,0,0,0,0,0,-4170030,0,0,0,0,3041140,0,0,0,0,0,1090130,0,0,0,0,0,4090051,0,0,4100140,0,4180191,0
12,385,815.226323407842,0,0,35775.0404876136,35776.087530613,1,12,17,0,0,7,7,6202232,2070091,6281311,8071281,0,0,0,2171041,0,0,-4031191,0,0,0,0,0,0,0,0,0,0,2070091,0,0,0,0,0,0,0,2110120,4171191,2040060,0,0,2020021,0,0,0,4011200,0
12,386,1694.89137658093,1,0,35778.0169345472,35779.0639721571,1,12,17,1,1,1,7,1061191,7381322,5301471,8272100,-1061191,0,0,0,0,0,0,0,0,0,0,4180131,0,3201191,0,0,0,0,1121201,2150130,0,2030140,0,0,0,0,0,0,0,0,4191020,0,4081080,0,0,0
12,387,1389.46642972587,1,0,35781.8051159377,35782.8521658663,1,12,17,0,1,2,3,2131041,7312171,3151130,0,0,-2131041,0,0,0,0,0,0,0,4151031,0,0,0,0,0,0,3161140,0,0,0,0,0,0,0,0,3151130,0,0,0,0,0,0,0,0,0,0
12,388,1026.08753497043,1,0,35785.3815483967,35786.4285898562,1,12,17,1,1,36,7,6131291,5151171,2060070,10273220,0,3071131,0,0,0,3060160,0,0,0,0,0,0,1091090,4060081,0,0,0,0,0,0,0,0,0,0,0,0,2060070,0,0,3071040,0,0,0,0,3031020,-4171160
12,389,1294.39570083923,0,1,35788.5462208372,35789.5932615268,1,12,17,0,1,35,7,8352423,10312431,0,7170251,0,0,0,0,4121181,0,2050151,0,2181091,0,4200190,0,0,2011041,0,0,4101200,0,0,0,0,0,0,0,0,0,0,0,0,0,0,0,0,0,-4150111,3020140
12,390,972.208013896307,0,0,35791.9932328857,35793.0402801197,1,12,17,1,0,24,3,4040161,3070080,4021130,1061081,0,0,0,0,0,0,0,4040161,0,0,0,0,0,0,0,3070080,0,0,0,0,0,0,0,-4021130,0,0,0,0,0,0,0,0,1061081,0,0,0
12,391,857.84381157282,0,0,35795.1226132603,35796.1696539499,1,12,17,0,0,28,3,2120140,6272240,0,3061161,0,0,2120140,0,0,0,0,0,0,0,0,2201130,0,0,0,4071110,0,0,0,0,0,0,0,0,0,0,0,-3061161,0,0,0,0,0,0,0,0
12,392,616.849780781195,0,0,35798.1225809236,35799.1696139139,1,12,17,0,0,33,3,0,0,4100070,6273292,0,0,0,0,0,0,0,0,0,0,0,0,0,0,0,0,0,0,0,0,0,0,0,0,0,0,4100070,0,3081030,1131201,0,0,-2061061,0,0,0
12,393,845.518131522113,1,0,35800.9460713184,35801.9931177824,1,12,17,0,1,29,3,5182211,3140021,0,2110150,0,0,0,0,0,0,1121080,4061131,0,0,0,3140021,0,0,0,0,0,0,0,0,0,0,0,0,0,0,0,0,-2110150,0,0,0,0,0,0,0
12,394,808.261224745365,1,0,35803.9931008441,35805.0401426886,1,12,17,1,1,19,7,1201131,8271212,3511351,2151081,1201131,0,0,0,0,0,0,0,0,0,0,0,1051071,0,0,4050071,0,3170070,-1200080,0,1171091,0,0,0,1140180,0,0,0,0,0,0,0,0,0,2151081,0
12,395,741.557114204625,0,0,35806.8636600307,35807.9108242928,1,12,17,1,0,3,3,7210341,2180041,0,2041161,3040200,0,-4170141,0,0,0,0,0,0,0,2180041,0,0,0,0,0,0,0,0,0,0,0,0,0,0,0,0,0,0,0,0,2041161,0,0,0,0
12,396,829.947615522542,0,0,35809.6753825539,35810.7224178541,1,12,17,0,0,5,7,7390393,4111171,6191302,2010120,0,2050091,0,0,-2050161,1170061,0,2120080,0,0,0,0,0,4111171,0,0,0,0,2120111,0,0,4071191,0,0,0,0,0,0,0,0,0,0,0,0,0,2010120
12,397,970.061471583904,1,0,35812.6753479075,35813.7223882121,1,12,17,0,1,4,7,5030191,17394452,2061120,0,0,0,2010021,-3020170,0,0,0,0,0,4060121,0,0,2011110,4091081,0,0,4041090,3191050,0,0,0,2061120,0,0,0,0,0,0,0,0,0,0,0,0,0,0
12,398,618.982849460735,1,0,35815.7694327513,35816.8164657417,1,12,17,1,1,23,3,4050140,0,6081302,4010201,0,0,0,0,0,0,4050140,0,0,0,0,0,0,0,0,0,0,0,0,0,0,4040191,-2041111,0,0,0,0,0,0,0,0,0,0,0,4010201,0
12,399,410.901056035073,1,0,35818.5693993367,35819.6164346369,1,12,17,0,1,15,3,3050190,5160200,3081090,0,0,0,0,0,0,0,3050190,0,0,0,0,0,0,0,-4060010,1100190,0,0,0,3081090,0,0,0,0,0,0,0,0,0,0,0,0,0,0,0,0
12,400,533.49649363372,0,0,35821.0517277038,35822.0987664686,1,12,17,1,0,8,3,4100130,4060111,0,3171240,0,0,0,0,0,0,0,-4100130,0,0,0,0,4060111,0,0,0,0,0,0,0,0,0,0,0,0,0,0,0,0,1131080,0,0,0,0,2040160,0
12,401,477.637503288861,0,0,35823.7576263836,35824.8046120238,1,12,17,1,0,14,3,3100191,6181082,4130041,0,0,0,0,0,0,3100191,0,0,0,2141051,0,0,0,-4040031,0,0,0,0,0,0,0,4130041,0,0,0,0,0,0,0,0,0,0,0,0,0,0
12,402,412.773121192004,1,1,35826.4634646245,35827.5104614286,1,12,17,1,0,26,3,1081131,0,4180160,6231100,0,0,0,0,0,0,1081131,0,0,0,0,0,0,0,0,0,0,0,0,0,0,0,0,0,0,-4180160,0,0,0,0,0,0,0,4120090,2111010,0
12,403,577.867094012618,0,0,35829.0633974104,35830.1104442593,1,12,17,1,0,20,7,6301052,2111191,5272171,6402231,0,0,2110041,4191011,0,0,0,0,0,0,0,0,0,0,0,2111191,0,0,0,-1141041,0,0,0,4131130,0,0,0,0,2171010,0,0,0,0,1160061,0,3071160
12,404,1515.46800190408,0,0,35831.7927686998,35832.8398128541,1,12,17,0,0,12,7,4141161,8191201,4111181,5402180,0,0,2010010,0,0,0,2131151,0,0,0,0,-4030020,0,0,0,0,4161181,0,0,0,0,0,0,2040111,0,0,2071070,1201040,0,0,0,0,0,0,0,4201140
12,405,837.137531394546,1,0,35835.475086211,35836.5221218961,1,12,17,0,1,34,3,2010090,1060201,0,8362240,0,0,0,0,0,0,2010090,0,0,0,1060201,0,0,0,0,0,0,0,0,0,0,0,0,0,0,0,0,0,0,4191130,0,0,0,-4171110,0,0
12,406,395.628884783946,1,0,35838.404481676,35839.4514992679,1,12,17,0,1,16,7,3080020,10491281,6120172,1141171,0,0,3080020,0,0,0,0,0,0,2020020,2170151,0,3201040,0,0,-3100070,0,0,0,0,4110011,0,0,0,0,2010161,0,0,0,0,0,0,0,0,1141171,0
12,407,859.941463844734,1,0,35841.0161842582,35842.0632357268,1,12,17,1,1,31,7,5272313,2031031,3181041,7442232,2101081,0,0,1081201,0,0,0,0,2090031,0,0,0,2031031,0,0,0,0,0,0,0,0,3181041,0,0,0,0,0,0,0,0,-2151031,0,0,1090151,0,4201050
12,408,679.549527398194,0,0,35844.0985108545,35845.1455553937,1,12,17,1,0,13,7,8242210,7211170,1090130,12370382,0,4111140,0,0,4131070,0,0,0,0,0,0,0,-4170030,0,0,0,0,3041140,0,0,0,0,0,1090130,0,0,0,0,0,4090051,0,0,4100140,0,4180191,0
12,409,554.559247655561,0,0,35874.7922701754,35875.8393127898,1,12,18,0,0,16,3,7351281,4151121,0,3120110,0,0,0,0,4191160,0,0,3160121,0,0,0,0,0,0,0,-4151121,0,0,0,0,0,0,0,0,0,0,0,0,0,0,3120110,0,0,0,0,0
12,410,1339.73640284239,0,0,35877.6040073271,35878.6510460919,1,12,18,1,0,36,7,6131291,5151171,2060070,10273220,0,3071131,0,0,0,3060160,0,0,0,0,0,0,1091090,4060081,0,0,0,0,0,0,0,0,0,0,0,0,2060070,0,0,3071040,0,0,0,0,3031020,-4171160
12,411,567.019279085798,1,0,35881.1686649852,35882.2157114492,1,12,18,0,1,28,7,2090120,9351251,4231381,6150241,0,2090120,0,0,0,0,0,0,0,0,4081020,0,0,2130170,0,0,0,3140061,0,1160180,0,0,0,0,0,3071201,0,-2050150,0,0,0,0,0,0,4100091,0
12,412,617.214723766665,1,0,35883.9333452789,35884.9803871234,1,12,18,1,1,26,3,1081131,0,4180160,6231100,0,0,0,0,0,0,1081131,0,0,0,0,0,0,0,0,0,0,0,0,0,0,0,0,0,0,-4180160,0,0,0,0,0,0,0,4120090,2111010,0
12,413,1021.9365009325,0,0,35886.7568799443,35887.8038779032,1,12,18,0,0,4,3,2200181,2111151,3180121,3200151,0,0,0,-2200181,0,0,0,0,0,0,0,2111151,0,0,0,0,0,0,0,0,3180121,0,0,0,0,0,0,0,0,3200151,0,0,0,0,0,0
12,414,772.204241278814,1,0,35889.9803343838,35891.0273719937,1,12,18,0,1,34,3,0,1201140,1101200,3090361,0,0,0,0,0,0,0,0,0,0,0,0,0,1201140,0,0,0,0,0,0,0,0,1101200,0,0,0,0,0,0,0,0,0,0,-1060171,2030190,0
12,415,558.199823462928,0,0,35892.9802989674,35894.0273427367,1,12,18,1,0,3,3,7210341,2180041,0,2041161,3040200,0,-4170141,0,0,0,0,0,0,0,2180041,0,0,0,0,0,0,0,0,0,0,0,0,0,0,0,0,0,0,0,0,2041161,0,0,0,0
12,416,488.200447107374,0,0,35895.7802667076,35896.8273058574,1,12,18,1,0,8,3,4100130,4060111,0,3171240,0,0,0,0,0,0,0,-4100130,0,0,0,0,4060111,0,0,0,0,0,0,0,0,0,0,0,0,0,0,0,0,1131080,0,0,0,0,2040160,0
12,417,489.961258535914,1,0,35898.3684678082,35899.4155135023,1,12,18,1,1,20,7,6301052,2111191,5272171,6402231,0,0,2110041,4191011,0,0,0,0,0,0,0,0,0,0,0,2111191,0,0,0,-1141041,0,0,0,4131130,0,0,0,0,2171010,0,0,0,0,1160061,0,3071160
12,418,1426.10932376556,1,0,35900.9213818472,35901.9684183022,1,12,18,1,1,1,7,1061191,7381322,5301471,8272100,-1061191,0,0,0,0,0,0,0,0,0,0,4180131,0,3201191,0,0,0,0,1121201,2150130,0,2030140,0,0,0,0,0,0,0,0,4191020,0,4081080,0,0,0
12,419,1302.90834257903,1,0,35904.55669524,35905.6036916591,1,12,18,1,1,31,7,5272313,2031031,3181041,7442232,2101081,0,0,1081201,0,0,0,0,2090031,0,0,0,2031031,0,0,0,0,0,0,0,0,3181041,0,0,0,0,0,0,0,0,-2151031,0,0,1090151,0,4201050
12,420,465.74451935885,1,0,35907.9566581298,35909.003663403,1,12,18,0,1,15,7,7241200,9382341,4222111,3010151,3100140,0,0,0,0,4141060,0,0,0,0,0,0,0,2141150,-4131131,0,3110060,0,2121030,0,0,0,0,0,0,2101081,0,0,0,0,0,3010151,0,0,0,0
12,421,972.121397680894,0,0,35910.6271561846,35911.67418879,1,12,18,0,0,12,3,0,6081261,4070151,4141081,0,0,0,0,0,0,0,0,0,0,0,-3021140,0,3060121,0,0,0,0,0,0,0,0,0,0,0,4070151,0,0,4141081,0,0,0,0,0,0,0
12,422,1197.98222813552,0,0,35913.7094654576,35914.7565038374,1,12,18,1,0,14,3,3100191,6181082,4130041,0,0,0,0,0,0,3100191,0,0,0,2141051,0,0,0,-4040031,0,0,0,0,0,0,0,4130041,0,0,0,0,0,0,0,0,0,0,0,0,0,0
12,423,793.865224637557,1,0,35917.0623680247,35918.1094060196,1,12,18,1,1,13,7,8242210,7211170,1090130,12370382,0,4111140,0,0,4131070,0,0,0,0,0,0,0,-4170030,0,0,0,0,3041140,0,0,0,0,0,1090130,0,0,0,0,0,4090051,0,0,4100140,0,4180191,0
12,424,1050.96024763043,1,0,35920.0623368429,35921.1093732979,1,12,18,0,1,29,7,3110130,7152342,5291353,4100141,0,0,0,0,0,0,3110130,0,0,1091130,2040091,0,0,0,0,0,0,4021121,0,1070121,0,0,0,0,2181051,0,2040181,0,-4100141,0,0,0,0,0,0,0
12,425,626.105782124796,1,0,35923.1681807043,35924.2152225488,1,12,18,1,1,23,3,4050140,0,6081302,4010201,0,0,0,0,0,0,4050140,0,0,0,0,0,0,0,0,0,0,0,0,0,0,4040191,-2041111,0,0,0,0,0,0,0,0,0,0,0,4010201,0
12,426,777.101329666039,0,0,35925.9210904317,35926.9681299664,1,12,18,1,0,19,7,1201131,8271212,3511351,2151081,1201131,0,0,0,0,0,0,0,0,0,0,0,1051071,0,0,4050071,0,3170070,-1200080,0,1171091,0,0,0,1140180,0,0,0,0,0,0,0,0,0,2151081,0
12,427,1424.21993536846,0,0,35928.8269428392,35929.8739854536,1,12,18,0,0,5,7,15342802,2110180,7170211,0,4051151,2010170,0,4171160,-2030140,0,0,0,3080181,0,0,0,0,0,2110180,0,0,0,0,0,0,3120101,0,0,0,0,4050110,0,0,0,0,0,0,0,0,0
12,428,1298.50361925492,0,0,35932.3916081965,35933.4386469613,1,12,18,0,0,7,7,11533312,1161081,5102102,1080070,0,0,0,3191100,0,0,-3191061,4020060,1131091,0,1161081,0,0,0,0,0,0,0,0,0,0,0,1091091,4011011,0,0,0,0,0,0,0,0,1080070,0,0,0
12,429,1158.14646788203,1,0,35935.8150956656,35936.8621375101,1,12,18,0,1,33,7,5250212,7102272,3131170,8383452,0,0,0,0,0,0,1170081,0,4080131,0,0,0,0,3041191,0,4061081,0,0,0,0,0,0,0,0,0,3131170,0,3181130,0,0,0,1041151,-4161171,0,0,0
12,430,675.885853932414,0,0,35939.1091715784,35940.1562095733,1,12,18,0,0,2,3,5382171,0,2180090,2130190,2191090,-3191081,0,0,0,0,0,0,0,0,0,0,0,0,0,0,0,0,0,0,2180090,0,0,0,0,0,0,0,0,0,2130190,0,0,0,0,0
12,431,861.18989224633,1,0,35941.9209037256,35942.9679474949,1,12,18,0,1,35,3,4181161,0,5161120,4070170,0,0,0,0,0,0,0,0,4181161,0,0,0,0,0,0,0,0,0,0,0,0,0,0,0,3091020,2070100,0,0,0,0,0,0,0,0,-4070170,0
12,432,867.517110600602,0,0,35944.9444279201,35945.9914535962,1,12,18,1,0,24,3,4040161,3070080,4021130,1061081,0,0,0,0,0,0,0,4040161,0,0,0,0,0,0,0,3070080,0,0,0,0,0,0,0,-4021130,0,0,0,0,0,0,0,0,1061081,0,0,0
12,433,1205.43930691201,1,0,35953.0266532716,35954.0737008905,1,12,19,1,1,13,7,8242210,7211170,1090130,12370382,0,4111140,0,0,4131070,0,0,0,0,0,0,0,-4170030,0,0,0,0,3041140,0,0,0,0,0,1090130,0,0,0,0,0,4090051,0,0,4100140,0,4180191,0
12,434,967.32824875653,0,0,35956.3795593034,35957.4266065373,1,12,19,1,0,31,7,5272313,2031031,3181041,7442232,2101081,0,0,1081201,0,0,0,0,2090031,0,0,0,2031031,0,0,0,0,0,0,0,0,3181041,0,0,0,0,0,0,0,0,-2151031,0,0,1090151,0,4201050
12,435,793.97378363501,0,0,35959.4618782004,35960.5089165803,1,12,19,1,0,1,7,1061191,7381322,5301471,8272100,-1061191,0,0,0,0,0,0,0,0,0,0,4180131,0,3201191,0,0,0,0,1121201,2150130,0,2030140,0,0,0,0,0,0,0,0,4191020,0,4081080,0,0,0
12,436,883.829831327603,1,0,35962.3559635062,35963.4030015011,1,12,19,0,1,28,7,13362410,2110201,4010150,5250242,4160080,0,0,0,3100130,2041120,0,4061080,0,0,2110201,0,0,0,0,0,0,0,0,0,0,0,0,0,0,0,4010150,-4130201,0,0,1120041,0,0,0,0,0
12,437,498.561286411132,0,0,35965.4382766289,35966.4853169335,1,12,19,1,0,3,3,7210341,2180041,0,2041161,3040200,0,-4170141,0,0,0,0,0,0,0,2180041,0,0,0,0,0,0,0,0,0,0,0,0,0,0,0,0,0,0,0,0,2041161,0,0,0,0
12,438,481.60683576134,1,0,35968.1323708658,35969.179405011,1,12,19,1,1,8,3,4100130,4060111,0,3171240,0,0,0,0,0,0,0,-4100130,0,0,0,0,4060111,0,0,0,0,0,0,0,0,0,0,0,0,0,0,0,0,1131080,0,0,0,0,2040160,0
12,439,922.218138366588,1,0,35970.8735127216,35971.9205522563,1,12,19,1,1,24,3,4040161,3070080,4021130,1061081,0,0,0,0,0,0,0,4040161,0,0,0,0,0,0,0,3070080,0,0,0,0,0,0,0,-4021130,0,0,0,0,0,0,0,0,1061081,0,0,0
12,440,612.886607676046,1,0,35973.9558327735,35975.002864224,1,12,19,0,1,4,3,3251112,0,7102241,0,2121011,0,0,-1130101,0,0,0,0,0,0,0,0,0,0,0,0,0,0,0,0,0,0,4081160,0,0,0,3021081,0,0,0,0,0,0,0,0,0
12,441,1051.80215725704,1,0,35976.6969854082,35977.7440180136,1,12,19,1,1,36,7,6131291,5151171,2060070,10273220,0,3071131,0,0,0,3060160,0,0,0,0,0,0,1091090,4060081,0,0,0,0,0,0,0,0,0,0,0,0,2060070,0,0,3071040,0,0,0,0,3031020,-4171160
12,442,1066.45223159285,0,0,35979.8263496144,35980.8733829897,1,12,19,0,0,12,7,10553513,6462222,3010121,0,0,0,0,2081161,3191131,0,2140030,0,3141191,0,0,-4161041,1191110,0,0,0,1110071,0,0,3010121,0,0,0,0,0,0,0,0,0,0,0,0,0,0,0,0
12,443,743.67516941129,1,0,35983.1439616553,35984.1909988803,1,12,19,1,1,19,7,1201131,8271212,3511351,2151081,1201131,0,0,0,0,0,0,0,0,0,0,0,1051071,0,0,4050071,0,3170070,-1200080,0,1171091,0,0,0,1140180,0,0,0,0,0,0,0,0,0,2151081,0
12,444,783.020104448951,0,0,35986.0615688458,35987.108613,1,12,19,1,0,26,3,1081131,0,4180160,6231100,0,0,0,0,0,0,1081131,0,0,0,0,0,0,0,0,0,0,0,0,0,0,0,0,0,0,-4180160,0,0,0,0,0,0,0,4120090,2111010,0
12,445,1071.31505845609,0,0,35988.9791872001,35990.0262228852,1,12,19,0,0,35,7,2131311,4181212,1140201,7301361,1070121,0,1061190,0,0,0,0,0,0,0,0,0,2150131,2031081,0,0,0,0,0,0,0,0,1140201,0,0,0,0,0,3050120,0,0,0,0,3141070,-1110171,0
12,446,735.538634537079,0,0,35992.1791428526,35993.2261904715,1,12,19,1,0,23,3,4050140,0,6081302,4010201,0,0,0,0,0,0,4050140,0,0,0,0,0,0,0,0,0,0,0,0,0,0,4040191,-2041111,0,0,0,0,0,0,0,0,0,0,0,4010201,0
12,447,1173.29891627014,0,0,35995.0261770749,35996.0732154547,1,12,19,0,0,5,7,4210211,4360251,4251251,6261250,0,0,3110080,0,-1100131,0,0,0,0,0,0,0,3190080,1170171,0,0,0,0,0,0,3111100,0,0,0,0,0,1140151,0,0,0,2110110,0,0,0,0,4151140
12,448,528.200585693412,0,0,35998.4026061462,35999.4496422163,1,12,19,0,0,15,3,2121051,5172351,4060171,0,0,0,0,0,0,2121051,0,0,0,0,0,0,0,4081160,-1091191,0,0,0,0,4060171,0,0,0,0,0,0,0,0,0,0,0,0,0,0,0,0
12,449,468.061984349333,1,0,36001.0143364456,36002.0613879141,1,12,19,0,1,16,3,3130080,3110071,0,4190160,0,0,0,0,0,0,0,0,3130080,0,0,0,0,0,0,-3110071,0,0,0,0,0,0,0,0,0,0,0,0,0,3140040,0,0,0,0,1050120,0
12,450,420.802636916051,0,1,36003.590843972,36004.6378188333,1,12,19,1,1,14,3,3100191,6181082,4130041,0,0,0,0,0,0,3100191,0,0,0,2141051,0,0,0,-4040031,0,0,0,0,0,0,0,4130041,0,0,0,0,0,0,0,0,0,0,0,0,0,0
12,451,1162.30943571281,1,0,36006.0730957319,36007.1201464304,1,12,19,0,1,33,7,2061191,4290202,4172311,3221231,0,0,0,2061191,0,0,0,0,0,0,0,2200101,0,0,0,0,0,2090101,1121021,2040160,0,0,0,1011130,0,0,0,0,0,0,0,2160051,-1061180,0,0,0
12,452,633.331884324434,0,0,36009.3671866581,36010.4142288875,1,12,19,1,0,20,7,6301052,2111191,5272171,6402231,0,0,2110041,4191011,0,0,0,0,0,0,0,0,0,0,0,2111191,0,0,0,-1141041,0,0,0,4131130,0,0,0,0,2171010,0,0,0,0,1160061,0,3071160
12,453,610.150690132286,0,0,36012.2142070218,36013.2612473264,1,12,19,0,0,2,3,8101231,4011021,1060030,0,4051071,-4050160,0,0,0,0,0,0,0,0,0,0,0,0,4011021,0,0,0,0,0,0,0,0,0,0,1060030,0,0,0,0,0,0,0,0,0,0
12,454,494.895303178055,0,0,36015.0026859871,36016.0494498898,1,12,19,0,0,7,3,3040081,1200140,8261201,0,0,0,0,0,0,0,-3040081,0,0,0,1200140,0,0,0,0,0,0,0,4130040,0,0,0,0,0,0,4131161,0,0,0,0,0,0,0,0,0,0
12,455,761.49847695342,0,0,36017.6847278662,36018.7317716355,1,12,19,0,0,34,3,0,1051020,0,9332331,0,0,0,0,0,0,0,0,0,0,0,0,0,1051020,0,0,0,0,0,0,0,0,0,0,0,0,0,0,0,0,0,0,3101110,-3080090,3151131,0
12,456,772.89486124937,1,0,36020.4964657879,36021.5435461285,1,12,19,0,1,29,7,7223411,0,6100221,8281491,3121190,0,0,3081080,0,0,1021141,0,0,0,0,0,0,0,0,0,0,0,0,0,0,0,4040180,0,0,2060041,0,0,-3121161,0,0,0,3140150,0,0,2020180
12,457,544.828204481746,0,0,36027.2493216208,36028.2963684698,1,12,20,1,0,19,7,1201131,8271212,3511351,2151081,1201131,0,0,0,0,0,0,0,0,0,0,0,1051071,0,0,4050071,0,3170070,-1200080,0,1171091,0,0,0,1140180,0,0,0,0,0,0,0,0,0,2151081,0
12,458,569.052257924341,1,0,36029.8610596194,36030.9081072383,1,12,20,1,1,23,3,4050140,0,6081302,4010201,0,0,0,0,0,0,4050140,0,0,0,0,0,0,0,0,0,0,0,0,0,0,4040191,-2041111,0,0,0,0,0,0,0,0,0,0,0,4010201,0
12,459,430.257663079828,1,0,36032.6610312093,36033.7080730538,1,12,20,1,1,8,3,4100130,4060111,0,3171240,0,0,0,0,0,0,0,-4100130,0,0,0,0,4060111,0,0,0,0,0,0,0,0,0,0,0,0,0,0,0,0,1131080,0,0,0,0,2040160,0
12,460,1139.5397647866,1,0,36035.2257085004,36036.2727518847,1,12,20,1,1,36,7,6131291,5151171,2060070,10273220,0,3071131,0,0,0,3060160,0,0,0,0,0,0,1091090,4060081,0,0,0,0,0,0,0,0,0,0,0,0,2060070,0,0,3071040,0,0,0,0,3031020,-4171160
12,461,667.276971951651,1,0,36038.5668462756,36039.6138877351,1,12,20,1,1,20,7,6301052,2111191,5272171,6402231,0,0,2110041,4191011,0,0,0,0,0,0,0,0,0,0,0,2111191,0,0,0,-1141041,0,0,0,4131130,0,0,0,0,2171010,0,0,0,0,1160061,0,3071160
12,462,892.904131105752,0,0,36041.402105697,36042.4491448467,1,12,20,0,0,5,3,6313312,4050160,0,0,0,0,0,2051091,-3131150,0,1131071,0,0,0,0,0,0,0,0,0,4050160,0,0,0,0,0,0,0,0,0,0,0,0,0,0,0,0,0,0,0
