sub_id,Trial,RT,Resp,Error,Fix_onset,Disp_onset,q1,q2,block,repeat,tid,tloc,d_setsize,quad1,quad2,quad3,quad4,loc1,loc2,loc3,loc4,loc5,loc6,loc7,loc8,loc9,loc10,loc11,loc12,loc13,loc14,loc15,loc16,loc17,loc18,loc19,loc20,loc21,loc22,loc23,loc24,loc25,loc26,loc27,loc28,loc29,loc30,loc31,loc32,loc33,loc34,loc35,loc36
15,1,485.012661898509,0,0,503948.194087731,503949.241111867,1,75,1,1,0,21,3,5101210,0,1141080,4160151,0,0,3041030,0,2060180,0,0,0,0,0,0,0,0,0,0,0,0,0,0,0,-1141080,0,0,0,0,0,0,0,0,0,4160151,0,0,0,0,0
15,2,1068.99920979049,0,0,503950.89989556,503951.94692932,1,75,1,0,0,36,7,7251350,3171071,8111250,4080431,0,0,0,0,0,3101180,4150170,0,0,0,3171071,0,0,0,0,0,0,0,4040180,0,0,0,0,0,0,0,4071070,0,0,0,1060160,0,1010170,0,0,-2010101
15,3,573.942493472714,1,0,503954.135108632,503955.182130843,1,75,1,1,1,10,3,0,6051251,3081051,3100160,0,0,0,0,0,0,0,0,0,-2040121,0,0,0,0,4011130,0,0,0,0,0,0,0,0,0,0,0,3081051,0,0,3100160,0,0,0,0,0,0
15,4,739.657793310471,0,0,503956.829207103,503957.876213916,1,75,1,1,0,27,7,10362633,1010140,4090051,8292062,4101171,0,0,0,0,1021201,0,1050160,4190101,0,0,0,0,0,0,0,0,1010140,0,0,0,0,0,0,0,0,-4090051,0,0,0,0,0,4101051,4191011,0,0
15,5,507.196422258858,0,0,503959.699658116,503960.746678787,1,75,1,0,0,9,7,9161281,1141171,4200031,7322292,0,3041101,4060120,0,0,0,0,0,-2060060,0,1141171,0,0,0,0,0,0,0,0,0,0,0,0,0,0,0,4200031,2140101,1011081,4171110,0,0,0,0,0,0
15,6,558.799669146538,0,0,503962.276053618,503963.32307737,1,75,1,0,0,23,3,0,3021171,8323372,0,0,0,0,0,0,0,0,0,0,0,0,3021171,0,0,0,0,0,0,4031151,0,0,0,-1181191,0,0,3111030,0,0,0,0,0,0,0,0,0,0
15,7,645.324264653027,1,0,503964.899514063,503965.94653666,1,75,1,0,1,26,7,3351201,7500422,5201181,4140020,0,1171111,0,2180090,0,0,0,0,0,0,0,2200171,0,0,3140091,2160160,0,0,0,0,3191010,0,0,0,0,-2010171,0,0,0,0,0,0,0,0,0,4140020
15,8,710.830376716331,0,0,503967.722963652,503968.769989328,1,75,1,1,0,6,3,3242321,0,0,4200130,1111071,0,0,1030100,0,-1101150,0,0,0,0,0,0,0,0,0,0,0,0,0,0,0,0,0,0,0,0,0,0,0,4200130,0,0,0,0,0,0
15,9,1099.00114231277,1,0,503970.62876255,503971.675789766,1,75,1,0,1,25,7,1120070,6060220,3151271,3311280,0,0,0,0,0,0,0,0,1120070,0,3020140,0,0,0,3040080,0,0,0,0,0,1121100,0,0,0,-2030171,0,0,1071020,0,0,0,0,1110190,0,1130070,0
15,10,603.243027115241,0,0,503973.840444499,503974.887468635,1,75,1,1,0,8,7,10371272,5301351,4091060,4211261,4120160,0,0,0,0,0,0,-2071081,4180031,0,3170151,0,0,0,0,2131200,0,0,4091060,0,0,0,0,0,0,0,0,0,0,0,0,0,0,1081121,0,3130140
15,11,1927.05909896176,0,0,503976.628604331,503977.675632317,1,75,1,1,0,3,7,4292151,10371131,8200101,1151031,0,0,-3111041,0,0,0,1181110,0,0,0,0,0,4160080,4201040,0,0,0,2010011,0,4190011,0,0,0,0,0,0,4010090,0,1151031,0,0,0,0,0,0,0
15,12,841.908814036287,1,0,503980.616725591,503981.663748187,1,75,1,0,1,31,3,2071100,0,4090171,7322132,0,0,0,0,0,0,2071100,0,0,0,0,0,0,0,0,0,0,0,0,4090171,0,0,0,0,0,0,0,0,0,0,-3181061,0,0,4141071,0,0
15,13,562.084925943054,0,0,503983.663699682,503984.710724588,1,75,1,0,0,13,3,7121251,3190170,1071191,0,0,0,0,0,0,0,0,3041051,4080200,0,0,0,-3190170,0,0,0,0,0,0,0,0,1071191,0,0,0,0,0,0,0,0,0,0,0,0,0,0
15,14,727.862589468714,1,0,503986.357743874,503987.404761851,1,75,1,0,1,32,3,3111120,2111200,0,3311192,0,0,0,0,3111120,0,0,0,0,0,0,0,0,0,0,0,2111200,0,0,0,0,0,0,0,0,0,0,2140081,0,0,0,-1171111,0,0,0,0
15,15,891.988770395983,1,0,503989.263542002,503990.310564599,1,75,1,1,1,7,3,4030190,0,3152202,1090090,0,0,0,0,0,0,-4030190,0,0,0,0,0,0,0,0,0,0,0,0,0,0,0,0,0,1061031,0,2091171,0,0,0,1090090,0,0,0,0,0
15,16,1264.08587611513,1,0,503992.357580651,503993.404599013,1,75,1,1,1,33,7,4181170,2201131,5261252,12262403,0,0,4181170,0,0,0,0,0,0,0,0,0,0,0,0,0,2201131,0,0,0,4181201,0,0,0,0,0,1080051,0,0,1070041,3030141,0,-4011081,4151140,0,0
15,17,1312.65563063789,1,0,503995.745715615,503996.79280481,1,75,1,1,1,12,7,11252182,2342301,0,9270142,4071041,4101030,0,0,0,0,0,3080111,0,0,0,-1161191,0,0,0,0,1181110,0,0,0,0,0,0,0,0,0,0,4060090,2020031,3190021,0,0,0,0,0,0
15,18,587.066967564169,1,0,503999.298561131,504000.345583342,1,75,1,1,1,5,3,6181181,0,0,6290191,0,0,3161041,0,-3020140,0,0,0,0,0,0,0,0,0,0,0,0,0,0,0,0,0,0,0,0,0,0,0,0,4180020,0,0,0,2110171,0,0
15,19,794.384228531271,0,0,504002.016135292,504003.063164432,1,75,1,0,0,24,3,0,3141170,5390130,3140041,0,0,0,0,0,0,0,0,0,0,0,0,0,0,0,0,3141170,0,0,0,0,0,0,-2200050,3190080,0,0,3140041,0,0,0,0,0,0,0,0
15,20,829.049193183891,1,0,504004.898407301,504005.945428742,1,75,1,0,1,18,7,5111320,6332421,2121060,5061271,0,0,2011160,0,3100160,0,0,0,0,0,1101121,2170170,0,0,0,0,0,-3061130,0,0,0,0,0,2121060,0,0,0,4041181,0,0,0,0,0,0,0,1020090
15,21,570.480154594406,0,0,504007.815972145,504008.863005521,1,75,1,1,0,20,3,5300322,0,5212150,0,3160131,0,0,0,0,0,0,2140191,0,0,0,0,0,0,0,0,0,0,0,-2071060,0,0,0,0,0,0,3141090,0,0,0,0,0,0,0,0,0
15,22,701.689093722962,0,0,504010.568834907,504011.615864433,1,75,1,0,0,2,3,7280182,2010130,0,1061041,4080121,-3200061,0,0,0,0,0,0,0,0,2010130,0,0,0,0,0,0,0,0,0,0,0,0,0,0,0,0,0,0,0,1061041,0,0,0,0,0
15,23,694.420645770151,1,0,504013.404057373,504014.451078814,1,75,1,1,1,17,7,9491240,14413444,1180071,0,0,4100050,2191140,0,0,0,0,3200050,0,4130071,0,0,0,3011081,0,4071101,-3201191,0,0,0,0,0,0,0,1180071,0,0,0,0,0,0,0,0,0,0,0
15,24,755.265650572255,0,0,504016.192205656,504017.239239802,1,75,1,0,0,34,7,6171202,7280121,7220091,3201251,0,3100181,0,0,3071021,0,0,0,0,0,4160020,0,0,0,3120101,0,0,0,0,0,4050040,0,0,0,0,0,3170051,2141180,0,0,0,0,0,-1060071,0,0
15,25,556.209266826045,1,0,504022.239099676,504023.286122657,1,75,2,0,1,24,3,0,5120221,2271150,0,0,0,0,0,0,0,0,0,0,3020121,0,0,0,0,0,2100100,0,0,1080080,0,0,0,0,-1191070,0,0,0,0,0,0,0,0,0,0,0,0
15,26,853.445324173663,1,0,504024.862562046,504025.909643156,1,75,2,1,1,10,3,0,6051251,3081051,3100160,0,0,0,0,0,0,0,0,0,-2040121,0,0,0,0,4011130,0,0,0,0,0,0,0,0,0,0,0,3081051,0,0,3100160,0,0,0,0,0,0
15,27,1005.17691700952,0,0,504027.885996544,504028.933026455,1,75,2,0,0,36,7,0,10162211,8472241,5181230,0,0,0,0,0,0,0,0,0,4041040,0,0,0,0,3031090,0,3090081,0,0,1191050,0,0,3110041,4171150,0,0,0,0,1021190,0,0,0,0,0,0,-4160040
15,28,1246.75531859975,0,0,504031.003612512,504032.050586218,1,75,2,0,0,32,7,4162242,4051011,9340241,6171061,0,3111161,0,0,1051081,0,0,0,0,0,0,4051011,0,0,0,0,0,0,0,0,0,2140101,0,3100130,4100010,0,0,4131040,0,0,0,-2040021,0,0,0,0
15,29,752.247556578368,1,0,504034.379946498,504035.42696255,1,75,2,1,1,12,7,11252182,2342301,0,9270142,4071041,4101030,0,0,0,0,0,3080111,0,0,0,-1161191,0,0,0,0,1181110,0,0,0,0,0,0,0,0,0,0,4060090,2020031,3190021,0,0,0,0,0,0
15,30,529.379027721006,1,0,504037.238680453,504038.285710749,1,75,2,1,1,17,7,9491240,14413444,1180071,0,0,4100050,2191140,0,0,0,0,3200050,0,4130071,0,0,0,3011081,0,4071101,-3201191,0,0,0,0,0,0,0,1180071,0,0,0,0,0,0,0,0,0,0,0
15,31,841.544640948996,0,0,504039.885668557,504040.932696928,1,75,2,1,0,7,3,4030190,0,3152202,1090090,0,0,0,0,0,0,-4030190,0,0,0,0,0,0,0,0,0,0,0,0,0,0,0,0,0,1061031,0,2091171,0,0,0,1090090,0,0,0,0,0
15,32,727.007206180133,0,0,504042.862061211,504043.909082653,1,75,2,0,0,18,3,0,4190031,2200011,6221120,0,0,0,0,0,0,0,0,0,0,0,0,0,0,0,0,0,-4190031,0,0,0,0,0,2200011,0,0,0,0,0,3030050,0,3191070,0,0,0,0
15,33,1433.29469655873,0,0,504045.767865114,504046.81489002,1,75,2,1,0,33,7,4181170,2201131,5261252,12262403,0,0,4181170,0,0,0,0,0,0,0,0,0,0,0,0,0,2201131,0,0,0,4181201,0,0,0,0,0,1080051,0,0,1070041,3030141,0,-4011081,4151140,0,0
15,34,939.293158298824,0,0,504049.320700621,504050.367727452,1,75,2,0,0,31,7,4101200,5172400,3202302,6432232,0,4101200,0,0,0,0,0,0,0,2121200,0,0,0,0,0,3051200,0,0,0,1121201,0,0,0,0,2081101,0,0,1120061,0,0,-4171090,0,0,1141081,0,0
15,35,543.227998248767,1,0,504052.367679717,504053.414703083,1,75,2,0,1,13,3,4122211,1141111,0,1060100,0,1051160,0,0,0,0,0,0,3071051,0,0,0,-1141111,0,0,0,0,0,0,0,0,0,0,0,0,0,0,0,0,0,0,1060100,0,0,0,0
15,36,498.524021706544,1,0,504055.073484466,504056.120507447,1,75,2,1,1,8,7,10371272,5301351,4091060,4211261,4120160,0,0,0,0,0,0,-2071081,4180031,0,3170151,0,0,0,0,2131200,0,0,4091060,0,0,0,0,0,0,0,0,0,0,0,0,0,0,1081121,0,3130140
15,37,610.834842256736,0,0,504057.743999459,504058.791018591,1,75,2,1,0,20,3,5300322,0,5212150,0,3160131,0,0,0,0,0,0,2140191,0,0,0,0,0,0,0,0,0,0,0,-2071060,0,0,0,0,0,0,3141090,0,0,0,0,0,0,0,0,0
15,38,676.229315635283,1,0,504060.5556908,504061.602708392,1,75,2,1,1,27,7,10362633,1010140,4090051,8292062,4101171,0,0,0,0,1021201,0,1050160,4190101,0,0,0,0,0,0,0,0,1010140,0,0,0,0,0,0,0,0,-4090051,0,0,0,0,0,4101051,4191011,0,0
15,39,567.833932989743,0,0,504063.285023594,504064.33204465,1,75,2,0,0,26,7,12301312,2111190,6102340,5161130,4150091,0,0,4021051,0,0,0,0,4130170,0,0,2111190,0,0,0,0,0,0,4041170,0,0,0,0,0,0,-2061170,0,0,0,3081100,0,0,0,2080030,0,0
15,40,475.479873595759,1,0,504065.96729568,504067.014338679,1,75,2,1,1,21,3,5101210,0,1141080,4160151,0,0,3041030,0,2060180,0,0,0,0,0,0,0,0,0,0,0,0,0,0,0,-1141080,0,0,0,0,0,0,0,0,0,4160151,0,0,0,0,0
15,41,552.564071491361,0,0,504068.520232816,504069.56722885,1,75,2,0,0,23,7,1071111,7230310,7541251,4180100,1071111,0,0,0,0,0,0,0,0,0,0,0,0,4170190,0,3060120,0,0,0,0,0,0,-1190180,0,0,2151050,4200021,0,0,3030080,0,0,0,1150020,0,0
15,42,814.362932462245,1,0,504071.155391455,504072.202414821,1,75,2,1,1,5,3,6181181,0,0,6290191,0,0,3161041,0,-3020140,0,0,0,0,0,0,0,0,0,0,0,0,0,0,0,0,0,0,0,0,0,0,0,0,4180020,0,0,0,2110171,0,0
15,43,529.416753852274,1,0,504074.202366701,504075.249389297,1,75,2,1,1,6,3,3242321,0,0,4200130,1111071,0,0,1030100,0,-1101150,0,0,0,0,0,0,0,0,0,0,0,0,0,0,0,0,0,0,0,0,0,0,0,4200130,0,0,0,0,0,0
15,44,1006.47000089521,0,0,504076.955232543,504078.002263993,1,75,2,0,0,2,7,5503351,6261211,1101041,2061011,0,-1191021,0,0,0,0,1120180,1131050,2061100,3141110,0,0,3120101,0,0,0,0,0,0,0,1101041,0,0,0,0,0,0,0,0,0,0,0,0,0,0,2061011
15,45,627.051322720945,0,0,504080.084551709,504081.131585084,1,75,2,0,0,34,3,1120191,0,2121070,6342261,0,0,0,0,0,1120191,0,0,0,0,0,0,0,0,0,0,0,0,0,0,0,0,0,0,2121070,0,0,0,0,0,0,4201131,0,-2141130,0,0
15,46,798.447106499225,0,0,504082.790361077,504083.837381364,1,75,2,0,0,25,3,0,3060140,4150061,7071202,0,0,0,0,0,0,0,0,0,3060140,0,0,0,0,0,0,0,0,0,0,0,0,0,0,-4150061,0,0,0,4030071,0,0,3041131,0,0,0,0
15,47,1011.73665176611,1,0,504085.707941706,504086.754946209,1,75,2,1,1,3,7,4292151,10371131,8200101,1151031,0,0,-3111041,0,0,0,1181110,0,0,0,0,0,4160080,4201040,0,0,0,2010011,0,4190011,0,0,0,0,0,0,4010090,0,1151031,0,0,0,0,0,0,0
15,48,440.178568474948,1,0,504088.978417587,504090.025459431,1,75,2,0,1,9,3,5271180,3090181,1021141,0,2100140,0,0,0,0,0,0,0,-3171040,0,0,0,0,3090181,0,0,0,0,1021141,0,0,0,0,0,0,0,0,0,0,0,0,0,0,0,0,0
15,49,787.277464231011,1,0,504107.319088019,504108.36611562,1,75,3,0,1,31,3,4061030,1150201,0,3282150,0,0,0,0,0,4061030,0,0,0,0,1150201,0,0,0,0,0,0,0,0,0,0,0,0,0,0,0,0,1081080,0,0,-2201070,0,0,0,0,0
15,50,687.751582125202,0,0,504110.189601781,504111.236689435,1,75,3,0,0,2,3,4231201,0,4081111,3130050,0,-2161061,2070140,0,0,0,0,0,0,0,0,0,0,0,0,0,0,0,0,0,0,0,0,0,0,4081111,0,0,0,0,0,0,3130050,0,0,0
15,51,752.446966362186,0,0,504113.013050984,504114.06008051,1,75,3,0,0,18,7,4242222,4221351,5231050,5241291,2041141,0,0,2201081,0,0,0,0,0,0,0,0,0,0,1160161,0,0,-3061190,0,3181030,0,0,0,2050020,0,0,0,0,0,0,0,0,0,3200201,0,2041090
15,52,912.695435574278,0,0,504115.883557046,504116.930663949,1,75,3,1,0,3,7,4292151,10371131,8200101,1151031,0,0,-3111041,0,0,0,1181110,0,0,0,0,0,4160080,4201040,0,0,0,2010011,0,4190011,0,0,0,0,0,0,4010090,0,1151031,0,0,0,0,0,0,0
15,53,1021.53159846785,1,0,504118.871738745,504119.918740938,1,75,3,1,1,7,3,4030190,0,3152202,1090090,0,0,0,0,0,0,-4030190,0,0,0,0,0,0,0,0,0,0,0,0,0,0,0,0,0,1061031,0,2091171,0,0,0,1090090,0,0,0,0,0
15,54,918.970684229862,1,0,504122.130447524,504123.177469351,1,75,3,1,1,5,3,6181181,0,0,6290191,0,0,3161041,0,-3020140,0,0,0,0,0,0,0,0,0,0,0,0,0,0,0,0,0,0,0,0,0,0,0,0,4180020,0,0,0,2110171,0,0
15,55,628.120744309854,1,0,504125.295062991,504126.342090977,1,75,3,0,1,32,3,0,0,2170062,7181331,0,0,0,0,0,0,0,0,0,0,0,0,0,0,0,0,0,0,1110051,1060011,0,0,0,0,0,0,0,0,3120130,0,0,-4061201,0,0,0,0
15,56,803.859657607973,0,0,504128.071518085,504129.118514889,1,75,3,1,0,33,7,4181170,2201131,5261252,12262403,0,0,4181170,0,0,0,0,0,0,0,0,0,0,0,0,0,2201131,0,0,0,4181201,0,0,0,0,0,1080051,0,0,1070041,3030141,0,-4011081,4151140,0,0
15,57,587.454238324426,0,0,504131.106668486,504132.153698396,1,75,3,1,0,8,7,10371272,5301351,4091060,4211261,4120160,0,0,0,0,0,0,-2071081,4180031,0,3170151,0,0,0,0,2131200,0,0,4091060,0,0,0,0,0,0,0,0,0,0,0,0,0,0,1081121,0,3130140
15,58,1054.12778293248,1,0,504133.836005899,504134.883036579,1,75,3,0,1,34,7,8332161,6061231,2070021,4221211,0,3020011,0,0,0,2111020,0,0,3201130,0,3041131,3020100,0,0,0,0,0,0,0,2070021,0,0,0,0,0,0,0,0,0,0,0,0,0,-1031150,0,3190061
15,59,460.264676541556,0,0,504137.035932294,504138.082946421,1,75,3,1,0,21,3,5101210,0,1141080,4160151,0,0,3041030,0,2060180,0,0,0,0,0,0,0,0,0,0,0,0,0,0,0,-1141080,0,0,0,0,0,0,0,0,0,4160151,0,0,0,0,0
15,60,492.539803555701,1,0,504139.694666712,504140.741728189,1,75,3,0,1,23,3,4200050,0,6311181,4100141,0,0,0,0,0,0,4200050,0,0,0,0,0,0,0,0,0,0,0,3141030,0,0,0,-3170151,0,0,0,0,0,0,0,0,0,0,0,0,4100141
15,61,643.690105411224,0,0,504142.259364021,504143.306370064,1,75,3,0,0,26,7,0,4190071,15505681,1140111,0,0,0,0,0,0,0,0,0,0,0,0,0,4190071,0,0,0,0,0,2071160,3071140,0,4051090,0,3190150,-1041051,2081090,1140111,0,0,0,0,0,0,0,0
15,62,658.546903752722,0,0,504145.141578286,504146.188598572,1,75,3,1,0,17,7,9491240,14413444,1180071,0,0,4100050,2191140,0,0,0,0,3200050,0,4130071,0,0,0,3011081,0,4071101,-3201191,0,0,0,0,0,0,0,1180071,0,0,0,0,0,0,0,0,0,0,0
15,63,473.058084200602,0,0,504147.870907614,504148.917929826,1,75,3,1,0,10,3,0,6051251,3081051,3100160,0,0,0,0,0,0,0,0,0,-2040121,0,0,0,0,4011130,0,0,0,0,0,0,0,0,0,0,0,3081051,0,0,3100160,0,0,0,0,0,0
15,64,491.032296442427,0,0,504150.564957196,504151.611977867,1,75,3,1,0,20,3,5300322,0,5212150,0,3160131,0,0,0,0,0,0,2140191,0,0,0,0,0,0,0,0,0,0,0,-2071060,0,0,0,0,0,0,3141090,0,0,0,0,0,0,0,0,0
15,65,481.466016557533,0,0,504153.235465259,504154.282488241,1,75,3,1,0,27,7,10362633,1010140,4090051,8292062,4101171,0,0,0,0,1021201,0,1050160,4190101,0,0,0,0,0,0,0,0,1010140,0,0,0,0,0,0,0,0,-4090051,0,0,0,0,0,4101051,4191011,0,0
15,66,592.807505396195,1,0,504155.800088271,504156.847119722,1,75,3,0,1,24,3,2100141,3081060,6231090,0,0,0,2100141,0,0,0,0,0,0,0,3081060,0,0,0,0,0,0,0,0,3030050,0,0,0,-3201040,0,0,0,0,0,0,0,0,0,0,0,0
15,67,628.248936263844,0,0,504158.517669361,504159.564700042,1,75,3,1,0,6,3,3242321,0,0,4200130,1111071,0,0,1030100,0,-1101150,0,0,0,0,0,0,0,0,0,0,0,0,0,0,0,0,0,0,0,0,0,0,0,4200130,0,0,0,0,0,0
15,68,416.41146375332,0,0,504161.223476035,504162.270501711,1,75,3,0,0,9,7,4221110,6461261,6212211,4011130,2110050,0,0,0,0,0,0,0,-2111060,0,2171161,0,0,1120090,0,0,3170010,0,0,0,2081071,0,0,0,4131140,0,0,0,0,0,0,0,0,4011130,0,0
15,69,1125.0229634461,1,0,504163.705768986,504164.752805441,1,75,3,0,1,36,3,0,2120131,0,9431272,0,0,0,0,0,0,0,0,0,0,0,2120131,0,0,0,0,0,0,0,0,0,0,0,0,0,0,0,0,0,3150061,3181051,0,0,0,0,-3100160
15,70,585.211070778314,1,0,504167.011556951,504168.058584552,1,75,3,1,1,12,7,11252182,2342301,0,9270142,4071041,4101030,0,0,0,0,0,3080111,0,0,0,-1161191,0,0,0,0,1181110,0,0,0,0,0,0,0,0,0,0,4060090,2020031,3190021,0,0,0,0,0,0
15,71,959.126731962897,1,0,504169.752655306,504170.799672898,1,75,3,0,1,13,7,0,12313192,6422441,3011011,0,0,0,0,0,0,0,0,0,0,0,4171030,-4021121,0,4121041,0,0,0,2071050,1100200,2181011,0,0,0,0,0,1070180,0,0,0,0,0,0,0,3011011,0
15,72,646.494161046576,1,0,504172.917270773,504173.964298374,1,75,3,0,1,25,7,1100201,5352221,2330071,5372392,0,0,1100201,0,0,0,0,0,0,0,0,0,2151111,0,0,3201110,0,0,0,1170041,0,0,0,0,-1160030,0,0,2161171,1181100,0,0,2030121,0,0,0,0
15,73,513.738833775278,1,0,504180.222949409,504181.270005112,1,75,4,1,1,6,3,3242321,0,0,4200130,1111071,0,0,1030100,0,-1101150,0,0,0,0,0,0,0,0,0,0,0,0,0,0,0,0,0,0,0,0,0,0,0,4200130,0,0,0,0,0,0
15,74,1057.37146397587,0,0,504182.905231503,504183.952259104,1,75,4,1,0,27,7,10362633,1010140,4090051,8292062,4101171,0,0,0,0,1021201,0,1050160,4190101,0,0,0,0,0,0,0,0,1010140,0,0,0,0,0,0,0,0,-4090051,0,0,0,0,0,4101051,4191011,0,0
15,75,546.244167373516,0,0,504186.140439956,504187.187466402,1,75,4,0,0,25,3,0,3262382,4030181,4051170,0,0,0,0,0,0,0,0,0,0,2071201,0,0,0,0,0,1191181,0,0,0,0,0,0,0,-4030181,0,0,4051170,0,0,0,0,0,0,0,0
15,76,515.669412969146,1,1,504188.763932738,504189.810918378,1,75,4,1,0,17,7,9491240,14413444,1180071,0,0,4100050,2191140,0,0,0,0,3200050,0,4130071,0,0,0,3011081,0,4071101,-3201191,0,0,0,0,0,0,0,1180071,0,0,0,0,0,0,0,0,0,0,0
15,77,677.309901046101,1,0,504191.387341598,504192.434368814,1,75,4,1,1,20,3,5300322,0,5212150,0,3160131,0,0,0,0,0,0,2140191,0,0,0,0,0,0,0,0,0,0,0,-2071060,0,0,0,0,0,0,3141090,0,0,0,0,0,0,0,0,0
15,78,465.685311879497,0,0,504194.257866908,504195.30488065,1,75,4,0,0,9,7,8281222,0,5171161,7482361,3180021,3040100,0,0,0,0,0,0,-2061101,0,0,0,0,0,0,0,0,0,0,0,0,0,4160111,0,0,1011050,0,0,0,0,2181160,0,0,4110040,1191161,0
15,79,829.539633414242,0,0,504196.798969575,504197.845993711,1,75,4,1,0,3,7,4292151,10371131,8200101,1151031,0,0,-3111041,0,0,0,1181110,0,0,0,0,0,4160080,4201040,0,0,0,2010011,0,4190011,0,0,0,0,0,0,4010090,0,1151031,0,0,0,0,0,0,0
15,80,1252.92585784337,0,0,504199.857701913,504200.904729899,1,75,4,0,0,18,7,6531271,5203181,4141021,3150090,0,0,2151120,0,3180060,1200091,0,0,0,1121110,1051031,0,0,0,0,0,0,-3031040,0,0,0,0,4141021,0,0,0,0,3150090,0,0,0,0,0,0,0,0
15,81,1152.70011668326,1,0,504203.198790029,504204.245810315,1,75,4,1,1,33,7,4181170,2201131,5261252,12262403,0,0,4181170,0,0,0,0,0,0,0,0,0,0,0,0,0,2201131,0,0,0,4181201,0,0,0,0,0,1080051,0,0,1070041,3030141,0,-4011081,4151140,0,0
15,82,1138.8068756205,1,0,504206.5987406,504207.645738944,1,75,4,1,1,10,3,0,6051251,3081051,3100160,0,0,0,0,0,0,0,0,0,-2040121,0,0,0,0,4011130,0,0,0,0,0,0,0,0,0,0,0,3081051,0,0,3100160,0,0,0,0,0,0
15,83,519.016648526303,1,0,504209.904483524,504210.951498422,1,75,4,1,1,21,3,5101210,0,1141080,4160151,0,0,3041030,0,2060180,0,0,0,0,0,0,0,0,0,0,0,0,0,0,0,-1141080,0,0,0,0,0,0,0,0,0,4160151,0,0,0,0,0
15,84,443.111586093437,0,0,504212.657347441,504213.704370423,1,75,4,1,0,8,7,10371272,5301351,4091060,4211261,4120160,0,0,0,0,0,0,-2071081,4180031,0,3170151,0,0,0,0,2131200,0,0,4091060,0,0,0,0,0,0,0,0,0,0,0,0,0,0,1081121,0,3130140
15,85,711.524846265092,1,0,504215.280807116,504216.327827018,1,75,4,0,1,26,3,4080040,4131111,1160021,4061081,0,0,0,0,0,0,0,0,4080040,0,4131111,0,0,0,0,0,0,0,0,0,0,0,0,0,0,-1160021,0,0,0,0,0,4061081,0,0,0,0
15,86,610.78402743442,0,0,504218.092481904,504219.139507965,1,75,4,1,0,5,3,6181181,0,0,6290191,0,0,3161041,0,-3020140,0,0,0,0,0,0,0,0,0,0,0,0,0,0,0,0,0,0,0,0,0,0,0,0,4180020,0,0,0,2110171,0,0
15,87,505.961082526483,0,0,504220.845348901,504221.892374962,1,75,4,0,0,2,3,7110321,0,0,2222142,0,-3060181,4050140,0,0,0,0,0,0,0,0,0,0,0,0,0,0,0,0,0,0,0,0,0,0,0,0,0,1061101,0,1161041,0,0,0,0,0
15,88,585.108286177274,1,0,504223.598212818,504224.645238879,1,75,4,1,1,7,3,4030190,0,3152202,1090090,0,0,0,0,0,0,-4030190,0,0,0,0,0,0,0,0,0,0,0,0,0,0,0,0,0,1061031,0,2091171,0,0,0,1090090,0,0,0,0,0
15,89,871.831059572287,1,0,504226.280549962,504227.327551386,1,75,4,0,1,36,3,2171070,4131100,0,4271211,0,0,0,0,2171070,0,0,0,0,0,0,4131100,0,0,0,0,0,0,0,0,0,0,0,0,0,0,0,0,0,0,3200130,0,0,0,0,-1071081
15,90,716.326849302277,0,0,504229.351000898,504230.398019645,1,75,4,0,0,23,7,10520333,5172151,5071140,3091111,0,3190081,0,0,0,3130101,4200151,0,0,0,0,2021120,0,0,0,0,0,3151031,0,0,0,0,-4040070,0,1031070,0,0,3091111,0,0,0,0,0,0,0,0
15,91,1564.52827318572,1,0,504232.256801721,504233.303824317,1,75,4,0,1,13,7,4180191,6262413,3332041,5192150,0,0,0,0,0,0,0,4180191,0,0,1031121,0,-1130181,4101111,0,0,0,0,2151030,0,0,0,1181011,0,0,0,0,0,0,0,0,0,0,3041020,0,2151130
15,92,1038.23543951148,0,0,504236.044930757,504237.091954123,1,75,4,0,0,31,7,3232250,4101291,5280300,2060201,0,1131050,0,0,0,0,0,0,2101200,0,3061201,0,1040090,0,0,0,0,0,0,0,0,4140140,0,0,0,1140160,0,0,0,1050061,-1010140,0,0,0,0,0
15,93,585.929407912772,1,0,504239.174257237,504240.221279448,1,75,4,0,1,34,3,0,0,6262280,7041141,0,0,0,0,0,0,0,0,0,0,0,0,0,0,0,0,0,0,0,3151130,3111150,0,0,0,0,0,0,0,0,0,0,3031101,0,-4010040,0,0
15,94,1175.67073722603,0,0,504241.915351357,504242.962382808,1,75,4,0,0,32,7,4222120,0,8172120,12404451,0,0,0,0,0,3101090,0,0,1121030,0,0,0,0,0,0,0,0,0,0,0,0,0,0,4061030,4111090,0,0,0,0,0,1131130,-4041121,3061060,0,0,4171140
15,95,839.50049825944,1,0,504245.350550109,504246.397579249,1,75,4,0,1,24,3,0,1010081,4181040,7331202,0,0,0,0,0,0,0,0,0,1010081,0,0,0,0,0,0,0,0,0,0,0,0,0,-4181040,0,0,0,0,0,0,0,0,4200031,3131171,0,0
15,96,763.32673302386,1,0,504248.432817806,504249.479842327,1,75,4,1,1,12,7,11252182,2342301,0,9270142,4071041,4101030,0,0,0,0,0,3080111,0,0,0,-1161191,0,0,0,0,1181110,0,0,0,0,0,0,0,0,0,0,4060090,2020031,3190021,0,0,0,0,0,0
15,97,693.66958696628,1,0,504279.220193088,504280.267226849,1,75,5,0,1,9,3,1171140,9090311,0,0,0,0,0,0,0,0,0,0,-1171140,0,0,2010110,0,0,3050161,0,4030040,0,0,0,0,0,0,0,0,0,0,0,0,0,0,0,0,0,0,0
15,98,491.186665720306,0,0,504282.149530039,504283.196554945,1,75,5,1,0,10,3,0,6051251,3081051,3100160,0,0,0,0,0,0,0,0,0,-2040121,0,0,0,0,4011130,0,0,0,0,0,0,0,0,0,0,0,3081051,0,0,3100160,0,0,0,0,0,0
15,99,621.021294267848,0,0,504284.843561912,504285.890597982,1,75,5,1,0,3,7,4292151,10371131,8200101,1151031,0,0,-3111041,0,0,0,1181110,0,0,0,0,0,4160080,4201040,0,0,0,2010011,0,4190011,0,0,0,0,0,0,4010090,0,1151031,0,0,0,0,0,0,0
15,100,484.258138341829,0,0,504287.643492696,504288.690523377,1,75,5,1,0,20,3,5300322,0,5212150,0,3160131,0,0,0,0,0,0,2140191,0,0,0,0,0,0,0,0,0,0,0,-2071060,0,0,0,0,0,0,3141090,0,0,0,0,0,0,0,0,0
15,101,516.291894891765,0,0,504290.34930168,504291.396326586,1,75,5,0,0,25,3,0,7191312,7131261,0,0,0,0,0,0,0,0,0,0,0,3111181,0,0,0,0,0,0,4080131,0,0,0,0,0,3120101,-4011160,0,0,0,0,0,0,0,0,0,0,0
15,102,511.276623466983,1,0,504292.996291324,504294.043319695,1,75,5,1,1,17,7,9491240,14413444,1180071,0,0,4100050,2191140,0,0,0,0,3200050,0,4130071,0,0,0,3011081,0,4071101,-3201191,0,0,0,0,0,0,0,1180071,0,0,0,0,0,0,0,0,0,0,0
15,103,1228.75030944124,1,0,504295.619747149,504296.666767051,1,75,5,0,1,2,7,7362331,3281210,8262280,0,0,-1150061,0,4061170,2151100,0,0,0,0,0,0,0,0,0,0,0,1100170,2181040,0,0,3030090,2201120,0,3031070,0,0,0,0,0,0,0,0,0,0,0,0
15,104,604.508008866105,0,0,504299.04317187,504300.090199856,1,75,5,0,0,23,7,2130040,3031081,6401223,10291340,0,0,0,0,0,2130040,0,0,0,0,0,0,0,3031081,0,0,0,0,0,0,1100021,0,-1120071,0,4181131,0,0,0,0,4040090,0,0,2160200,4091050,0,0
15,105,630.596043250989,1,0,504301.796043101,504302.843061848,1,75,5,1,1,6,3,3242321,0,0,4200130,1111071,0,0,1030100,0,-1101150,0,0,0,0,0,0,0,0,0,0,0,0,0,0,0,0,0,0,0,0,0,0,0,4200130,0,0,0,0,0,0
15,106,581.275229866151,1,0,504304.537138762,504305.584168672,1,75,5,1,1,21,3,5101210,0,1141080,4160151,0,0,3041030,0,2060180,0,0,0,0,0,0,0,0,0,0,0,0,0,0,0,-1141080,0,0,0,0,0,0,0,0,0,4160151,0,0,0,0,0
15,107,1295.855934266,1,0,504307.313534572,504308.360554859,1,75,5,1,1,12,7,11252182,2342301,0,9270142,4071041,4101030,0,0,0,0,0,3080111,0,0,0,-1161191,0,0,0,0,1181110,0,0,0,0,0,0,0,0,0,0,4060090,2020031,3190021,0,0,0,0,0,0
15,108,1012.06925802398,1,0,504310.772262523,504311.819287044,1,75,5,0,1,26,7,2010200,3010140,6512262,4210271,0,2010200,0,0,0,0,0,0,0,0,0,0,0,0,3010140,0,0,0,0,1140020,0,0,2180020,0,0,-2031181,1161041,0,0,0,0,0,3170130,0,0,1040141
15,109,794.933182827663,1,0,504313.960407958,504315.007432094,1,75,5,1,1,7,3,4030190,0,3152202,1090090,0,0,0,0,0,0,-4030190,0,0,0,0,0,0,0,0,0,0,0,0,0,0,0,0,0,1061031,0,2091171,0,0,0,1090090,0,0,0,0,0
15,110,515.595115488395,0,0,504316.88978379,504317.93676712,1,75,5,1,0,8,7,10371272,5301351,4091060,4211261,4120160,0,0,0,0,0,0,-2071081,4180031,0,3170151,0,0,0,0,2131200,0,0,4091060,0,0,0,0,0,0,0,0,0,0,0,0,0,0,1081121,0,3130140
15,111,574.189638427924,0,0,504319.619074238,504320.666100684,1,75,5,1,0,5,3,6181181,0,0,6290191,0,0,3161041,0,-3020140,0,0,0,0,0,0,0,0,0,0,0,0,0,0,0,0,0,0,0,0,0,0,0,0,4180020,0,0,0,2110171,0,0
15,112,1104.23276177607,1,0,504322.3131192,504323.360135252,1,75,5,0,1,34,7,4131202,7150182,4051080,9352292,0,3091191,1040011,0,0,0,0,0,0,3030031,0,0,0,0,0,4120151,0,0,0,0,0,4051080,0,0,0,0,0,4191181,0,0,0,3011021,0,-2150090,0,0
15,113,633.414342417382,0,0,504325.618907165,504326.665934381,1,75,5,1,0,27,7,10362633,1010140,4090051,8292062,4101171,0,0,0,0,1021201,0,1050160,4190101,0,0,0,0,0,0,0,0,1010140,0,0,0,0,0,0,0,0,-4090051,0,0,0,0,0,4101051,4191011,0,0
15,114,740.071626321878,0,0,504328.348244578,504329.395269484,1,75,5,0,0,13,7,5162242,8330302,5321200,4181170,1111161,0,0,0,0,0,0,0,4051081,0,0,0,-4060021,0,2190091,2080190,0,0,1181100,0,0,0,0,0,4140100,0,0,4181170,0,0,0,0,0,0,0,0
15,115,667.365204484668,1,0,504331.206983153,504332.254009214,1,75,5,0,1,32,3,0,1020010,3181251,4061120,0,0,0,0,0,0,0,0,0,0,0,0,0,1020010,0,0,0,0,2040050,0,0,0,0,0,0,1141201,0,0,0,0,0,-4061120,0,0,0,0
15,116,735.531011829153,0,0,504334.112789365,504335.159813501,1,75,5,0,0,24,3,0,10512302,1160091,0,0,0,0,0,0,0,0,0,0,0,0,0,3141020,0,3170131,0,0,4201151,0,0,0,0,0,-1160091,0,0,0,0,0,0,0,0,0,0,0,0
15,117,794.426189269871,0,0,504336.959766613,504338.006795754,1,75,5,1,0,33,7,4181170,2201131,5261252,12262403,0,0,4181170,0,0,0,0,0,0,0,0,0,0,0,0,0,2201131,0,0,0,4181201,0,0,0,0,0,1080051,0,0,1070041,3030141,0,-4011081,4151140,0,0
15,118,1214.14835524047,0,0,504339.994983612,504341.042005053,1,75,5,0,0,36,7,0,7052270,0,16702891,0,0,0,0,0,0,0,0,0,0,0,0,0,3011160,4041110,0,0,0,0,0,0,0,0,0,0,0,0,1131090,3150161,4190150,0,0,0,4040190,1110100,-3081200
15,119,1126.63864460774,1,0,504343.312538293,504344.359560505,1,75,5,0,1,31,3,4130090,6151220,0,4200190,0,0,0,0,0,4130090,0,0,0,0,0,3071110,3080110,0,0,0,0,0,0,0,0,0,0,0,0,0,0,0,0,0,-4200190,0,0,0,0,0
15,120,891.100665496197,1,0,504346.688908081,504347.735932602,1,75,5,0,1,18,3,0,4131141,7150201,3021130,0,0,0,0,0,0,0,0,0,0,0,0,0,0,0,0,0,-4131141,0,0,0,3110110,0,0,0,0,4040091,0,0,0,0,3021130,0,0,0,0
15,121,502.209637954365,0,0,504355.582780118,504356.629802715,1,75,6,1,0,8,7,10371272,5301351,4091060,4211261,4120160,0,0,0,0,0,0,-2071081,4180031,0,3170151,0,0,0,0,2131200,0,0,4091060,0,0,0,0,0,0,0,0,0,0,0,0,0,0,1081121,0,3130140
15,122,669.236499757972,0,0,504358.335641726,504359.382670096,1,75,6,1,0,6,3,3242321,0,0,4200130,1111071,0,0,1030100,0,-1101150,0,0,0,0,0,0,0,0,0,0,0,0,0,0,0,0,0,0,0,0,0,0,0,4200130,0,0,0,0,0,0
15,123,660.0316981785,0,0,504361.170861881,504362.217884092,1,75,6,0,0,34,3,0,3100091,0,3591100,0,0,0,0,0,0,0,0,0,0,3100091,0,0,0,0,0,0,0,0,0,0,0,0,0,0,0,0,0,0,0,0,1190050,0,-1200030,0,1201020
15,124,415.738167008385,0,0,504364.053134275,504365.100188823,1,75,6,1,0,10,3,0,6051251,3081051,3100160,0,0,0,0,0,0,0,0,0,-2040121,0,0,0,0,4011130,0,0,0,0,0,0,0,0,0,0,0,3081051,0,0,3100160,0,0,0,0,0,0
15,125,935.219501436222,0,0,504366.570715442,504367.617736498,1,75,6,0,0,13,3,0,6190281,3141121,1020141,0,0,0,0,0,0,0,0,0,0,0,0,-4120161,0,2070120,0,0,0,0,0,0,0,0,0,0,3141121,0,0,0,0,0,1020141,0,0,0,0
15,126,1066.87999970745,1,0,504369.605920892,504370.652938099,1,75,6,0,1,31,3,1080141,3061051,1061060,2110071,0,0,0,0,0,0,1080141,0,0,0,0,3061051,0,0,0,0,0,0,0,0,0,0,1061060,0,0,0,0,0,0,0,-2110071,0,0,0,0,0
15,127,708.174530998804,0,0,504372.817600915,504373.864625051,1,75,6,0,0,9,7,8531412,9382512,2081081,2030050,0,1170191,4180110,0,0,0,0,0,-3181111,0,4171160,0,4091161,0,0,0,1120191,0,0,2081081,0,0,0,0,0,0,0,2030050,0,0,0,0,0,0,0,0
15,128,613.548047083896,1,0,504375.676343725,504376.723359777,1,75,6,0,1,26,7,5131160,3200160,1190130,10282562,0,3071110,0,0,0,0,2060050,0,0,0,0,0,0,0,3200160,0,0,0,0,0,0,0,0,0,0,-1190130,0,3050190,3041060,0,0,0,0,1170111,3021201,0
15,129,547.785936039872,1,0,504378.48805008,504379.535050349,1,75,6,1,1,17,7,9491240,14413444,1180071,0,0,4100050,2191140,0,0,0,0,3200050,0,4130071,0,0,0,3011081,0,4071101,-3201191,0,0,0,0,0,0,0,1180071,0,0,0,0,0,0,0,0,0,0,0
15,130,936.877143278252,1,0,504381.240890129,504382.287911956,1,75,6,0,1,32,7,4191351,7201251,3242191,6311090,1151180,0,0,0,3040171,0,0,0,0,0,3110100,4091151,0,0,0,0,0,0,0,1101090,2141101,0,0,0,0,0,0,0,0,3200040,0,-3111050,0,0,0,0
15,131,1361.29275331041,0,0,504384.4055106,504385.452535121,1,75,6,1,0,12,7,11252182,2342301,0,9270142,4071041,4101030,0,0,0,0,0,3080111,0,0,0,-1161191,0,0,0,0,1181110,0,0,0,0,0,0,0,0,0,0,4060090,2020031,3190021,0,0,0,0,0,0
15,132,920.032791502308,1,0,504387.993644718,504389.040662694,1,75,6,1,1,33,7,4181170,2201131,5261252,12262403,0,0,4181170,0,0,0,0,0,0,0,0,0,0,0,0,0,2201131,0,0,0,4181201,0,0,0,0,0,1080051,0,0,1070041,3030141,0,-4011081,4151140,0,0
15,133,869.649870786816,1,0,504391.075924348,504392.122935781,1,75,6,1,1,7,3,4030190,0,3152202,1090090,0,0,0,0,0,0,-4030190,0,0,0,0,0,0,0,0,0,0,0,0,0,0,0,0,0,1061031,0,2091171,0,0,0,1090090,0,0,0,0,0
15,134,552.831619395874,1,0,504394.181705076,504395.228727288,1,75,6,1,1,20,3,5300322,0,5212150,0,3160131,0,0,0,0,0,0,2140191,0,0,0,0,0,0,0,0,0,0,0,-2071060,0,0,0,0,0,0,3141090,0,0,0,0,0,0,0,0,0
15,135,716.185953642707,0,0,504396.899277312,504397.946511252,1,75,6,1,0,3,7,4292151,10371131,8200101,1151031,0,0,-3111041,0,0,0,1181110,0,0,0,0,0,4160080,4201040,0,0,0,2010011,0,4190011,0,0,0,0,0,0,4010090,0,1151031,0,0,0,0,0,0,0
15,136,989.977888355497,1,0,504399.734490153,504400.781518139,1,75,6,1,1,27,7,10362633,1010140,4090051,8292062,4101171,0,0,0,0,1021201,0,1050160,4190101,0,0,0,0,0,0,0,0,1010140,0,0,0,0,0,0,0,0,-4090051,0,0,0,0,0,4101051,4191011,0,0
15,137,586.845999932848,1,0,504402.922638668,504403.969663574,1,75,6,0,1,2,7,7221212,3061110,3301321,11270391,0,-3090131,0,0,0,0,0,0,4131081,0,0,0,3061110,0,0,0,0,0,0,2201180,0,0,0,1100141,0,0,0,0,0,0,0,0,4040191,3160090,0,4070110
15,138,575.982786598615,1,0,504405.628449192,504406.675473328,1,75,6,0,1,25,3,0,7061381,2031181,2110160,0,0,0,0,0,0,0,0,0,0,4020201,0,0,0,0,0,0,3041180,0,0,0,0,0,0,-2031181,0,0,0,0,0,0,2110160,0,0,0,0
15,139,599.27061497001,1,0,504408.440133989,504409.487157355,1,75,6,0,1,24,3,8231321,0,2080180,4070061,0,0,0,0,0,4060131,4171190,0,0,0,0,0,0,0,0,0,0,0,0,0,0,0,0,-2080180,0,0,0,4070061,0,0,0,0,0,0,0,0
15,140,929.112865647767,0,0,504411.228290742,504412.275312954,1,75,6,0,0,36,7,3261291,1161201,0,15443362,0,0,0,0,2200120,0,0,1061171,0,0,0,0,0,0,0,1161201,0,0,0,0,0,0,0,0,0,0,0,4021170,4100130,0,0,2181020,0,3021021,0,-2120021
15,141,458.990070852451,1,0,504414.322327081,504415.369343133,1,75,6,1,1,21,3,5101210,0,1141080,4160151,0,0,3041030,0,2060180,0,0,0,0,0,0,0,0,0,0,0,0,0,0,0,-1141080,0,0,0,0,0,0,0,0,0,4160151,0,0,0,0,0
15,142,561.24340131646,1,1,504416.87499004,504417.922214056,1,75,6,0,0,18,3,3090070,4081041,3181031,1111100,0,0,0,0,0,0,0,0,3090070,0,0,0,0,0,0,0,0,-4081041,0,3181031,0,0,0,0,0,0,0,1111100,0,0,0,0,0,0,0,0
15,143,466.35129430797,0,0,504419.628053837,504420.675079898,1,75,6,1,0,5,3,6181181,0,0,6290191,0,0,3161041,0,-3020140,0,0,0,0,0,0,0,0,0,0,0,0,0,0,0,0,0,0,0,0,0,0,0,0,4180020,0,0,0,2110171,0,0
15,144,533.221323043108,0,0,504422.169161123,504423.216187569,1,75,6,0,0,23,7,4091170,10233523,2211331,1011111,0,0,4091170,0,0,0,0,0,0,0,0,0,1010101,4061181,2021151,0,0,3141090,1080141,0,0,0,-1131190,0,0,0,0,0,0,0,0,0,0,0,0,1011111
15,145,886.430319107603,1,0,504437.0158023,504438.062831826,1,75,7,1,1,27,7,10362633,1010140,4090051,8292062,4101171,0,0,0,0,1021201,0,1050160,4190101,0,0,0,0,0,0,0,0,1010140,0,0,0,0,0,0,0,0,-4090051,0,0,0,0,0,4101051,4191011,0,0
15,146,557.254820829257,1,0,504440.051019684,504441.09804844,1,75,7,1,1,8,7,10371272,5301351,4091060,4211261,4120160,0,0,0,0,0,0,-2071081,4180031,0,3170151,0,0,0,0,2131200,0,0,4091060,0,0,0,0,0,0,0,0,0,0,0,0,0,0,1081121,0,3130140
15,147,552.700732660014,0,0,504442.827418959,504443.874431932,1,75,7,1,0,21,3,5101210,0,1141080,4160151,0,0,3041030,0,2060180,0,0,0,0,0,0,0,0,0,0,0,0,0,0,0,-1141080,0,0,0,0,0,0,0,0,0,4160151,0,0,0,0,0
15,148,609.072490944527,0,0,504445.486157612,504446.533184058,1,75,7,1,0,10,3,0,6051251,3081051,3100160,0,0,0,0,0,0,0,0,0,-2040121,0,0,0,0,4011130,0,0,0,0,0,0,0,0,0,0,0,3081051,0,0,3100160,0,0,0,0,0,0
15,149,498.341935162898,0,0,504448.297847413,504449.344871165,1,75,7,0,0,13,3,1140080,3030130,4150150,1141201,0,0,1140080,0,0,0,0,0,0,0,0,0,-3030130,0,0,0,0,0,4150150,0,0,0,0,0,0,0,0,0,0,0,1141201,0,0,0,0,0
15,150,440.049221622758,0,0,504450.886006938,504451.933034924,1,75,7,1,0,7,3,4030190,0,3152202,1090090,0,0,0,0,0,0,-4030190,0,0,0,0,0,0,0,0,0,0,0,0,0,0,0,0,0,1061031,0,2091171,0,0,0,1090090,0,0,0,0,0
15,151,598.540344042704,1,0,504453.462434777,504454.509429657,1,75,7,0,1,18,3,4070160,2120051,0,5290091,0,0,0,0,0,0,4070160,0,0,0,0,0,0,0,0,0,0,-2120051,0,0,0,0,0,0,0,0,0,0,4140010,0,0,0,1150081,0,0,0
15,152,535.937992506661,0,0,504456.179978911,504457.227005357,1,75,7,0,0,2,3,2201171,4080091,2181331,0,0,-2201171,0,0,0,0,0,0,0,4080091,0,0,0,0,0,0,0,0,0,0,1071181,0,1110150,0,0,0,0,0,0,0,0,0,0,0,0,0
15,153,680.052747833543,1,0,504458.874035422,504459.92104031,1,75,7,0,1,32,3,3080111,3140121,0,1040060,0,0,0,0,0,0,0,3080111,0,0,1100071,0,0,0,2040050,0,0,0,0,0,0,0,0,0,0,0,0,0,0,0,0,-1040060,0,0,0,0
15,154,1239.86451735254,0,0,504461.673946573,504462.722104419,1,75,7,1,0,12,7,11252182,2342301,0,9270142,4071041,4101030,0,0,0,0,0,3080111,0,0,0,-1161191,0,0,0,0,1181110,0,0,0,0,0,0,0,0,0,0,4060090,2020031,3190021,0,0,0,0,0,0
15,155,575.144726608414,0,0,504464.979734538,504466.026755595,1,75,7,1,0,20,3,5300322,0,5212150,0,3160131,0,0,0,0,0,0,2140191,0,0,0,0,0,0,0,0,0,0,0,-2071060,0,0,0,0,0,0,3141090,0,0,0,0,0,0,0,0,0
15,156,702.096382447053,0,0,504467.720837898,504468.767860879,1,75,7,0,0,23,7,4192322,8361341,3080120,4171170,0,0,0,0,0,0,3131131,1061191,0,4190071,0,0,0,2101190,0,0,2070080,0,0,0,0,0,-3080120,0,0,0,0,0,0,0,0,0,3051160,0,1120010,0
15,157,735.997584532015,0,0,504470.661925782,504471.708951073,1,75,7,0,0,34,7,7301282,2120180,6231201,10382362,0,0,0,3160141,0,4141141,0,0,0,2120180,0,0,0,0,0,0,0,0,0,2191111,0,0,0,4040090,0,0,0,4171151,2080040,0,0,0,0,-4131171,0,0
15,158,704.948943166528,0,0,504473.461848482,504474.508878008,1,75,7,1,0,6,3,3242321,0,0,4200130,1111071,0,0,1030100,0,-1101150,0,0,0,0,0,0,0,0,0,0,0,0,0,0,0,0,0,0,0,0,0,0,0,4200130,0,0,0,0,0,0
15,159,803.777660941705,1,0,504476.297079416,504477.344098548,1,75,7,0,1,24,7,0,7341261,10371202,8472382,0,0,0,0,0,0,0,0,0,0,0,0,0,4141190,3200071,0,0,0,4150041,0,0,0,0,-3031131,0,3190030,0,0,2140131,0,0,0,0,2151140,0,4181111
15,160,981.575730431359,1,0,504479.191165877,504480.238131114,1,75,7,0,1,9,7,7391423,0,8261282,3231231,0,1030161,4170141,0,0,0,0,0,-2191121,0,0,0,0,0,0,0,0,0,0,0,0,3061101,0,0,0,4190111,1010070,2151150,0,0,0,0,1080081,0,0,0
15,161,1040.09172134101,0,0,504482.402775068,504483.449802668,1,75,7,1,0,3,7,4292151,10371131,8200101,1151031,0,0,-3111041,0,0,0,1181110,0,0,0,0,0,4160080,4201040,0,0,0,2010011,0,4190011,0,0,0,0,0,0,4010090,0,1151031,0,0,0,0,0,0,0
15,162,872.932817903347,1,0,504485.496815641,504486.543826304,1,75,7,0,1,26,3,0,2020110,3070061,7230190,0,0,0,0,0,0,0,0,0,0,0,2020110,0,0,0,0,0,0,0,0,0,0,0,0,0,-3070061,0,0,0,0,4110100,0,0,0,0,3120090
15,163,1018.07695883326,1,0,504488.602600218,504489.649627819,1,75,7,1,1,33,7,4181170,2201131,5261252,12262403,0,0,4181170,0,0,0,0,0,0,0,0,0,0,0,0,0,2201131,0,0,0,4181201,0,0,0,0,0,1080051,0,0,1070041,3030141,0,-4011081,4151140,0,0
15,164,1245.64894079231,1,0,504491.826072366,504492.87306609,1,75,7,0,1,31,7,4131141,8271160,3151100,8142312,0,0,0,0,0,0,0,0,4131141,0,0,2121030,0,0,3070050,0,0,3080080,0,0,0,0,0,0,3151100,0,0,0,0,0,-2031171,0,2021130,0,4090011,0
15,165,1164.52650236897,1,0,504495.32006505,504496.367089956,1,75,7,0,1,36,7,4130130,15632573,0,4251271,0,4130130,0,0,0,0,0,0,0,0,3171150,4200041,0,1040151,0,3170051,4051180,0,0,0,0,0,0,0,0,0,0,0,0,0,0,0,1080141,0,0,-3171130
15,166,598.667766083963,0,0,504498.578882004,504499.62585802,1,75,7,1,0,5,3,6181181,0,0,6290191,0,0,3161041,0,-3020140,0,0,0,0,0,0,0,0,0,0,0,0,0,0,0,0,0,0,0,0,0,0,0,0,4180020,0,0,0,2110171,0,0
15,167,768.410142511129,1,0,504501.30813511,504502.355156552,1,75,7,0,1,25,3,3071181,4110180,6131062,0,0,3071181,0,0,0,0,0,0,0,0,0,0,0,0,4110180,0,0,0,0,0,3021021,0,0,0,-3110041,0,0,0,0,0,0,0,0,0,0,0
15,168,667.48531232588,1,0,504504.308056578,504505.355073785,1,75,7,1,1,17,7,9491240,14413444,1180071,0,0,4100050,2191140,0,0,0,0,3200050,0,4130071,0,0,0,3011081,0,4071101,-3201191,0,0,0,0,0,0,0,1180071,0,0,0,0,0,0,0,0,0,0,0
15,169,1056.98842782294,0,0,504512.131353337,504513.178384403,1,75,8,0,0,34,7,14553733,2180111,0,5291140,3131141,0,0,4080170,1070121,0,0,4151150,2121151,0,0,0,0,0,0,0,0,2180111,0,0,0,0,0,0,0,0,0,0,0,0,0,0,0,-1100090,0,4191050
15,170,528.6476018955,0,0,504515.354822021,504516.401824214,1,75,8,0,0,25,7,9162441,1090151,8102162,4290061,0,0,4031100,0,0,3041151,2090190,0,0,0,0,0,0,0,0,0,0,1090151,0,0,0,0,0,4061131,-4041031,0,0,3170051,0,0,0,0,0,1120010,0,0
15,171,733.095363830216,0,0,504517.978254363,504519.025285814,1,75,8,1,0,17,7,9491240,14413444,1180071,0,0,4100050,2191140,0,0,0,0,3200050,0,4130071,0,0,0,3011081,0,4071101,-3201191,0,0,0,0,0,0,0,1180071,0,0,0,0,0,0,0,0,0,0,0
15,172,488.037300179712,1,0,504520.766410731,504521.813439487,1,75,8,1,1,8,7,10371272,5301351,4091060,4211261,4120160,0,0,0,0,0,0,-2071081,4180031,0,3170151,0,0,0,0,2131200,0,0,4091060,0,0,0,0,0,0,0,0,0,0,0,0,0,0,1081121,0,3130140
15,173,657.617608027067,0,0,504523.401638278,504524.448717464,1,75,8,1,0,7,3,4030190,0,3152202,1090090,0,0,0,0,0,0,-4030190,0,0,0,0,0,0,0,0,0,0,0,0,0,0,0,0,0,1061031,0,2091171,0,0,0,1090090,0,0,0,0,0
15,174,1043.35195571184,1,0,504526.178033319,504527.225058225,1,75,8,1,1,5,3,6181181,0,0,6290191,0,0,3161041,0,-3020140,0,0,0,0,0,0,0,0,0,0,0,0,0,0,0,0,0,0,0,0,0,0,0,0,4180020,0,0,0,2110171,0,0
15,175,731.672933092341,0,0,504529.448562709,504530.495547579,1,75,8,0,0,32,3,4110080,2031171,1141170,2100201,0,0,0,0,0,0,4110080,0,0,0,0,0,0,0,0,0,2031171,0,0,0,0,0,1141170,0,0,0,0,0,0,0,0,-2100201,0,0,0,0
15,176,578.393027186394,0,0,504532.271976497,504533.319001018,1,75,8,1,0,20,3,5300322,0,5212150,0,3160131,0,0,0,0,0,0,2140191,0,0,0,0,0,0,0,0,0,0,0,-2071060,0,0,0,0,0,0,3141090,0,0,0,0,0,0,0,0,0
15,177,644.759141956456,1,0,504535.048366918,504536.095386435,1,75,8,0,1,31,7,8171142,11610271,0,5262301,0,0,0,4030071,4141071,0,0,0,0,4130121,1090070,0,0,2190060,0,0,0,4200020,0,0,0,0,0,0,0,0,0,0,0,0,-4121160,0,0,0,0,1141141
15,178,1248.32518940093,1,0,504537.871821512,504538.918846418,1,75,8,0,1,2,3,5192191,6301101,0,0,0,-2141111,0,0,0,0,0,0,3051080,0,0,0,4120021,0,2181080,0,0,0,0,0,0,0,0,0,0,0,0,0,0,0,0,0,0,0,0,0
15,179,540.420477977023,1,0,504541.318781975,504542.365808036,1,75,8,1,1,21,3,5101210,0,1141080,4160151,0,0,3041030,0,2060180,0,0,0,0,0,0,0,0,0,0,0,0,0,0,0,-1141080,0,0,0,0,0,0,0,0,0,4160151,0,0,0,0,0
15,180,1823.79255117849,1,0,504543.989297353,504545.036382313,1,75,8,0,1,18,7,7460421,4081111,4011090,3311090,3090180,1170201,2130030,0,0,0,0,0,1070010,0,0,0,0,0,0,0,0,-4081111,0,0,0,0,4011090,0,0,0,0,0,0,0,2190010,0,0,0,0,1121080
15,181,550.008315651212,1,0,504548.048011214,504549.095029961,1,75,8,1,1,10,3,0,6051251,3081051,3100160,0,0,0,0,0,0,0,0,0,-2040121,0,0,0,0,4011130,0,0,0,0,0,0,0,0,0,0,0,3081051,0,0,3100160,0,0,0,0,0,0
15,182,757.358298345935,0,0,504550.706758336,504551.753780932,1,75,8,1,0,3,7,4292151,10371131,8200101,1151031,0,0,-3111041,0,0,0,1181110,0,0,0,0,0,4160080,4201040,0,0,0,2010011,0,4190011,0,0,0,0,0,0,4010090,0,1151031,0,0,0,0,0,0,0
15,183,979.20745058218,0,0,504553.647854304,504554.694873051,1,75,8,1,0,27,7,10362633,1010140,4090051,8292062,4101171,0,0,0,0,1021201,0,1050160,4190101,0,0,0,0,0,0,0,0,1010140,0,0,0,0,0,0,0,0,-4090051,0,0,0,0,0,4101051,4191011,0,0
15,184,900.423650047742,0,0,504556.75364966,504557.800668407,1,75,8,1,0,33,7,4181170,2201131,5261252,12262403,0,0,4181170,0,0,0,0,0,0,0,0,0,0,0,0,0,2201131,0,0,0,4181201,0,0,0,0,0,1080051,0,0,1070041,3030141,0,-4011081,4151140,0,0
15,185,690.750812995248,1,0,504559.765377496,504560.812356977,1,75,8,0,1,26,7,3100051,7243622,4261091,0,0,0,0,3100051,0,0,0,0,0,0,1141080,0,2011131,1021160,2030110,0,1040141,0,0,0,0,0,0,0,0,-2131040,2130051,0,0,0,0,0,0,0,0,0
15,186,975.812094926368,1,0,504562.624076805,504563.671090548,1,75,8,0,1,24,3,2050061,0,4211362,2170050,0,0,0,0,0,2050061,0,0,0,0,0,0,0,0,0,0,0,0,0,3141191,0,0,0,-1070171,0,0,0,0,0,2170050,0,0,0,0,0,0
15,187,873.960663622711,0,0,504565.729872547,504566.776893988,1,75,8,1,0,12,7,11252182,2342301,0,9270142,4071041,4101030,0,0,0,0,0,3080111,0,0,0,-1161191,0,0,0,0,1181110,0,0,0,0,0,0,0,0,0,0,4060090,2020031,3190021,0,0,0,0,0,0
15,188,868.730199057609,1,0,504568.812169501,504569.859156681,1,75,8,1,1,6,3,3242321,0,0,4200130,1111071,0,0,1030100,0,-1101150,0,0,0,0,0,0,0,0,0,0,0,0,0,0,0,0,0,0,0,0,0,0,0,4200130,0,0,0,0,0,0
15,189,875.907026289497,1,0,504571.870872583,504572.91788594,1,75,8,0,1,36,3,0,1150050,1121180,5361261,0,0,0,0,0,0,0,0,0,0,0,0,1150050,0,0,0,0,0,1121180,0,0,0,0,0,0,0,0,0,0,0,0,1170111,0,0,0,-4191150
15,190,1023.37017201353,1,0,504574.988434271,504576.035462642,1,75,8,0,1,13,7,1160201,10251421,5361220,4162230,0,0,1160201,0,0,0,0,0,0,3061181,0,0,-3150160,0,0,0,4040080,0,4160130,1201090,0,0,0,0,0,0,0,0,0,0,1021140,0,0,0,0,3141090
15,191,533.51312346058,0,0,504578.235401741,504579.282431267,1,75,8,0,0,9,3,4100190,1131010,4021100,0,0,0,0,0,0,0,3060020,0,-1040170,0,0,1131010,0,0,0,0,0,0,0,0,0,4021100,0,0,0,0,0,0,0,0,0,0,0,0,0,0
15,192,1180.41538103716,1,0,504580.988265658,504582.035293644,1,75,8,0,1,23,3,0,6261090,8301311,0,0,0,0,0,0,0,0,0,0,0,0,0,0,3111050,0,3150040,0,0,0,0,0,0,-4110131,4191180,0,0,0,0,0,0,0,0,0,0,0,0
15,193,785.127842158545,0,0,504609.340418321,504610.387440148,1,75,9,0,0,13,7,7220260,2100181,8462551,2222151,0,0,0,4100150,0,0,0,3120110,0,0,0,0,-2100181,0,0,0,0,0,4181180,0,0,0,0,0,2201190,2080181,0,1171031,0,0,0,0,0,1051120,0,0
15,194,458.673247951083,1,0,504612.31681444,504613.363832802,1,75,9,1,1,17,7,9491240,14413444,1180071,0,0,4100050,2191140,0,0,0,0,3200050,0,4130071,0,0,0,3011081,0,4071101,-3201191,0,0,0,0,0,0,0,1180071,0,0,0,0,0,0,0,0,0,0,0
15,195,749.525882594753,0,0,504614.857905173,504615.904937008,1,75,9,1,0,6,3,3242321,0,0,4200130,1111071,0,0,1030100,0,-1101150,0,0,0,0,0,0,0,0,0,0,0,0,0,0,0,0,0,0,0,0,0,0,0,4200130,0,0,0,0,0,0
15,196,1016.87010622118,0,0,504617.82253496,504618.869552167,1,75,9,0,0,36,7,2270170,3151021,4260121,7143273,0,0,0,0,0,1080040,1190130,0,0,0,0,0,3151021,0,0,0,0,0,0,0,0,0,1120051,3140070,0,0,0,0,2031081,0,3081121,0,0,0,0,-2031071
15,197,485.042303858791,0,0,504621.081265297,504622.128288663,1,75,9,1,0,20,3,5300322,0,5212150,0,3160131,0,0,0,0,0,0,2140191,0,0,0,0,0,0,0,0,0,0,0,-2071060,0,0,0,0,0,0,3141090,0,0,0,0,0,0,0,0,0
15,198,552.801977319177,1,0,504623.810626962,504624.857623381,1,75,9,0,1,2,3,7252212,4110071,0,4010080,0,-4101141,0,0,0,0,3151071,0,0,0,0,4110071,0,0,0,0,0,0,0,0,0,0,0,0,0,0,0,0,0,0,0,0,4010080,0,0,0
15,199,477.009708469268,1,0,504626.575231804,504627.62225902,1,75,9,0,1,9,7,11624581,5251161,4040020,2091080,1121041,0,0,4161200,0,3141160,0,0,-3201180,2191110,0,0,0,0,0,0,3060051,0,0,4040020,0,0,0,0,0,0,0,0,0,0,0,0,0,0,2091080,0
15,200,740.362271899357,0,0,504629.139864439,504630.186893965,1,75,9,0,0,25,3,6301290,0,1191200,0,2021100,1100180,0,3180010,0,0,0,0,0,0,0,0,0,0,0,0,0,0,0,0,0,0,0,0,-1191200,0,0,0,0,0,0,0,0,0,0,0
15,201,595.146143226884,0,0,504632.022136063,504633.069169439,1,75,9,0,0,31,3,0,4010081,1061110,5061330,0,0,0,0,0,0,0,0,0,0,0,0,4010081,0,0,0,0,0,0,0,0,0,1061110,0,0,0,0,0,0,4040170,-1021160,0,0,0,0,0
15,202,586.437556368764,0,0,504634.739709069,504635.7867359,1,75,9,0,0,26,7,6262522,3060081,5202110,4220061,0,1041181,0,0,0,4151170,0,0,1070171,0,0,0,0,0,3060081,0,0,0,0,0,0,0,0,0,2191060,-3011050,0,0,0,0,0,0,1110030,0,3110031,0
15,203,921.403252519667,0,0,504637.480810889,504638.527829636,1,75,9,1,0,12,7,11252182,2342301,0,9270142,4071041,4101030,0,0,0,0,0,3080111,0,0,0,-1161191,0,0,0,0,1181110,0,0,0,0,0,0,0,0,0,0,4060090,2020031,3190021,0,0,0,0,0,0
15,204,668.022332887631,1,0,504640.563076661,504641.610098873,1,75,9,0,1,23,3,0,0,11371452,3171070,0,0,0,0,0,0,0,0,0,0,0,0,0,0,0,0,0,0,0,4190120,0,0,-4051151,0,0,3130181,0,3171070,0,0,0,0,0,0,0,0
15,205,466.334741038736,0,0,504643.374761073,504644.421784055,1,75,9,1,0,21,3,5101210,0,1141080,4160151,0,0,3041030,0,2060180,0,0,0,0,0,0,0,0,0,0,0,0,0,0,0,-1141080,0,0,0,0,0,0,0,0,0,4160151,0,0,0,0,0
15,206,640.04606497474,1,0,504645.904105878,504646.951130399,1,75,9,1,1,8,7,10371272,5301351,4091060,4211261,4120160,0,0,0,0,0,0,-2071081,4180031,0,3170151,0,0,0,0,2131200,0,0,4091060,0,0,0,0,0,0,0,0,0,0,0,0,0,0,1081121,0,3130140
15,207,646.692031004932,0,0,504648.680497839,504649.727519665,1,75,9,1,0,5,3,6181181,0,0,6290191,0,0,3161041,0,-3020140,0,0,0,0,0,0,0,0,0,0,0,0,0,0,0,0,0,0,0,0,0,0,0,0,4180020,0,0,0,2110171,0,0
15,208,595.930308743846,1,0,504651.445126933,504652.492146449,1,75,9,0,1,18,3,1131200,3230151,3041190,0,0,0,0,0,0,1131200,0,0,0,0,0,0,1030031,0,0,0,0,-2200120,0,0,0,0,0,0,0,0,3041190,0,0,0,0,0,0,0,0,0
15,209,915.372454095632,1,0,504654.268576137,504655.315598733,1,75,9,1,1,7,3,4030190,0,3152202,1090090,0,0,0,0,0,0,-4030190,0,0,0,0,0,0,0,0,0,0,0,0,0,0,0,0,0,1061031,0,2091171,0,0,0,1090090,0,0,0,0,0
15,210,551.649789209478,1,0,504657.268489905,504658.315515197,1,75,9,0,1,24,3,3121130,0,3321170,1091151,0,0,0,0,0,0,3121130,0,0,0,0,0,0,0,0,0,0,0,0,0,0,0,0,-2140030,0,1181140,0,0,0,0,0,0,0,1091151,0,0
15,211,762.218815390952,0,0,504659.950766611,504660.997792672,1,75,9,0,0,34,7,7212310,3170020,5240151,7151402,4111170,0,0,3101140,0,0,0,0,0,0,0,0,0,3170020,0,0,0,0,0,3100121,0,0,0,0,2140030,0,0,0,0,0,0,2070100,0,-1020201,4061101,0
15,212,630.243803956546,1,1,504662.844809186,504663.891832552,1,75,9,1,0,33,7,4181170,2201131,5261252,12262403,0,0,4181170,0,0,0,0,0,0,0,0,0,0,0,0,0,2201131,0,0,0,4181201,0,0,0,0,0,1080051,0,0,1070041,3030141,0,-4011081,4151140,0,0
15,213,615.517507423647,1,0,504665.609428271,504666.656459721,1,75,9,0,1,32,7,6191131,5401041,3190151,8391253,0,0,0,0,3061040,0,3130091,0,0,0,0,0,0,2200030,0,3201011,0,0,0,0,0,0,0,3190151,0,0,0,1070021,0,0,0,-3141081,4180151,0,0,0
15,214,811.803327000234,1,0,504668.374066989,504669.421086121,1,75,9,1,1,27,7,10362633,1010140,4090051,8292062,4101171,0,0,0,0,1021201,0,1050160,4190101,0,0,0,0,0,0,0,0,1010140,0,0,0,0,0,0,0,0,-4090051,0,0,0,0,0,4101051,4191011,0,0
15,215,956.962866417598,0,0,504671.326930059,504672.373946881,1,75,9,1,0,3,7,4292151,10371131,8200101,1151031,0,0,-3111041,0,0,0,1181110,0,0,0,0,0,4160080,4201040,0,0,0,2010011,0,4190011,0,0,0,0,0,0,4010090,0,1151031,0,0,0,0,0,0,0
15,216,831.470597593579,1,0,504674.397427575,504675.444453636,1,75,9,1,1,10,3,0,6051251,3081051,3100160,0,0,0,0,0,0,0,0,0,-2040121,0,0,0,0,4011130,0,0,0,0,0,0,0,0,0,0,0,3081051,0,0,3100160,0,0,0,0,0,0
15,217,616.73513893038,1,0,504683.903048775,504684.95013104,1,75,10,1,1,5,3,6181181,0,0,6290191,0,0,3161041,0,-3020140,0,0,0,0,0,0,0,0,0,0,0,0,0,0,0,0,0,0,0,0,0,0,0,0,4180020,0,0,0,2110171,0,0
15,218,801.3427828555,1,0,504686.585320476,504687.632351926,1,75,10,0,1,24,3,6090201,0,4141100,2171151,3080191,0,0,0,0,3010010,0,0,0,0,0,0,0,0,0,0,0,0,0,0,0,0,0,-4141100,0,0,0,0,0,2171151,0,0,0,0,0,0
15,219,471.371570194606,1,0,504689.585240019,504690.632264155,1,75,10,1,1,3,7,4292151,10371131,8200101,1151031,0,0,-3111041,0,0,0,1181110,0,0,0,0,0,4160080,4201040,0,0,0,2010011,0,4190011,0,0,0,0,0,0,4010090,0,1151031,0,0,0,0,0,0,0
15,220,740.338404255454,1,0,504692.232219654,504693.279267273,1,75,10,0,1,31,3,0,0,5252322,4381190,0,0,0,0,0,0,0,0,0,0,0,0,0,0,0,0,0,0,0,0,0,3201171,0,0,2051151,0,0,0,0,0,-2181070,2200120,0,0,0,0
15,221,837.460205191746,0,0,504695.185085418,504696.232116869,1,75,10,1,0,33,7,4181170,2201131,5261252,12262403,0,0,4181170,0,0,0,0,0,0,0,0,0,0,0,0,0,2201131,0,0,0,4181201,0,0,0,0,0,1080051,0,0,1070041,3030141,0,-4011081,4151140,0,0
15,222,568.39328125352,0,0,504698.126180232,504699.173204753,1,75,10,0,0,23,3,0,0,9471433,2101171,0,0,0,0,0,0,0,0,0,0,0,0,0,0,0,0,0,0,0,0,0,3131181,-4140071,0,2200181,0,0,0,0,0,0,2101171,0,0,0,0
15,223,631.340557767544,1,0,504700.91433429,504701.961366896,1,75,10,1,1,8,7,10371272,5301351,4091060,4211261,4120160,0,0,0,0,0,0,-2071081,4180031,0,3170151,0,0,0,0,2131200,0,0,4091060,0,0,0,0,0,0,0,0,0,0,0,0,0,0,1081121,0,3130140
15,224,577.24391866941,1,0,504703.761315388,504704.808338369,1,75,10,1,1,20,3,5300322,0,5212150,0,3160131,0,0,0,0,0,0,2140191,0,0,0,0,0,0,0,0,0,0,0,-2071060,0,0,0,0,0,0,3141090,0,0,0,0,0,0,0,0,0
15,225,837.37628365634,0,0,504706.514180075,504707.561208061,1,75,10,0,0,34,7,8461382,2231200,1180191,5061230,0,4190201,1141010,0,0,3130171,0,0,0,1181180,0,0,0,0,1050020,0,0,0,1180191,0,0,0,0,0,0,0,0,0,0,4040080,0,0,0,-1021150,0,0
15,226,598.13074558042,1,0,504709.455276043,504710.50230018,1,75,10,1,1,27,7,10362633,1010140,4090051,8292062,4101171,0,0,0,0,1021201,0,1050160,4190101,0,0,0,0,0,0,0,0,1010140,0,0,0,0,0,0,0,0,-4090051,0,0,0,0,0,4101051,4191011,0,0
15,227,710.361494217068,0,0,504712.114052807,504713.161049226,1,75,10,0,0,36,3,0,0,7281351,2240112,0,0,0,0,0,0,0,0,0,0,0,0,0,0,0,0,0,0,0,0,0,4080161,3201190,0,0,0,0,1040101,0,0,0,0,0,0,0,-1200011
15,228,1143.41331849573,1,0,504714.91394702,504715.960968076,1,75,10,0,1,2,7,1121161,5240261,9362313,2262301,0,-1121161,0,0,0,0,0,0,0,0,0,1190070,4050191,0,0,0,0,0,0,0,0,0,2131201,4110101,0,0,3121011,1141111,0,0,0,0,0,0,1121190,0
15,229,644.821505644359,1,0,504718.231499392,504719.278522758,1,75,10,1,1,17,7,9491240,14413444,1180071,0,0,4100050,2191140,0,0,0,0,3200050,0,4130071,0,0,0,3011081,0,4071101,-3201191,0,0,0,0,0,0,0,1180071,0,0,0,0,0,0,0,0,0,0,0
15,230,849.623816669919,0,0,504721.113769091,504722.160793997,1,75,10,1,0,7,3,4030190,0,3152202,1090090,0,0,0,0,0,0,-4030190,0,0,0,0,0,0,0,0,0,0,0,0,0,0,0,0,0,1061031,0,2091171,0,0,0,1090090,0,0,0,0,0
15,231,596.302950929385,1,0,504724.196037558,504725.243064004,1,75,10,1,1,12,7,11252182,2342301,0,9270142,4071041,4101030,0,0,0,0,0,3080111,0,0,0,-1161191,0,0,0,0,1181110,0,0,0,0,0,0,0,0,0,0,4060090,2020031,3190021,0,0,0,0,0,0
15,232,681.521373917349,0,0,504726.901848851,504727.948872218,1,75,10,0,0,18,3,1010141,7331131,0,1201100,0,0,0,0,1010141,0,0,0,0,0,0,3190071,0,0,0,0,0,-4141060,0,0,0,0,0,0,0,0,0,0,0,0,0,0,1201100,0,0,0
15,233,789.992978854571,1,0,504729.819412541,504730.866432828,1,75,10,0,1,32,7,9281412,3392321,4170131,4102100,0,3130061,2050200,0,0,0,4101151,0,0,0,0,0,0,0,0,1191170,0,2201151,0,0,4170131,0,0,0,0,0,0,0,0,0,0,-3031030,0,0,0,1071070
15,234,518.738706712611,0,0,504732.854626075,504733.901662915,1,75,10,1,0,21,3,5101210,0,1141080,4160151,0,0,3041030,0,2060180,0,0,0,0,0,0,0,0,0,0,0,0,0,0,0,-1141080,0,0,0,0,0,0,0,0,0,4160151,0,0,0,0,0
15,235,525.888586707879,0,0,504735.513372042,504736.560391944,1,75,10,1,0,10,3,0,6051251,3081051,3100160,0,0,0,0,0,0,0,0,0,-2040121,0,0,0,0,4011130,0,0,0,0,0,0,0,0,0,0,0,3081051,0,0,3100160,0,0,0,0,0,0
15,236,992.357717012055,0,0,504738.089770624,504739.136791681,1,75,10,0,0,25,7,3111262,4192191,10252251,4030101,0,0,2100201,0,0,1011061,0,0,0,2181080,0,0,0,0,0,0,0,2011111,2061010,0,4111131,0,0,0,-4080110,0,0,0,0,0,0,0,0,0,0,4030101
15,237,574.900276376866,0,0,504741.313208126,504742.360234187,1,75,10,0,0,26,3,1080110,3161070,4040121,1030031,0,0,0,0,1080110,0,0,0,0,0,0,0,0,0,0,0,3161070,0,0,0,0,0,0,0,0,-4040121,0,0,0,0,0,0,1030031,0,0,0
15,238,1158.30283850664,1,0,504744.030784981,504745.077801418,1,75,10,1,1,6,3,3242321,0,0,4200130,1111071,0,0,1030100,0,-1101150,0,0,0,0,0,0,0,0,0,0,0,0,0,0,0,0,0,0,0,0,0,0,0,4200130,0,0,0,0,0,0
15,239,525.096337019932,0,0,504747.313042207,504748.360064804,1,75,10,0,0,9,7,9462490,1060130,5191211,1011091,0,0,0,0,0,4090110,1031140,1201120,-3140120,0,0,0,0,1060130,0,0,0,0,0,1111031,0,0,0,0,4080180,0,0,0,0,0,0,0,1011091,0,0,0
15,240,932.582133857068,0,0,504749.936561551,504750.983524864,1,75,10,0,0,13,7,2181051,6511260,12383513,0,0,0,0,0,0,0,2181051,0,0,0,2200190,0,-2141030,2170040,0,0,0,0,0,4091131,3011170,0,1161191,0,0,4120021,0,0,0,0,0,0,0,0,0,0
15,241,488.909621664789,1,0,504758.842132552,504759.889153609,1,75,11,1,1,10,3,0,6051251,3081051,3100160,0,0,0,0,0,0,0,0,0,-2040121,0,0,0,0,4011130,0,0,0,0,0,0,0,0,0,0,0,3081051,0,0,3100160,0,0,0,0,0,0
15,242,555.690339475404,0,0,504761.430300546,504762.477372418,1,75,11,1,0,5,3,6181181,0,0,6290191,0,0,3161041,0,-3020140,0,0,0,0,0,0,0,0,0,0,0,0,0,0,0,0,0,0,0,0,0,0,0,0,4180020,0,0,0,2110171,0,0
15,243,885.723530780524,0,0,504764.124339734,504765.17136849,1,75,11,0,0,32,3,1091051,4141150,3041120,1011160,0,0,0,0,0,0,1091051,0,0,0,4141150,0,0,0,0,0,0,0,0,0,0,3041120,0,0,0,0,0,0,0,0,0,-1011160,0,0,0,0
15,244,493.436762597412,1,0,504767.206606276,504768.253635032,1,75,11,1,1,8,7,10371272,5301351,4091060,4211261,4120160,0,0,0,0,0,0,-2071081,4180031,0,3170151,0,0,0,0,2131200,0,0,4091060,0,0,0,0,0,0,0,0,0,0,0,0,0,0,1081121,0,3130140
15,245,768.521011283156,0,0,504769.81829269,504770.865318751,1,75,11,1,0,7,3,4030190,0,3152202,1090090,0,0,0,0,0,0,-4030190,0,0,0,0,0,0,0,0,0,0,0,0,0,0,0,0,0,1061031,0,2091171,0,0,0,1090090,0,0,0,0,0
15,246,1276.17288037436,1,0,504772.688804911,504773.735826738,1,75,11,0,1,31,7,4150091,2120140,3192161,9502352,0,0,0,0,0,0,0,4150091,0,0,0,0,0,2120140,0,0,0,0,0,0,1031111,0,0,2161050,0,0,0,2190131,0,3091170,-1071041,0,3150010,0,0,0
15,247,563.407651847228,0,0,504776.206356051,504777.253382497,1,75,11,1,0,20,3,5300322,0,5212150,0,3160131,0,0,0,0,0,0,2140191,0,0,0,0,0,0,0,0,0,0,0,-2071060,0,0,0,0,0,0,3141090,0,0,0,0,0,0,0,0,0
15,248,728.922771930229,1,0,504778.923921743,504779.970954349,1,75,11,0,1,36,3,0,2071161,4221212,3061041,0,0,0,0,0,0,0,0,0,0,0,0,0,2071161,0,0,0,0,1171051,3050161,0,0,0,0,0,0,0,0,0,0,0,0,0,0,0,-3061041
15,249,701.514321437571,1,0,504781.806195677,504782.853224433,1,75,11,1,1,17,7,9491240,14413444,1180071,0,0,4100050,2191140,0,0,0,0,3200050,0,4130071,0,0,0,3011081,0,4071101,-3201191,0,0,0,0,0,0,0,1180071,0,0,0,0,0,0,0,0,0,0,0
15,250,555.421636730898,1,0,504784.59435166,504785.64138234,1,75,11,0,1,9,7,4171072,2021180,3181251,5232402,0,0,0,0,0,0,2101021,0,-2070051,0,0,2021180,0,0,0,0,0,0,0,0,0,0,0,0,1140121,0,2041130,2010061,1141191,0,0,0,0,0,2081150,0
15,251,799.676286871545,0,0,504787.359006161,504788.406009125,1,75,11,0,0,2,7,13603463,6072192,0,1180061,0,-3131021,0,0,1181090,4191151,4080131,0,1020070,0,0,0,0,4011151,2061041,0,0,0,0,0,0,0,0,0,0,0,0,0,1180061,0,0,0,0,0,0,0
15,252,1219.42847978789,1,0,504790.241256227,504791.288280363,1,75,11,0,1,13,7,6252081,6082150,8211361,6160110,0,0,0,0,0,0,4171011,2081070,0,0,0,0,-2051020,0,0,4031130,0,0,0,0,4010201,0,0,0,4201160,0,0,0,0,2040030,4120080,0,0,0,0,0
15,253,828.187265549786,1,0,504793.6294012,504794.676423027,1,75,11,1,1,33,7,4181170,2201131,5261252,12262403,0,0,4181170,0,0,0,0,0,0,0,0,0,0,0,0,0,2201131,0,0,0,4181201,0,0,0,0,0,1080051,0,0,1070041,3030141,0,-4011081,4151140,0,0
15,254,828.16455286229,1,0,504796.570494859,504797.617516301,1,75,11,0,1,24,3,2171061,3180120,1181170,3060031,0,0,0,0,0,0,0,0,2171061,0,3180120,0,0,0,0,0,0,0,0,0,0,0,0,-1181170,0,0,0,0,0,3060031,0,0,0,0,0,0
15,255,485.016896447632,0,0,504799.558644606,504800.605664893,1,75,11,1,0,21,3,5101210,0,1141080,4160151,0,0,3041030,0,2060180,0,0,0,0,0,0,0,0,0,0,0,0,0,0,0,-1141080,0,0,0,0,0,0,0,0,0,4160151,0,0,0,0,0
15,256,471.900506585371,1,0,504802.252683793,504803.299702925,1,75,11,0,1,23,3,0,3242271,5291152,0,0,0,0,0,0,0,0,0,0,2101191,0,0,1141080,0,0,0,0,0,0,0,0,2120011,-3171141,0,0,0,0,0,0,0,0,0,0,0,0,0
15,257,581.868454697542,0,0,504804.852612345,504805.899633401,1,75,11,0,0,18,3,1071021,3090151,0,5160242,0,0,0,1071021,0,0,0,0,0,0,0,0,0,0,0,0,0,-3090151,0,0,0,0,0,0,0,0,0,0,0,0,4150161,0,0,0,1010081,0
15,258,979.00804085657,0,0,504807.65253312,504808.699557641,1,75,11,1,0,12,7,11252182,2342301,0,9270142,4071041,4101030,0,0,0,0,0,3080111,0,0,0,-1161191,0,0,0,0,1181110,0,0,0,0,0,0,0,0,0,0,4060090,2020031,3190021,0,0,0,0,0,0
15,259,920.449319295585,1,0,504810.81715821,504811.864178112,1,75,11,0,1,26,3,3131021,0,1081120,5200201,0,0,3131021,0,0,0,0,0,0,0,0,0,0,0,0,0,0,0,0,0,0,0,0,0,0,-1081120,0,0,0,0,0,2060091,0,0,0,3140110
15,260,745.121544227004,0,0,504813.958240243,504815.005263224,1,75,11,1,0,6,3,3242321,0,0,4200130,1111071,0,0,1030100,0,-1101150,0,0,0,0,0,0,0,0,0,0,0,0,0,0,0,0,0,0,0,0,0,0,0,4200130,0,0,0,0,0,0
15,261,792.383586405776,0,0,504816.758164483,504817.805187079,1,75,11,0,0,34,7,0,4201100,4262242,9362260,0,0,0,0,0,0,0,0,0,0,0,1021090,0,0,0,3180010,0,0,0,2101091,1141091,1020060,0,0,0,0,0,4111090,0,0,0,0,0,-2180140,3071030,0
15,262,561.642990796827,0,0,504819.781679823,504820.828705114,1,75,11,1,0,27,7,10362633,1010140,4090051,8292062,4101171,0,0,0,0,1021201,0,1050160,4190101,0,0,0,0,0,0,0,0,1010140,0,0,0,0,0,0,0,0,-4090051,0,0,0,0,0,4101051,4191011,0,0
15,263,1133.13794048736,1,0,504822.499178146,504823.546209982,1,75,11,1,1,3,7,4292151,10371131,8200101,1151031,0,0,-3111041,0,0,0,1181110,0,0,0,0,0,4160080,4201040,0,0,0,2010011,0,4190011,0,0,0,0,0,0,4010090,0,1151031,0,0,0,0,0,0,0
15,264,771.523321804125,1,0,504825.757910408,504826.80493339,1,75,11,0,1,25,7,2020151,7292421,7252191,3060201,0,0,2020151,0,0,0,0,0,0,2150100,0,0,3091180,0,0,0,2051141,0,0,0,0,0,4111011,0,-3141180,0,0,2030021,0,0,0,0,0,0,1030180,0
15,265,520.479115191847,0,0,504836.145849812,504837.192884728,1,75,12,0,0,32,3,2080160,1141191,4010031,3151130,0,0,0,0,0,2080160,0,0,0,0,1141191,0,0,0,0,0,0,0,0,0,0,0,0,0,0,4010031,0,0,0,0,0,-3151130,0,0,0,0
15,266,886.078849725891,1,0,504838.734020886,504839.781051952,1,75,12,0,1,34,3,0,7290091,2051020,3150191,0,0,0,0,0,0,0,0,0,0,0,3180051,0,0,0,0,4110040,0,0,0,0,0,0,0,2051020,0,0,0,0,0,0,0,0,-3150191,0,0
15,267,981.558792118449,0,0,504841.698644129,504842.745671344,1,75,12,0,0,36,7,3251170,1030031,1141141,10333493,1061040,0,0,0,0,2190130,0,0,0,0,0,0,1030031,0,0,0,0,0,0,0,0,0,1141141,0,0,0,0,0,0,1091131,0,3100170,0,3091131,0,-3051061
15,268,446.456126926932,0,1,504844.745624764,504845.792647361,1,75,12,1,1,20,3,5300322,0,5212150,0,3160131,0,0,0,0,0,0,2140191,0,0,0,0,0,0,0,0,0,0,0,-2071060,0,0,0,0,0,0,3141090,0,0,0,0,0,0,0,0,0
15,269,1329.21742106555,1,0,504847.27495648,504848.321981771,1,75,12,1,1,12,7,11252182,2342301,0,9270142,4071041,4101030,0,0,0,0,0,3080111,0,0,0,-1161191,0,0,0,0,1181110,0,0,0,0,0,0,0,0,0,0,4060090,2020031,3190021,0,0,0,0,0,0
15,270,696.362003975082,0,0,504850.73368443,504851.780713186,1,75,12,0,0,18,7,2141101,5131282,6340201,6221290,0,0,0,0,0,0,0,0,2141101,0,0,0,0,2090171,0,2011101,0,-1030010,0,0,0,0,0,2180020,4160181,0,0,3021190,0,0,0,0,3200100,0,0,0
15,271,498.60447854735,0,0,504853.545376926,504854.592401063,1,75,12,0,0,24,3,0,4041071,9290302,0,0,0,0,0,0,0,0,0,0,0,4041071,0,0,0,0,0,0,0,3190101,3040061,0,0,0,-3060140,0,0,0,0,0,0,0,0,0,0,0,0
15,272,845.529371872544,1,0,504856.286471047,504857.333498263,1,75,12,1,1,5,3,6181181,0,0,6290191,0,0,3161041,0,-3020140,0,0,0,0,0,0,0,0,0,0,0,0,0,0,0,0,0,0,0,0,0,0,0,0,4180020,0,0,0,2110171,0,0
15,273,1379.28621360334,1,0,504859.321683041,504860.368708717,1,75,12,1,1,33,7,4181170,2201131,5261252,12262403,0,0,4181170,0,0,0,0,0,0,0,0,0,0,0,0,0,2201131,0,0,0,4181201,0,0,0,0,0,1080051,0,0,1070041,3030141,0,-4011081,4151140,0,0
15,274,603.669948875904,1,0,504862.839272677,504863.886257548,1,75,12,1,1,27,7,10362633,1010140,4090051,8292062,4101171,0,0,0,0,1021201,0,1050160,4190101,0,0,0,0,0,0,0,0,1010140,0,0,0,0,0,0,0,0,-4090051,0,0,0,0,0,4101051,4191011,0,0
15,275,1307.1006439277,1,0,504865.603857116,504866.650888566,1,75,12,1,1,3,7,4292151,10371131,8200101,1151031,0,0,-3111041,0,0,0,1181110,0,0,0,0,0,4160080,4201040,0,0,0,2010011,0,4190011,0,0,0,0,0,0,4010090,0,1151031,0,0,0,0,0,0,0
15,276,782.809222291689,0,0,504869.039058177,504870.086078079,1,75,12,0,0,13,3,0,3141260,4100170,1101081,0,0,0,0,0,0,0,0,0,0,0,0,-2130060,1011200,0,0,0,0,0,0,0,0,4100170,0,0,0,0,1101081,0,0,0,0,0,0,0,0
15,277,552.430105046369,0,0,504871.921330186,504872.968400902,1,75,12,0,0,25,3,3080121,0,2290050,4200030,0,0,0,0,0,0,3080121,0,0,0,0,0,0,0,0,0,0,0,0,0,0,0,0,0,-1140040,1150010,0,0,0,0,0,0,0,4200030,0,0
15,278,755.945491604507,1,1,504874.733013828,504875.78003604,1,75,12,1,0,17,7,9491240,14413444,1180071,0,0,4100050,2191140,0,0,0,0,3200050,0,4130071,0,0,0,3011081,0,4071101,-3201191,0,0,0,0,0,0,0,1180071,0,0,0,0,0,0,0,0,0,0,0
15,279,798.772013571579,1,0,504877.627056018,504878.674114031,1,75,12,0,1,2,7,9301413,4091031,3112331,5310242,0,-1120071,0,4071181,0,0,4110161,0,0,0,0,0,0,0,0,0,0,4091031,2011131,0,0,1101200,0,0,0,0,0,0,0,0,4180121,0,0,0,0,1130121
15,280,1295.70117994444,1,0,504880.67407977,504881.721082348,1,75,12,0,1,31,7,3081140,2031020,5282481,6391233,0,0,0,0,3081140,0,0,0,0,0,0,2031020,0,0,0,0,0,0,3190200,0,0,1041180,0,0,0,1051101,0,0,0,0,-1200081,0,3170121,2021031,0,0
15,281,544.34438503813,1,0,504884.203341807,504885.250367868,1,75,12,1,1,21,3,5101210,0,1141080,4160151,0,0,3041030,0,2060180,0,0,0,0,0,0,0,0,0,0,0,0,0,0,0,-1141080,0,0,0,0,0,0,0,0,0,4160151,0,0,0,0,0
15,282,772.434524435084,0,0,504886.850324137,504887.897346348,1,75,12,0,0,23,7,4170091,5162230,6042271,4352250,0,0,0,0,0,0,4170091,0,0,0,0,0,2141150,0,3021080,0,0,0,0,0,0,0,-4011151,0,0,2031120,0,1150050,0,0,0,0,0,0,2121090,1081110
15,283,472.730097477324,0,0,504889.862004622,504890.909053781,1,75,12,0,0,9,3,4060140,0,4251201,2010091,0,0,0,0,0,0,0,0,-4060140,0,0,0,0,0,0,0,0,0,0,2120100,2131101,0,0,0,0,0,0,0,0,0,0,2010091,0,0,0,0
15,284,678.26152453199,1,0,504892.59134165,504893.638368481,1,75,12,0,1,26,7,5303332,4190201,4100142,5321301,0,2161110,0,2081051,0,1061171,0,0,0,4190201,0,0,0,0,0,0,0,0,0,0,0,0,3090081,0,0,-1010061,0,0,0,0,0,0,2201131,3120170,0,0
15,285,583.151529601309,1,0,504895.332440775,504896.379465296,1,75,12,1,1,10,3,0,6051251,3081051,3100160,0,0,0,0,0,0,0,0,0,-2040121,0,0,0,0,4011130,0,0,0,0,0,0,0,0,0,0,0,3081051,0,0,3100160,0,0,0,0,0,0
15,286,904.000707319938,0,0,504898.061772414,504899.10879501,1,75,12,1,0,7,3,4030190,0,3152202,1090090,0,0,0,0,0,0,-4030190,0,0,0,0,0,0,0,0,0,0,0,0,0,0,0,0,0,1061031,0,2091171,0,0,0,1090090,0,0,0,0,0
15,287,472.859444329515,0,0,504901.108751125,504902.155776801,1,75,12,1,0,8,7,10371272,5301351,4091060,4211261,4120160,0,0,0,0,0,0,-2071081,4180031,0,3170151,0,0,0,0,2131200,0,0,4091060,0,0,0,0,0,0,0,0,0,0,0,0,0,0,1081121,0,3130140
15,288,929.485892818775,1,0,504903.838086613,504904.885114983,1,75,12,1,1,6,3,3242321,0,0,4200130,1111071,0,0,1030100,0,-1101150,0,0,0,0,0,0,0,0,0,0,0,0,0,0,0,0,0,0,0,0,0,0,0,4200130,0,0,0,0,0,0
15,289,1009.98854404315,1,0,504923.143423788,504924.190452929,1,75,13,1,1,33,7,4181170,2201131,5261252,12262403,0,0,4181170,0,0,0,0,0,0,0,0,0,0,0,0,0,2201131,0,0,0,4181201,0,0,0,0,0,1080051,0,0,1070041,3030141,0,-4011081,4151140,0,0
15,290,441.633720940445,0,0,504926.319813286,504927.366839732,1,75,13,0,0,9,3,4120120,3071080,0,3101151,0,0,0,0,0,0,0,0,-4120120,0,0,0,3071080,0,0,0,0,0,0,0,0,0,0,0,0,0,0,2030061,0,0,1071090,0,0,0,0,0
15,291,412.352435349021,1,0,504928.955030053,504930.002053035,1,75,13,1,1,21,3,5101210,0,1141080,4160151,0,0,3041030,0,2060180,0,0,0,0,0,0,0,0,0,0,0,0,0,0,0,-1141080,0,0,0,0,0,0,0,0,0,4160151,0,0,0,0,0
15,292,713.143992063124,0,0,504931.59025529,504932.637279811,1,75,13,0,0,34,3,4121191,0,3050131,7132121,0,0,0,4121191,0,0,0,0,0,0,0,0,0,0,0,0,0,0,3050131,0,0,0,0,0,0,0,0,0,0,3061060,0,0,0,-4071061,0,0
15,293,928.476140252315,1,0,504934.35488092,504935.401906981,1,75,13,0,1,31,3,7261381,1151140,0,4090151,0,0,0,3100181,4161200,0,0,0,0,0,0,0,0,0,0,0,1151140,0,0,0,0,0,0,0,0,0,0,0,0,0,-4090151,0,0,0,0,0
15,294,768.355093139689,0,0,504937.354802772,504938.401826139,1,75,13,1,0,17,7,9491240,14413444,1180071,0,0,4100050,2191140,0,0,0,0,3200050,0,4130071,0,0,0,3011081,0,4071101,-3201191,0,0,0,0,0,0,0,1180071,0,0,0,0,0,0,0,0,0,0,0
15,295,491.146629850846,1,0,504940.331190422,504941.378210324,1,75,13,1,1,8,7,10371272,5301351,4091060,4211261,4120160,0,0,0,0,0,0,-2071081,4180031,0,3170151,0,0,0,0,2131200,0,0,4091060,0,0,0,0,0,0,0,0,0,0,0,0,0,0,1081121,0,3130140
15,296,547.365558682941,1,0,504943.048760733,504944.095779865,1,75,13,0,1,26,7,3100020,2071151,5220231,10532392,0,3100020,0,0,0,0,0,0,0,0,0,2071151,0,0,0,0,0,0,0,0,0,0,0,1140180,0,-4080051,0,0,3070091,3120070,0,0,0,2181050,0,2161181
15,297,687.4182059546,0,0,504945.742795686,504946.789821747,1,75,13,1,0,6,3,3242321,0,0,4200130,1111071,0,0,1030100,0,-1101150,0,0,0,0,0,0,0,0,0,0,0,0,0,0,0,0,0,0,0,0,0,0,0,4200130,0,0,0,0,0,0
15,298,1278.86760700494,1,0,504948.613306753,504949.660393637,1,75,13,1,1,12,7,11252182,2342301,0,9270142,4071041,4101030,0,0,0,0,0,3080111,0,0,0,-1161191,0,0,0,0,1181110,0,0,0,0,0,0,0,0,0,0,4060090,2020031,3190021,0,0,0,0,0,0
15,299,699.047876580153,0,0,504952.119091946,504953.166111463,1,75,13,1,0,27,7,10362633,1010140,4090051,8292062,4101171,0,0,0,0,1021201,0,1050160,4190101,0,0,0,0,0,0,0,0,1010140,0,0,0,0,0,0,0,0,-4090051,0,0,0,0,0,4101051,4191011,0,0
15,300,686.024262278806,0,0,504954.871956633,504955.918984234,1,75,13,0,0,2,3,8330191,3180100,0,2150161,0,-4130121,4200070,0,0,0,0,0,0,0,0,0,0,0,0,3180100,0,0,0,0,0,0,0,0,0,0,0,0,0,0,0,0,2150161,0,0,0
15,301,713.957029627636,1,0,504957.813046442,504958.860075198,1,75,13,0,1,23,7,6201052,2011031,7261242,2250341,0,0,4041031,0,0,2160021,0,0,0,0,0,0,0,2011031,0,0,0,0,2030040,0,4180051,0,-1051151,0,0,0,0,0,0,1180181,1070160,0,0,0,0,0
15,302,858.479073620401,0,0,504960.589447642,504961.636467544,1,75,13,0,0,32,7,5440412,0,7192360,7352301,1090201,3170031,0,0,1180180,0,0,0,0,0,0,0,0,0,0,0,0,0,0,0,0,3121180,0,0,0,4071180,0,3181100,0,0,2080171,-2091030,0,0,0,0
15,303,794.012356200255,1,0,504963.707011255,504964.754030772,1,75,13,0,1,25,7,9563293,0,6320302,2161011,0,3151021,0,0,0,2201101,0,1021110,3190061,0,0,0,0,0,0,0,0,0,2170131,0,0,0,2140101,0,-2010070,0,0,0,0,0,0,0,0,2161011,0,0
15,304,871.518086350989,1,0,504966.730451913,504967.777476049,1,75,13,1,1,5,3,6181181,0,0,6290191,0,0,3161041,0,-3020140,0,0,0,0,0,0,0,0,0,0,0,0,0,0,0,0,0,0,0,0,0,0,0,0,4180020,0,0,0,2110171,0,0
15,305,444.375027960632,0,0,504969.765660442,504970.812679189,1,75,13,1,0,20,3,5300322,0,5212150,0,3160131,0,0,0,0,0,0,2140191,0,0,0,0,0,0,0,0,0,0,0,-2071060,0,0,0,0,0,0,3141090,0,0,0,0,0,0,0,0,0
15,306,804.927924240474,0,0,504972.400879905,504973.447905966,1,75,13,1,0,7,3,4030190,0,3152202,1090090,0,0,0,0,0,0,-4030190,0,0,0,0,0,0,0,0,0,0,0,0,0,0,0,0,0,1061031,0,2091171,0,0,0,1090090,0,0,0,0,0
15,307,623.930444242433,1,0,504975.389031191,504976.436051863,1,75,13,1,1,10,3,0,6051251,3081051,3100160,0,0,0,0,0,0,0,0,0,-2040121,0,0,0,0,4011130,0,0,0,0,0,0,0,0,0,0,0,3081051,0,0,3100160,0,0,0,0,0,0
15,308,599.504286248703,1,0,504978.224244417,504979.271272788,1,75,13,0,1,13,7,0,4130320,4331202,8351312,0,0,0,0,0,0,0,0,0,0,0,0,-1070120,3060200,0,0,0,0,1020041,0,2200140,0,1111021,0,0,0,0,0,0,0,4170040,0,0,0,2090101,2091171
15,309,474.408912239596,1,1,504981.012393471,504982.059429541,1,75,13,0,0,24,3,0,4150111,3171122,1121040,0,0,0,0,0,0,0,0,0,0,0,0,0,0,0,4150111,0,0,0,0,1110011,0,0,-2061111,0,0,0,0,1121040,0,0,0,0,0,0,0
15,310,678.614918666426,0,0,504983.671149832,504984.718182822,1,75,13,0,0,18,3,1030050,7232520,0,0,1030050,0,0,0,0,0,0,0,0,0,0,0,0,0,1061190,4031180,0,-2140150,0,0,0,0,0,0,0,0,0,0,0,0,0,0,0,0,0,0
15,311,792.439790675417,1,0,504986.506366522,504987.553392583,1,75,13,1,1,3,7,4292151,10371131,8200101,1151031,0,0,-3111041,0,0,0,1181110,0,0,0,0,0,4160080,4201040,0,0,0,2010011,0,4190011,0,0,0,0,0,0,4010090,0,1151031,0,0,0,0,0,0,0
15,312,1385.85942197824,1,0,504989.52981103,504990.576833626,1,75,13,0,1,36,7,5321321,7171231,4301131,5202320,4160181,0,0,0,0,0,0,1161140,0,0,0,3040121,0,0,0,4131110,0,0,0,0,1181120,0,0,0,0,0,3120011,0,0,0,0,0,0,1061120,0,-4141200
15,313,783.189948706422,1,0,505006.423451321,505007.470488931,1,75,14,1,1,7,3,4030190,0,3152202,1090090,0,0,0,0,0,0,-4030190,0,0,0,0,0,0,0,0,0,0,0,0,0,0,0,0,0,1061031,0,2091171,0,0,0,1090090,0,0,0,0,0
15,314,706.993470841553,1,0,505009.364558838,505010.41157874,1,75,14,0,1,26,3,4041201,0,3211281,2170121,0,0,0,0,0,0,0,4041201,0,0,0,0,0,0,0,0,0,0,0,0,1191190,0,0,0,0,-2020091,0,0,0,0,0,0,0,0,2170121,0
15,315,462.598309910391,0,0,505012.246832002,505013.293895789,1,75,14,1,0,20,3,5300322,0,5212150,0,3160131,0,0,0,0,0,0,2140191,0,0,0,0,0,0,0,0,0,0,0,-2071060,0,0,0,0,0,0,3141090,0,0,0,0,0,0,0,0,0
15,316,694.150403200183,0,0,505014.964395384,505016.01141721,1,75,14,1,0,17,7,9491240,14413444,1180071,0,0,4100050,2191140,0,0,0,0,3200050,0,4130071,0,0,0,3011081,0,4071101,-3201191,0,0,0,0,0,0,0,1180071,0,0,0,0,0,0,0,0,0,0,0
15,317,1100.97907169256,0,0,505017.858439499,505018.905454396,1,75,14,0,0,31,7,2061060,3090170,7281181,9503563,0,0,0,0,0,0,0,0,2061060,0,0,0,0,0,0,3090170,0,0,0,0,0,4111011,0,0,0,3170170,0,0,0,3191121,-4080171,0,1121200,0,0,1111071
15,318,623.549332900438,0,0,505021.034818602,505022.081837734,1,75,14,1,0,27,7,10362633,1010140,4090051,8292062,4101171,0,0,0,0,1021201,0,1050160,4190101,0,0,0,0,0,0,0,0,1010140,0,0,0,0,0,0,0,0,-4090051,0,0,0,0,0,4101051,4191011,0,0
15,319,749.625972472131,1,0,505023.787689063,505024.83470781,1,75,14,0,1,2,7,6272121,1030180,6192332,3301241,0,-3201100,0,0,0,0,0,3071021,0,1030180,0,0,0,0,0,0,0,0,0,0,0,0,3070100,0,0,2031041,1091191,0,0,0,0,0,0,2191171,1110070,0
15,320,522.867028077599,1,0,505026.74053712,505027.787624775,1,75,14,1,1,21,3,5101210,0,1141080,4160151,0,0,3041030,0,2060180,0,0,0,0,0,0,0,0,0,0,0,0,0,0,0,-1141080,0,0,0,0,0,0,0,0,0,4160151,0,0,0,0,0
15,321,541.042189928703,0,0,505029.493406042,505030.540425943,1,75,14,1,0,10,3,0,6051251,3081051,3100160,0,0,0,0,0,0,0,0,0,-2040121,0,0,0,0,4011130,0,0,0,0,0,0,0,0,0,0,0,3081051,0,0,3100160,0,0,0,0,0,0
15,322,1103.78582210978,0,0,505032.281588972,505033.328590396,1,75,14,1,0,33,7,4181170,2201131,5261252,12262403,0,0,4181170,0,0,0,0,0,0,0,0,0,0,0,0,0,2201131,0,0,0,4181201,0,0,0,0,0,1080051,0,0,1070041,3030141,0,-4011081,4151140,0,0
15,323,663.591432210524,1,0,505035.469709,505036.516733521,1,75,14,0,1,18,3,2100010,3030181,1200080,0,2100010,0,0,0,0,0,0,0,0,2010160,0,0,0,0,0,0,0,-1020021,0,0,0,0,0,0,0,0,1200080,0,0,0,0,0,0,0,0,0
15,324,1036.58010746585,1,0,505038.36374734,505039.410769552,1,75,14,0,1,36,7,2050180,5081261,8381283,5241211,0,0,0,0,2050180,0,0,0,0,0,4011150,0,0,1070111,0,0,0,0,0,0,0,0,3180041,3131171,2070071,0,0,0,0,0,0,0,0,0,2081191,-3160020
15,325,541.546103835572,1,0,505041.657774363,505042.70479696,1,75,14,1,1,8,7,10371272,5301351,4091060,4211261,4120160,0,0,0,0,0,0,-2071081,4180031,0,3170151,0,0,0,0,2131200,0,0,4091060,0,0,0,0,0,0,0,0,0,0,0,0,0,0,1081121,0,3130140
15,326,671.915443032049,0,0,505044.434162475,505045.481188151,1,75,14,1,0,6,3,3242321,0,0,4200130,1111071,0,0,1030100,0,-1101150,0,0,0,0,0,0,0,0,0,0,0,0,0,0,0,0,0,0,0,0,0,0,0,4200130,0,0,0,0,0,0
15,327,1001.01702887332,0,0,505047.175268144,505048.222281116,1,75,14,0,0,25,7,7221301,1071181,1200161,8081173,0,0,0,0,0,2100171,0,1061020,4060110,0,0,0,0,0,0,1071181,0,0,0,0,0,0,0,0,-1200161,0,0,0,0,0,4010041,0,1061021,3010111,0,0
15,328,450.269550201483,1,0,505050.24576412,505051.292788641,1,75,14,0,1,9,3,2170010,0,0,8400291,0,0,0,0,0,0,0,0,-2170010,0,0,0,0,0,0,0,0,0,0,0,0,0,0,0,0,0,0,0,2030070,0,0,4190201,0,0,0,2180020
15,329,498.722276533954,0,0,505052.916276033,505053.963367923,1,75,14,0,0,23,3,0,3121120,7121100,3100130,0,0,0,0,0,0,0,0,0,3121120,0,0,0,0,0,0,0,0,0,0,0,0,-4031010,0,0,0,3090090,0,0,0,0,0,0,3100130,0,0
15,330,709.575018961914,0,0,505055.551501655,505056.598523482,1,75,14,1,0,12,7,11252182,2342301,0,9270142,4071041,4101030,0,0,0,0,0,3080111,0,0,0,-1161191,0,0,0,0,1181110,0,0,0,0,0,0,0,0,0,0,4060090,2020031,3190021,0,0,0,0,0,0
15,331,803.791134560015,1,0,505058.363183373,505059.410207124,1,75,14,0,1,13,7,4141170,9311261,7102241,3160190,2031070,0,0,0,2110100,0,0,0,0,0,0,0,-4090101,3030100,0,0,2191060,0,4031051,0,0,0,0,0,0,0,3071190,0,0,0,0,0,0,0,0,3160190
15,332,817.538860370405,0,0,505061.339568327,505062.386597083,1,75,14,0,0,24,3,4201321,0,4131131,3051061,0,0,0,0,3191170,0,1010151,0,0,0,0,0,0,0,0,0,0,0,0,0,0,0,0,-4131131,0,0,0,0,0,0,0,3051061,0,0,0,0
15,333,506.655937060714,0,0,505064.245372615,505065.292399831,1,75,14,1,0,5,3,6181181,0,0,6290191,0,0,3161041,0,-3020140,0,0,0,0,0,0,0,0,0,0,0,0,0,0,0,0,0,0,0,0,0,0,0,0,4180020,0,0,0,2110171,0,0
15,334,524.194373458158,0,0,505066.974712722,505068.021725695,1,75,14,1,0,3,7,4292151,10371131,8200101,1151031,0,0,-3111041,0,0,0,1181110,0,0,0,0,0,4160080,4201040,0,0,0,2010011,0,4190011,0,0,0,0,0,0,4010090,0,1151031,0,0,0,0,0,0,0
15,335,1119.43910468835,1,0,505069.680514777,505070.727538143,1,75,14,0,1,32,7,1141051,8362271,9463531,3021091,0,0,0,0,0,0,1141051,0,0,0,4191120,0,4171151,0,0,0,0,0,0,4141171,1140180,2171130,0,0,0,0,2011050,0,0,0,0,-3021091,0,0,0,0
15,336,742.12770286249,1,0,505072.915726694,505073.962742746,1,75,14,0,1,34,3,2020100,0,0,7402172,0,0,0,2020100,0,0,0,0,0,0,0,0,0,0,0,0,0,0,0,0,0,0,0,0,0,0,0,1151041,0,4130021,0,0,0,-2121110,0,0
15,337,493.196931900457,0,0,505097.397383689,505098.444409365,1,75,15,0,0,26,3,9273322,0,3201190,0,2151080,3081061,0,0,0,0,4041181,0,0,0,0,0,0,0,0,0,0,0,0,0,0,0,0,0,0,-3201190,0,0,0,0,0,0,0,0,0,0
15,338,714.144120633136,1,0,505100.032607001,505101.079638452,1,75,15,0,1,32,3,0,5362212,3160101,1080021,0,0,0,0,0,0,0,0,0,0,2171121,0,3191091,0,0,0,0,0,0,0,0,0,0,0,0,3160101,0,0,0,0,0,-1080021,0,0,0,0
15,339,619.130665843841,1,1,505102.973699505,505104.020528936,1,75,15,0,0,18,7,12481371,9382370,4110040,0,0,1120050,0,0,4171030,4050161,3140130,0,0,0,0,4011130,0,0,0,0,1181130,-4190110,0,4110040,0,0,0,0,0,0,0,0,0,0,0,0,0,0,0,0
15,340,880.54811564507,0,0,505105.65598314,505106.703004966,1,75,15,0,0,31,7,1120071,10421393,6061210,4200111,0,0,1120071,0,0,0,0,0,0,0,0,4051151,0,0,0,2110141,2140070,2120031,0,0,0,3030130,3031080,0,0,0,0,0,0,0,-4200111,0,0,0,0,0
15,341,533.908093406353,1,0,505108.620601763,505109.667623204,1,75,15,1,1,10,3,0,6051251,3081051,3100160,0,0,0,0,0,0,0,0,0,-2040121,0,0,0,0,4011130,0,0,0,0,0,0,0,0,0,0,0,3081051,0,0,3100160,0,0,0,0,0,0
15,342,522.237231954932,1,0,505111.279356968,505112.326375715,1,75,15,1,1,3,7,4292151,10371131,8200101,1151031,0,0,-3111041,0,0,0,1181110,0,0,0,0,0,4160080,4201040,0,0,0,2010011,0,4190011,0,0,0,0,0,0,4010090,0,1151031,0,0,0,0,0,0,0
15,343,627.905166184064,0,0,505113.867511874,505114.914542169,1,75,15,0,0,23,7,3170221,3011120,5311371,4290251,0,0,0,0,0,2050111,0,0,1120110,0,0,0,0,3011120,0,0,0,0,2140130,0,2031161,0,-1140080,0,0,0,0,3090200,0,0,0,0,0,0,1200051,0
15,344,563.986633147579,1,0,505116.667434573,505117.714465254,1,75,15,0,1,9,7,7452411,7471391,4111111,3101050,0,4091120,0,0,0,2171110,0,0,-1190181,0,0,1180200,0,0,2140071,4151120,0,0,4111111,0,0,0,0,0,0,0,0,0,0,0,0,0,0,0,3101050,0
15,345,675.210323883221,1,0,505119.326189394,505120.373211221,1,75,15,1,1,5,3,6181181,0,0,6290191,0,0,3161041,0,-3020140,0,0,0,0,0,0,0,0,0,0,0,0,0,0,0,0,0,0,0,0,0,0,0,0,4180020,0,0,0,2110171,0,0
15,346,709.920328983571,1,0,505122.255518646,505123.302537778,1,75,15,0,1,34,3,3191160,3081110,0,4081271,0,0,3191160,0,0,0,0,0,0,0,0,3081110,0,0,0,0,0,0,0,0,0,0,0,0,0,0,0,0,0,0,1021120,0,0,-3060151,0,0
15,347,763.54693074245,0,0,505125.090792311,505126.137786035,1,75,15,1,0,17,7,9491240,14413444,1180071,0,0,4100050,2191140,0,0,0,0,3200050,0,4130071,0,0,0,3011081,0,4071101,-3201191,0,0,0,0,0,0,0,1180071,0,0,0,0,0,0,0,0,0,0,0
15,348,618.111759307794,0,0,505127.961240244,505129.00826592,1,75,15,1,0,12,7,11252182,2342301,0,9270142,4071041,4101030,0,0,0,0,0,3080111,0,0,0,-1161191,0,0,0,0,1181110,0,0,0,0,0,0,0,0,0,0,4060090,2020031,3190021,0,0,0,0,0,0
15,349,503.956205793656,0,0,505130.643520414,505131.690544165,1,75,15,1,0,21,3,5101210,0,1141080,4160151,0,0,3041030,0,2060180,0,0,0,0,0,0,0,0,0,0,0,0,0,0,0,-1141080,0,0,0,0,0,0,0,0,0,4160151,0,0,0,0,0
15,350,711.058273620438,1,0,505133.208150739,505134.2551845,1,75,15,1,1,6,3,3242321,0,0,4200130,1111071,0,0,1030100,0,-1101150,0,0,0,0,0,0,0,0,0,0,0,0,0,0,0,0,0,0,0,0,0,0,0,4200130,0,0,0,0,0,0
15,351,1372.12516978616,1,0,505136.008077289,505137.055091416,1,75,15,1,1,33,7,4181170,2201131,5261252,12262403,0,0,4181170,0,0,0,0,0,0,0,0,0,0,0,0,0,2201131,0,0,0,4181201,0,0,0,0,0,1080051,0,0,1070041,3030141,0,-4011081,4151140,0,0
15,352,928.524645336438,1,0,505139.525655761,505140.572650256,1,75,15,0,1,24,7,7291331,3060040,10431352,2180030,0,3161130,1060010,0,3070191,0,0,0,0,0,0,3060040,0,0,0,0,0,0,0,0,4130161,0,0,-4170051,2131140,0,0,0,0,0,0,2180030,0,0,0,0
15,353,570.604112057481,0,0,505142.525546432,505143.572611759,1,75,15,1,0,8,7,10371272,5301351,4091060,4211261,4120160,0,0,0,0,0,0,-2071081,4180031,0,3170151,0,0,0,0,2131200,0,0,4091060,0,0,0,0,0,0,0,0,0,0,0,0,0,0,1081121,0,3130140
15,354,1113.45989105757,0,0,505145.266639398,505146.313669309,1,75,15,1,0,27,7,10362633,1010140,4090051,8292062,4101171,0,0,0,0,1021201,0,1050160,4190101,0,0,0,0,0,0,0,0,1010140,0,0,0,0,0,0,0,0,-4090051,0,0,0,0,0,4101051,4191011,0,0
15,355,510.309601493645,0,0,505148.548900474,505149.595922301,1,75,15,1,0,20,3,5300322,0,5212150,0,3160131,0,0,0,0,0,0,2140191,0,0,0,0,0,0,0,0,0,0,0,-2071060,0,0,0,0,0,0,3141090,0,0,0,0,0,0,0,0,0
15,356,632.078527938575,1,0,505151.231176024,505152.27820401,1,75,15,0,1,36,3,0,3200030,5151392,2071170,0,0,0,0,0,0,0,0,0,0,0,0,0,0,3200030,0,0,0,4120201,0,0,1031191,0,0,0,0,0,0,0,0,0,0,0,0,0,-2071170
15,357,747.200718382373,0,0,505153.936984623,505154.984014919,1,75,15,0,0,25,3,0,4200170,5122251,3061170,0,0,0,0,0,0,0,0,0,0,4200170,0,0,0,0,0,0,0,3091081,0,0,0,0,0,-2031170,0,0,0,0,0,0,3061170,0,0,0,0
15,358,706.340192060452,1,0,505156.795727048,505157.842756574,1,75,15,1,1,7,3,4030190,0,3152202,1090090,0,0,0,0,0,0,-4030190,0,0,0,0,0,0,0,0,0,0,0,0,0,0,0,0,0,1061031,0,2091171,0,0,0,1090090,0,0,0,0,0
15,359,531.801202043425,0,1,505159.713331159,505160.760316029,1,75,15,0,1,13,3,4031130,4371181,0,1111070,0,0,4031130,0,0,0,0,0,0,0,0,0,-2190091,0,0,2181090,0,0,0,0,0,0,0,0,0,0,0,0,0,0,0,0,0,1111070,0,0
15,360,1422.92846785858,0,0,505162.324978692,505163.372008988,1,75,15,0,0,2,7,4090170,5122171,6281331,10320301,0,-4090170,0,0,0,0,0,0,0,0,0,0,2081091,0,0,3041080,0,0,0,3090161,0,0,3191170,0,0,0,0,0,4110160,4030030,0,0,0,0,0,2180111
15,361,665.525091113523,1,0,505182.783233525,505183.830262666,1,75,16,1,1,6,3,3242321,0,0,4200130,1111071,0,0,1030100,0,-1101150,0,0,0,0,0,0,0,0,0,0,0,0,0,0,0,0,0,0,0,0,0,0,0,4200130,0,0,0,0,0,0
15,362,529.698545287829,1,0,505185.630211158,505186.677240299,1,75,16,1,1,10,3,0,6051251,3081051,3100160,0,0,0,0,0,0,0,0,0,-2040121,0,0,0,0,4011130,0,0,0,0,0,0,0,0,0,0,0,3081051,0,0,3100160,0,0,0,0,0,0
15,363,666.436293744482,1,0,505188.371322217,505189.418340964,1,75,16,1,1,5,3,6181181,0,0,6290191,0,0,3161041,0,-3020140,0,0,0,0,0,0,0,0,0,0,0,0,0,0,0,0,0,0,0,0,0,0,0,0,4180020,0,0,0,2110171,0,0
15,364,983.715343405493,0,0,505191.183009709,505192.230028841,1,75,16,0,0,23,3,0,4141201,7222221,0,0,0,0,0,0,0,0,0,0,0,0,0,4141201,0,0,0,0,0,3020101,0,0,0,-3151070,0,0,1051050,0,0,0,0,0,0,0,0,0,0
15,365,1149.76786903571,1,0,505194.335856534,505195.382872201,1,75,16,1,1,27,7,10362633,1010140,4090051,8292062,4101171,0,0,0,0,1021201,0,1050160,4190101,0,0,0,0,0,0,0,0,1010140,0,0,0,0,0,0,0,0,-4090051,0,0,0,0,0,4101051,4191011,0,0
15,366,775.249743950553,0,0,505197.606349353,505198.653378879,1,75,16,0,0,2,7,6281392,1061201,6341192,3080090,0,-3150121,1041180,0,0,0,0,2090091,0,0,0,0,0,1061201,0,0,0,0,2100101,0,0,3181041,0,1060050,0,0,0,0,3080090,0,0,0,0,0,0,0
15,367,587.598213693127,0,0,505200.51215595,505201.559180856,1,75,16,0,0,9,3,2121051,2161201,0,4301190,0,0,0,0,0,0,0,0,-2121051,0,0,0,0,2161201,0,0,0,0,0,0,0,0,0,0,0,0,0,0,3141170,0,0,0,0,1160020,0,0
15,368,472.392486641184,0,0,505203.206195523,505204.253217349,1,75,16,1,0,8,7,10371272,5301351,4091060,4211261,4120160,0,0,0,0,0,0,-2071081,4180031,0,3170151,0,0,0,0,2131200,0,0,4091060,0,0,0,0,0,0,0,0,0,0,0,0,0,0,1081121,0,3130140
15,369,769.116160925478,0,0,505205.888471458,505206.935499059,1,75,16,1,0,17,7,9491240,14413444,1180071,0,0,4100050,2191140,0,0,0,0,3200050,0,4130071,0,0,0,3011081,0,4071101,-3201191,0,0,0,0,0,0,0,1180071,0,0,0,0,0,0,0,0,0,0,0
15,370,825.294668902643,0,0,505208.794273051,505209.841301807,1,75,16,1,0,33,7,4181170,2201131,5261252,12262403,0,0,4181170,0,0,0,0,0,0,0,0,0,0,0,0,0,2201131,0,0,0,4181201,0,0,0,0,0,1080051,0,0,1070041,3030141,0,-4011081,4151140,0,0
15,371,665.702173195314,1,0,505211.758901298,505212.805921969,1,75,16,0,1,24,7,0,7401270,8361280,5272351,0,0,0,0,0,0,0,0,0,0,0,0,2100140,0,0,0,4130110,1171020,2130060,0,0,0,0,-2030020,0,4201200,0,1121190,0,0,4151161,0,0,0,0,0
15,372,673.118831065949,1,0,505214.523525772,505215.570549909,1,75,16,1,1,7,3,4030190,0,3152202,1090090,0,0,0,0,0,0,-4030190,0,0,0,0,0,0,0,0,0,0,0,0,0,0,0,0,0,1061031,0,2091171,0,0,0,1090090,0,0,0,0,0
15,373,922.053451591637,1,0,505217.417560263,505218.464580935,1,75,16,1,1,3,7,4292151,10371131,8200101,1151031,0,0,-3111041,0,0,0,1181110,0,0,0,0,0,4160080,4201040,0,0,0,2010011,0,4190011,0,0,0,0,0,0,4010090,0,1151031,0,0,0,0,0,0,0
15,374,513.590623799246,0,0,505220.45279574,505221.499799858,1,75,16,1,0,21,3,5101210,0,1141080,4160151,0,0,3041030,0,2060180,0,0,0,0,0,0,0,0,0,0,0,0,0,0,0,-1141080,0,0,0,0,0,0,0,0,0,4160151,0,0,0,0,0
15,375,1104.87333679339,0,0,505223.158578931,505224.205604993,1,75,16,0,0,18,7,2081090,8251433,3090091,9391291,0,0,0,2081090,0,0,0,0,0,0,2030101,0,0,0,0,2081201,0,-4140131,0,0,0,0,0,0,3090091,0,0,1190111,0,0,0,0,0,4160020,4041160,0
15,376,753.662288130727,1,0,505226.452659849,505227.499660887,1,75,16,1,1,20,3,5300322,0,5212150,0,3160131,0,0,0,0,0,0,2140191,0,0,0,0,0,0,0,0,0,0,0,-2071060,0,0,0,0,0,0,3141090,0,0,0,0,0,0,0,0,0
15,377,771.492524945643,1,0,505229.28782149,505230.334846781,1,75,16,0,1,26,3,1130161,1090091,7181271,0,0,0,0,0,1130161,0,0,0,0,0,0,1090091,0,0,0,0,0,0,0,0,0,0,0,3171080,0,-4010191,0,0,0,0,0,0,0,0,0,0
15,378,1138.95008113468,1,0,505232.20538133,505233.252413936,1,75,16,0,1,34,7,5282110,8142262,0,4342241,1171020,2071010,0,0,0,0,0,2040080,0,0,0,4080080,0,1021101,0,0,3041081,0,0,0,0,0,0,0,0,0,0,0,2201121,0,0,0,0,-2141120,0,0
15,379,1265.93099394813,1,0,505235.499412203,505236.546434029,1,75,16,1,1,12,7,11252182,2342301,0,9270142,4071041,4101030,0,0,0,0,0,3080111,0,0,0,-1161191,0,0,0,0,1181110,0,0,0,0,0,0,0,0,0,0,4060090,2020031,3190021,0,0,0,0,0,0
15,380,602.68136911327,0,0,505238.981672047,505240.028688099,1,75,16,0,0,31,3,2020080,0,3020060,6041241,0,2020080,0,0,0,0,0,0,0,0,0,0,0,0,0,0,0,0,0,0,0,3020060,0,0,0,0,0,3030201,0,0,-3011040,0,0,0,0,0
15,381,819.8162894696,0,0,505241.687473331,505242.734503242,1,75,16,0,0,36,3,0,1110191,3040091,6111401,0,0,0,0,0,0,0,0,0,0,0,0,0,0,0,1110191,0,0,0,0,0,0,0,3040091,0,0,0,0,0,0,0,3090201,0,0,0,-3021200
15,382,652.883358125109,0,0,505244.640331012,505245.687355918,1,75,16,0,0,13,3,1051010,5332211,3031060,0,0,0,0,0,0,0,0,0,1051010,0,1191101,0,-4141110,0,0,0,0,0,0,3031060,0,0,0,0,0,0,0,0,0,0,0,0,0,0,0,0
15,383,993.300486414228,0,0,505247.510842848,505248.557863135,1,75,16,0,0,25,7,9182412,1020140,8421351,4090200,0,0,0,0,1031201,4131030,4020181,0,0,0,0,0,0,1020140,0,0,0,0,0,0,3150110,0,0,0,-2081110,0,3190131,0,0,0,0,0,0,4090200,0,0
15,384,525.686867069453,0,0,505250.675462549,505251.722487841,1,75,16,0,0,32,7,6110071,5240262,5082220,2101071,2070060,4040011,0,0,0,0,0,0,0,0,0,0,0,0,2130141,1090021,2020100,0,0,0,0,2011050,0,0,0,3071170,0,0,0,0,0,-2101071,0,0,0,0
15,385,738.341611810029,1,0,505270.992529871,505272.039560936,1,75,17,0,1,24,3,1070061,1051090,1030101,2181150,0,0,0,0,0,1070061,0,0,0,1051090,0,0,0,0,0,0,0,0,0,0,0,0,0,-1030101,0,0,0,0,0,2181150,0,0,0,0,0,0
15,386,490.623082907405,0,0,505273.898341087,505274.945365224,1,75,17,0,0,23,7,4082252,4111130,8641343,2140180,0,3061161,0,0,1021091,0,0,0,0,0,0,0,0,0,0,0,0,4111130,3160041,0,1200090,0,-1100051,0,3181161,0,0,0,0,0,0,2140180,0,0,0,0
15,387,536.565093963873,0,0,505276.439437595,505277.48647097,1,75,17,1,0,3,7,4292151,10371131,8200101,1151031,0,0,-3111041,0,0,0,1181110,0,0,0,0,0,4160080,4201040,0,0,0,2010011,0,4190011,0,0,0,0,0,0,4010090,0,1151031,0,0,0,0,0,0,0
15,388,724.362139473669,1,0,505279.027605204,505280.0746278,1,75,17,0,1,2,7,3061050,6401151,7241172,7331091,0,-3061050,0,0,0,0,0,0,0,0,0,0,3120051,0,2110040,0,0,1171060,0,0,0,0,3071051,0,0,4170121,0,0,0,0,0,0,3151061,0,4180030,0
15,389,488.111982587725,1,0,505281.862822279,505282.909842181,1,75,17,1,1,6,3,3242321,0,0,4200130,1111071,0,0,1030100,0,-1101150,0,0,0,0,0,0,0,0,0,0,0,0,0,0,0,0,0,0,0,0,0,0,0,4200130,0,0,0,0,0,0
15,390,773.395771975629,0,0,505284.580396825,505285.627419036,1,75,17,1,0,8,7,10371272,5301351,4091060,4211261,4120160,0,0,0,0,0,0,-2071081,4180031,0,3170151,0,0,0,0,2131200,0,0,4091060,0,0,0,0,0,0,0,0,0,0,0,0,0,0,1081121,0,3130140
15,391,499.700462387409,0,0,505287.439186985,505288.486159922,1,75,17,0,0,34,3,2141070,0,8151132,4080061,0,0,2141070,0,0,0,0,0,0,0,0,0,0,0,0,0,0,0,0,0,0,0,0,4110101,4041031,0,0,0,0,0,0,0,0,-4080061,0,0
15,392,754.089209833182,0,0,505290.003767266,505291.050796022,1,75,17,0,0,36,7,4281071,7181172,6381210,4011081,0,0,0,0,1191011,0,3090060,0,0,0,0,4081111,0,0,0,0,0,3100061,0,0,0,0,2170030,2201120,0,0,2010060,0,0,0,0,0,0,0,0,-4011081
15,393,612.566781579517,1,0,505292.88603812,505293.933116536,1,75,17,0,1,32,3,3201040,4110081,0,4032131,0,3201040,0,0,0,0,0,0,0,0,0,4110081,0,0,0,0,0,0,0,0,0,0,0,0,0,0,0,0,0,0,3021050,-1011081,0,0,0,0
15,394,871.00069882581,0,0,505295.603609971,505296.650641421,1,75,17,1,0,33,7,4181170,2201131,5261252,12262403,0,0,4181170,0,0,0,0,0,0,0,0,0,0,0,0,0,2201131,0,0,0,4181201,0,0,0,0,0,1080051,0,0,1070041,3030141,0,-4011081,4151140,0,0
15,395,553.417914896272,1,0,505298.615292766,505299.662320367,1,75,17,1,1,20,3,5300322,0,5212150,0,3160131,0,0,0,0,0,0,2140191,0,0,0,0,0,0,0,0,0,0,0,-2071060,0,0,0,0,0,0,3141090,0,0,0,0,0,0,0,0,0
15,396,515.997014765162,0,0,505301.297570626,505302.344598997,1,75,17,0,0,13,3,4120080,4191382,1071181,0,0,0,0,0,0,4120080,0,0,0,0,1100201,0,-3091181,0,0,0,0,0,0,0,0,0,1071181,0,0,0,0,0,0,0,0,0,0,0,0,0
15,397,727.838721883018,0,0,505304.026913044,505305.073926786,1,75,17,1,0,7,3,4030190,0,3152202,1090090,0,0,0,0,0,0,-4030190,0,0,0,0,0,0,0,0,0,0,0,0,0,0,0,0,0,1061031,0,2091171,0,0,0,1090090,0,0,0,0,0
15,398,886.604321480263,1,0,505306.873886827,505307.920972172,1,75,17,1,1,17,7,9491240,14413444,1180071,0,0,4100050,2191140,0,0,0,0,3200050,0,4130071,0,0,0,3011081,0,4071101,-3201191,0,0,0,0,0,0,0,1180071,0,0,0,0,0,0,0,0,0,0,0
15,399,1584.32912518037,0,0,505309.897335954,505310.944352006,1,75,17,0,0,31,7,2200130,6131151,7122300,11332212,0,0,0,2200130,0,0,0,0,0,0,0,3071091,0,0,3060060,0,0,0,0,0,0,0,4011180,0,0,0,3111120,4151071,0,0,-3161101,4020040,0,0,0,0
15,400,1121.80776946479,0,0,505313.626632561,505314.673657852,1,75,17,0,0,26,7,3391350,6171151,2030021,2241310,1070150,0,1121190,0,1200010,0,0,0,0,0,0,0,0,0,3091121,0,0,3080030,0,0,0,0,0,0,0,-2030021,0,0,0,0,0,0,1141200,1100110,0,0
15,401,1690.34429418389,0,0,505316.897130385,505317.944158371,1,75,17,1,0,10,3,0,6051251,3081051,3100160,0,0,0,0,0,0,0,0,0,-2040121,0,0,0,0,4011130,0,0,0,0,0,0,0,0,0,0,0,3081051,0,0,3100160,0,0,0,0,0,0
15,402,734.84924598597,0,0,505320.720562266,505321.767581398,1,75,17,0,0,25,3,0,6280241,4171131,4180151,0,0,0,0,0,0,0,0,0,0,0,0,4100091,0,0,0,0,2180150,0,0,0,0,0,0,-4171131,0,0,0,4180151,0,0,0,0,0,0,0
15,403,1542.83110349206,1,0,505323.567539514,505324.61456288,1,75,17,0,1,9,7,12623493,0,9442402,1121081,4201170,0,0,1180081,0,0,3171051,0,-4071191,0,0,0,0,0,0,0,0,0,2160201,0,0,0,3101060,4181141,0,0,0,0,0,1121081,0,0,0,0,0,0
15,404,1471.22990462231,1,0,505327.179197441,505328.226227736,1,75,17,1,1,12,7,11252182,2342301,0,9270142,4071041,4101030,0,0,0,0,0,3080111,0,0,0,-1161191,0,0,0,0,1181110,0,0,0,0,0,0,0,0,0,0,4060090,2020031,3190021,0,0,0,0,0,0
15,405,1311.95423175814,0,0,505330.767341567,505331.814356464,1,75,17,1,0,5,3,6181181,0,0,6290191,0,0,3161041,0,-3020140,0,0,0,0,0,0,0,0,0,0,0,0,0,0,0,0,0,0,0,0,0,0,0,0,4180020,0,0,0,2110171,0,0
15,406,567.458981007803,1,0,505334.331940326,505335.378963692,1,75,17,1,1,21,3,5101210,0,1141080,4160151,0,0,3041030,0,2060180,0,0,0,0,0,0,0,0,0,0,0,0,0,0,0,-1141080,0,0,0,0,0,0,0,0,0,4160151,0,0,0,0,0
15,407,669.515211484395,1,0,505337.143636287,505338.19069199,1,75,17,1,1,27,7,10362633,1010140,4090051,8292062,4101171,0,0,0,0,1021201,0,1050160,4190101,0,0,0,0,0,0,0,0,1010140,0,0,0,0,0,0,0,0,-4090051,0,0,0,0,0,4101051,4191011,0,0
15,408,928.521180641837,1,0,505339.884726173,505340.931755314,1,75,17,0,1,18,3,0,4011101,4120140,7181382,0,0,0,0,0,0,0,0,0,0,0,0,0,0,0,0,0,-4011101,0,4120140,0,0,0,0,0,0,0,0,0,4170181,0,3011201,0,0,0,0
15,409,742.93342611054,0,0,505375.966068039,505377.01309795,1,75,18,1,0,10,3,0,6051251,3081051,3100160,0,0,0,0,0,0,0,0,0,-2040121,0,0,0,0,4011130,0,0,0,0,0,0,0,0,0,0,0,3081051,0,0,3100160,0,0,0,0,0,0
15,410,544.667752226815,1,0,505378.860154885,505379.907152459,1,75,18,1,1,21,3,5101210,0,1141080,4160151,0,0,3041030,0,2060180,0,0,0,0,0,0,0,0,0,0,0,0,0,0,0,-1141080,0,0,0,0,0,0,0,0,0,4160151,0,0,0,0,0
15,411,694.235864561051,0,0,505381.530622913,505382.577646664,1,75,18,0,0,34,3,0,5141181,0,6261330,0,0,0,0,0,0,0,0,0,0,0,0,1061171,0,0,0,0,4080010,0,0,0,0,0,0,0,0,0,4150200,0,0,0,0,0,-2111130,0,0
15,412,403.501027962193,0,0,505384.342303475,505385.389327226,1,75,18,1,0,8,7,10371272,5301351,4091060,4211261,4120160,0,0,0,0,0,0,-2071081,4180031,0,3170151,0,0,0,0,2131200,0,0,4091060,0,0,0,0,0,0,0,0,0,0,0,0,0,0,1081121,0,3130140
15,413,594.26073305076,0,0,505386.977532561,505388.024554388,1,75,18,1,0,6,3,3242321,0,0,4200130,1111071,0,0,1030100,0,-1101150,0,0,0,0,0,0,0,0,0,0,0,0,0,0,0,0,0,0,0,0,0,0,0,4200130,0,0,0,0,0,0
15,414,623.861151223537,0,1,505389.706866895,505390.753881022,1,75,18,0,1,13,7,4070110,18704752,3090031,0,0,0,0,0,0,0,0,0,4070110,4201200,3131010,0,-3040151,0,3020071,3191190,2121130,0,0,0,0,0,3090031,0,0,0,0,0,0,0,0,0,0,0,0,0
15,415,729.007078392897,1,0,505392.50678921,505393.553810266,1,75,18,1,1,12,7,11252182,2342301,0,9270142,4071041,4101030,0,0,0,0,0,3080111,0,0,0,-1161191,0,0,0,0,1181110,0,0,0,0,0,0,0,0,0,0,4060090,2020031,3190021,0,0,0,0,0,0
15,416,1864.07294136006,1,0,505395.459646505,505396.506667947,1,75,18,1,1,3,7,4292151,10371131,8200101,1151031,0,0,-3111041,0,0,0,1181110,0,0,0,0,0,4160080,4201040,0,0,0,2010011,0,4190011,0,0,0,0,0,0,4010090,0,1151031,0,0,0,0,0,0,0
15,417,629.310658609029,0,0,505399.518352282,505400.565376418,1,75,18,0,0,23,3,0,2151161,2160101,7261360,0,0,0,0,0,0,0,0,0,0,2151161,0,0,0,0,0,0,0,0,0,0,0,-2160101,0,0,0,0,0,0,0,0,3071160,0,4190200,0,0
15,418,555.7992834365,1,0,505402.388862193,505403.435920976,1,75,18,1,1,17,7,9491240,14413444,1180071,0,0,4100050,2191140,0,0,0,0,3200050,0,4130071,0,0,0,3011081,0,4071101,-3201191,0,0,0,0,0,0,0,1180071,0,0,0,0,0,0,0,0,0,0,0
15,419,610.50839535892,1,0,505405.071141594,505406.11816034,1,75,18,1,1,20,3,5300322,0,5212150,0,3160131,0,0,0,0,0,0,2140191,0,0,0,0,0,0,0,0,0,0,0,-2071060,0,0,0,0,0,0,3141090,0,0,0,0,0,0,0,0,0
15,420,654.461313097272,0,0,505407.871065063,505408.918087275,1,75,18,0,0,25,3,0,4150021,6291250,1181091,0,0,0,0,0,0,0,0,0,4150021,0,0,0,0,0,0,0,0,0,0,0,0,0,2181160,-4110090,0,0,0,0,0,1181091,0,0,0,0,0
15,421,520.758981816471,1,0,505410.729804793,505411.7768297,1,75,18,1,1,7,3,4030190,0,3152202,1090090,0,0,0,0,0,0,-4030190,0,0,0,0,0,0,0,0,0,0,0,0,0,0,0,0,0,1061031,0,2091171,0,0,0,1090090,0,0,0,0,0
15,422,626.391499652527,0,0,505413.412081499,505414.459101016,1,75,18,0,0,18,3,2051201,3100020,2160110,0,1010031,1041170,0,0,0,0,0,0,0,0,0,0,0,0,0,0,0,-3100020,0,0,2160110,0,0,0,0,0,0,0,0,0,0,0,0,0,0,0
15,423,738.491746538784,0,0,505416.16495042,505417.211966088,1,75,18,0,0,32,7,8223341,2160381,5252231,4101150,2131030,0,2061191,0,0,0,0,0,4031120,1130190,0,0,0,0,0,0,0,1030191,0,3151070,0,2101161,0,0,0,0,0,0,0,0,0,-4101150,0,0,0,0
15,424,1422.4484214792,0,0,505419.058982217,505420.106013282,1,75,18,0,0,2,7,6531130,5251221,3170101,7240240,1160010,-1170090,0,0,0,0,0,0,4201030,0,0,0,0,0,0,3111040,2140181,0,0,0,0,0,0,0,0,0,3170101,4170200,0,0,0,0,0,0,0,3070040
15,425,1088.24648795417,1,0,505422.647119799,505423.69414432,1,75,18,0,1,31,3,0,7201331,0,3192261,0,0,0,0,0,0,0,0,0,0,3090140,0,0,0,0,0,0,4111191,0,0,0,0,0,0,0,0,0,0,2131121,0,-1061140,0,0,0,0,0
15,426,666.312721266877,1,0,505425.847026561,505426.894051852,1,75,18,0,1,9,7,3072150,14483583,0,4111111,0,0,0,0,2041020,0,0,0,-1031130,0,3051071,0,0,1110200,4111151,0,3190080,3021081,0,0,0,0,0,0,0,0,0,4111111,0,0,0,0,0,0,0,0
15,427,636.532526288647,0,0,505428.752826999,505429.799851135,1,75,18,1,0,5,3,6181181,0,0,6290191,0,0,3161041,0,-3020140,0,0,0,0,0,0,0,0,0,0,0,0,0,0,0,0,0,0,0,0,0,0,0,0,4180020,0,0,0,2110171,0,0
15,428,798.117194965016,1,0,505431.482158637,505432.529186623,1,75,18,0,1,24,3,0,5221251,5192111,0,0,0,0,0,0,0,0,0,0,0,0,0,4080120,1141131,0,0,0,0,0,4181060,0,0,0,-1011051,0,0,0,0,0,0,0,0,0,0,0,0
15,429,904.354101512581,0,0,505434.482087035,505435.529103087,1,75,18,0,0,36,7,5182262,0,10432292,8342241,0,0,0,0,0,0,4021101,0,1161161,0,0,0,0,0,0,0,0,0,0,0,0,4161071,0,0,0,3160101,3111120,0,0,0,3141170,0,0,0,1020041,-4181030
15,430,891.508724133018,1,0,505437.446707582,505438.493724789,1,75,18,1,1,27,7,10362633,1010140,4090051,8292062,4101171,0,0,0,0,1021201,0,1050160,4190101,0,0,0,0,0,0,0,0,1010140,0,0,0,0,0,0,0,0,-4090051,0,0,0,0,0,4101051,4191011,0,0
15,431,692.952404730022,1,0,505440.505445311,505441.552465982,1,75,18,0,1,26,7,3191201,4150201,6302321,5320272,0,0,0,0,0,0,0,3191201,0,0,3090141,0,0,0,0,0,1060060,0,0,3101120,0,0,0,0,0,-1061020,2140181,0,4120171,0,0,0,1200101,0,0,0
15,432,801.37088499032,0,0,505443.434768788,505444.481795619,1,75,18,1,0,33,7,4181170,2201131,5261252,12262403,0,0,4181170,0,0,0,0,0,0,0,0,0,0,0,0,0,2201131,0,0,0,4181201,0,0,0,0,0,1080051,0,0,1070041,3030141,0,-4011081,4151140,0,0
15,433,796.720171638299,1,0,505450.634572766,505451.681593053,1,75,19,1,1,12,7,11252182,2342301,0,9270142,4071041,4101030,0,0,0,0,0,3080111,0,0,0,-1161191,0,0,0,0,1181110,0,0,0,0,0,0,0,0,0,0,4060090,2020031,3190021,0,0,0,0,0,0
15,434,1680.03234494245,1,0,505453.658016888,505454.705040255,1,75,19,0,1,13,7,6381283,8310300,0,8250232,0,0,2160031,0,3061201,0,1160051,0,0,0,0,0,-4140130,0,0,4170170,0,0,0,0,0,0,0,0,0,0,0,0,3060151,2100051,0,3090030,0,0,0,0
15,435,712.526514718775,1,0,505457.422611721,505458.469640477,1,75,19,1,1,10,3,0,6051251,3081051,3100160,0,0,0,0,0,0,0,0,0,-2040121,0,0,0,0,4011130,0,0,0,0,0,0,0,0,0,0,0,3081051,0,0,3100160,0,0,0,0,0,0
15,436,673.048768134322,0,0,505460.246064005,505461.293086986,1,75,19,1,0,6,3,3242321,0,0,4200130,1111071,0,0,1030100,0,-1101150,0,0,0,0,0,0,0,0,0,0,0,0,0,0,0,0,0,0,0,0,0,0,0,4200130,0,0,0,0,0,0
15,437,770.107820397243,0,0,505462.998922532,505464.045953983,1,75,19,1,0,27,7,10362633,1010140,4090051,8292062,4101171,0,0,0,0,1021201,0,1050160,4190101,0,0,0,0,0,0,0,0,1010140,0,0,0,0,0,0,0,0,-4090051,0,0,0,0,0,4101051,4191011,0,0
15,438,510.125590197276,1,0,505465.998850929,505467.045868521,1,75,19,0,1,9,7,5181201,0,9492291,8252432,0,0,2130091,0,0,0,0,0,-3051110,0,0,0,0,0,0,0,0,0,0,4170050,0,0,0,0,0,3131190,2191051,2041171,0,3090161,0,0,3121100,0,0,0
15,439,998.176401946694,0,0,505468.751707917,505469.798734363,1,75,19,0,0,25,7,3050011,5131120,10353443,4041120,0,0,3050011,0,0,0,0,0,0,0,0,0,0,0,0,1081040,4050080,0,0,4111140,0,0,0,4061081,-1040121,0,1141101,0,0,0,0,0,4041120,0,0,0
15,440,816.253860713914,1,0,505471.951622379,505472.998643051,1,75,19,0,1,23,3,3131091,2070041,4191160,2161030,0,0,0,0,3131091,0,0,0,0,0,0,2070041,0,0,0,0,0,0,0,0,0,0,-4191160,0,0,0,0,0,0,0,0,2161030,0,0,0,0
15,441,611.43268662272,1,0,505474.857420122,505475.904446568,1,75,19,1,1,5,3,6181181,0,0,6290191,0,0,3161041,0,-3020140,0,0,0,0,0,0,0,0,0,0,0,0,0,0,0,0,0,0,0,0,0,0,0,0,4180020,0,0,0,2110171,0,0
15,442,800.218311836943,0,0,505477.539701062,505478.586724428,1,75,19,1,0,3,7,4292151,10371131,8200101,1151031,0,0,-3111041,0,0,0,1181110,0,0,0,0,0,4160080,4201040,0,0,0,2010011,0,4190011,0,0,0,0,0,0,4010090,0,1151031,0,0,0,0,0,0,0
15,443,755.664855008945,0,0,505480.563158273,505481.610163161,1,75,19,0,0,36,3,0,4120201,4160041,4321140,0,0,0,0,0,0,0,0,0,0,0,0,0,0,0,0,4120201,0,0,0,0,4160041,0,0,0,0,0,0,0,0,0,0,0,0,3190090,-1131050
15,444,797.710676211864,0,0,505483.457188145,505484.504245387,1,75,19,0,0,24,7,5142191,8030112,13292453,0,2061141,0,0,0,3081050,0,0,0,0,0,0,0,0,0,4010081,0,0,4020031,0,0,0,0,4141151,-3070031,0,4021170,2060101,0,0,0,0,0,0,0,0,0
15,445,770.59518097667,1,0,505486.398269869,505487.44529747,1,75,19,1,1,8,7,10371272,5301351,4091060,4211261,4120160,0,0,0,0,0,0,-2071081,4180031,0,3170151,0,0,0,0,2131200,0,0,4091060,0,0,0,0,0,0,0,0,0,0,0,0,0,0,1081121,0,3130140
15,446,719.45234737359,0,0,505489.245252507,505490.292278183,1,75,19,0,0,31,3,0,6262081,0,8081271,0,0,0,0,0,0,0,0,0,4091010,0,2171071,0,0,0,0,0,0,0,0,0,0,0,0,0,0,0,0,0,0,-4010191,4071080,0,0,0,0
15,447,652.088028786238,0,0,505492.221644391,505493.268659288,1,75,19,0,0,26,3,1081121,0,6361080,2171101,0,0,0,0,0,0,1081121,0,0,0,0,0,0,0,0,0,0,0,0,0,0,0,0,2190030,0,-4171050,0,0,2171101,0,0,0,0,0,0,0
15,448,544.828280981164,0,0,505494.998031733,505496.045058949,1,75,19,1,0,20,3,5300322,0,5212150,0,3160131,0,0,0,0,0,0,2140191,0,0,0,0,0,0,0,0,0,0,0,-2071060,0,0,0,0,0,0,3141090,0,0,0,0,0,0,0,0,0
15,449,968.627568508964,1,0,505497.645020221,505498.692045898,1,75,19,0,1,18,3,0,2030020,0,9342371,0,0,0,0,0,0,0,0,0,0,0,0,0,0,0,0,0,-2030020,0,0,0,0,0,0,0,0,0,0,1080120,4201190,4061061,0,0,0,0,0
15,450,1037.92169637745,1,0,505500.70375872,505501.750777852,1,75,19,1,1,33,7,4181170,2201131,5261252,12262403,0,0,4181170,0,0,0,0,0,0,0,0,0,0,0,0,0,2201131,0,0,0,4181201,0,0,0,0,0,1080051,0,0,1070041,3030141,0,-4011081,4151140,0,0
15,451,1358.14223281341,1,0,505503.85660593,505504.903630451,1,75,19,1,1,7,3,4030190,0,3152202,1090090,0,0,0,0,0,0,-4030190,0,0,0,0,0,0,0,0,0,0,0,0,0,0,0,0,0,1061031,0,2091171,0,0,0,1090090,0,0,0,0,0
15,452,579.394310654607,0,0,505507.421223167,505508.468233444,1,75,19,1,0,17,7,9491240,14413444,1180071,0,0,4100050,2191140,0,0,0,0,3200050,0,4130071,0,0,0,3011081,0,4071101,-3201191,0,0,0,0,0,0,0,1180071,0,0,0,0,0,0,0,0,0,0,0
15,453,1876.88059255015,0,0,505510.138788088,505511.185806065,1,75,19,0,0,32,3,1161080,2061080,0,2151190,0,0,0,1161080,0,0,0,0,0,0,0,0,0,0,0,0,2061080,0,0,0,0,0,0,0,0,0,0,0,0,1031170,0,-1120020,0,0,0,0
15,454,437.227072776295,0,0,505514.103380149,505515.15040852,1,75,19,1,0,21,3,5101210,0,1141080,4160151,0,0,3041030,0,2060180,0,0,0,0,0,0,0,0,0,0,0,0,0,0,0,-1141080,0,0,0,0,0,0,0,0,0,4160151,0,0,0,0,0
15,455,1222.26602700539,1,0,505516.703300616,505517.750335916,1,75,19,0,1,2,7,5340422,2110170,5191250,7291101,2110091,-1170160,0,0,0,2060171,0,0,0,0,0,0,0,0,2110170,0,0,0,0,0,0,0,3011050,0,0,2180200,0,0,0,0,4190021,3101080,0,0,0,0
15,456,1627.05247761915,1,0,505520.091447899,505521.138470111,1,75,19,0,1,34,7,11273512,0,8231061,5170152,0,3030071,0,0,3111090,0,3111200,2021151,0,0,0,0,0,0,0,0,0,0,4090051,0,0,4141010,0,0,0,0,0,0,0,0,0,0,0,-3150091,2020061,0
15,457,589.769008511212,1,0,505541.455550136,505542.502580046,1,75,20,0,1,18,3,4170091,4382492,0,0,0,0,0,0,0,0,0,4170091,0,0,1081191,0,1120120,0,0,0,0,-2181181,0,0,0,0,0,0,0,0,0,0,0,0,0,0,0,0,0,0
15,458,446.209751884453,0,0,505544.231944407,505545.278977397,1,75,20,1,0,8,7,10371272,5301351,4091060,4211261,4120160,0,0,0,0,0,0,-2071081,4180031,0,3170151,0,0,0,0,2131200,0,0,4091060,0,0,0,0,0,0,0,0,0,0,0,0,0,0,1081121,0,3130140
15,459,595.466045779176,0,0,505546.93775493,505547.984774062,1,75,20,0,0,2,3,3011141,4111130,6290181,0,0,-3011141,0,0,0,0,0,0,0,0,0,0,0,0,4111130,0,0,0,0,4190101,0,0,0,2100080,0,0,0,0,0,0,0,0,0,0,0,0
15,460,524.063871707767,0,0,505549.714146121,505550.761167948,1,75,20,1,0,5,3,6181181,0,0,6290191,0,0,3161041,0,-3020140,0,0,0,0,0,0,0,0,0,0,0,0,0,0,0,0,0,0,0,0,0,0,0,0,4180020,0,0,0,2110171,0,0
15,461,587.948913162109,1,0,505552.408193778,505553.455207135,1,75,20,1,1,21,3,5101210,0,1141080,4160151,0,0,3041030,0,2060180,0,0,0,0,0,0,0,0,0,0,0,0,0,0,0,-1141080,0,0,0,0,0,0,0,0,0,4160151,0,0,0,0,0
15,462,1029.25391535973,0,0,505555.172816713,505556.219842389,1,75,20,0,0,36,7,3141020,6212232,4120141,10602400,0,3141020,0,0,0,0,0,0,0,0,0,0,0,0,3161131,3051101,0,0,0,0,0,0,0,0,0,4120141,0,2200100,4080190,0,2191040,0,0,0,0,-2131070
15,463,810.165318136569,0,0,505558.360965997,505559.407988594,1,75,20,0,0,34,7,0,3030020,4051020,16674752,0,0,0,0,0,0,0,0,0,0,0,0,0,0,0,0,0,3030020,0,4051020,0,0,0,0,0,0,0,3031100,4130141,4161031,0,0,0,-1120130,1191170,3041180
15,464,558.033596840687,1,0,505561.255002413,505562.30202039,1,75,20,1,1,27,7,10362633,1010140,4090051,8292062,4101171,0,0,0,0,1021201,0,1050160,4190101,0,0,0,0,0,0,0,0,1010140,0,0,0,0,0,0,0,0,-4090051,0,0,0,0,0,4101051,4191011,0,0
15,465,549.650301923975,0,0,505563.878457469,505564.925477755,1,75,20,0,0,23,3,8282091,4100131,2120101,0,4201020,0,0,4081071,0,0,0,0,0,0,0,0,0,0,0,4100131,0,0,0,0,0,0,-2120101,0,0,0,0,0,0,0,0,0,0,0,0,0
