sub_id,Trial,RT,Resp,Error,Fix_onset,Disp_onset,q1,q2,block,repeat,tid,tloc,d_setsize,quad1,quad2,quad3,quad4,loc1,loc2,loc3,loc4,loc5,loc6,loc7,loc8,loc9,loc10,loc11,loc12,loc13,loc14,loc15,loc16,loc17,loc18,loc19,loc20,loc21,loc22,loc23,loc24,loc25,loc26,loc27,loc28,loc29,loc30,loc31,loc32,loc33,loc34,loc35,loc36
10,1,679.645307656756,1,0,31070.8624713463,31071.909511266,0,10,1,1,1,17,3,4050031,6311121,1131191,0,0,0,0,0,0,0,0,0,4050031,0,0,2150051,0,0,0,0,-4161070,0,0,0,0,0,0,0,0,0,1131191,0,0,0,0,0,0,0,0,0
10,2,1022.94771836023,1,0,31073.615348352,31074.6623721034,0,10,1,0,1,31,3,3060100,0,6221230,2150170,0,0,0,0,0,3060100,0,0,0,0,0,0,0,0,0,0,0,0,0,0,0,0,3110060,0,3111170,0,0,0,0,0,-2150170,0,0,0,0,0
10,3,663.29447579119,1,0,31076.7799811416,31077.8270018133,0,10,1,1,1,29,7,3201171,8363502,7161291,4162111,0,0,0,0,0,0,0,0,3201171,3201160,0,0,1061151,0,0,0,0,4101191,0,0,0,0,3091100,0,0,4070191,0,0,-3061011,0,0,0,0,0,1101100,0
10,4,610.255709456396,0,0,31079.5328531429,31080.5798768942,0,10,1,0,0,28,7,4330211,4100141,2131180,10120273,3200141,0,0,0,0,1130070,0,0,0,0,1040040,0,0,0,3060101,0,0,0,0,0,2131180,0,0,0,0,0,0,-2010041,0,0,4090121,0,0,0,0,4020111
10,5,724.358523286355,1,0,31082.3327793074,31083.3798049835,0,10,1,1,1,32,3,0,2131120,3160151,6140342,0,0,0,0,0,0,0,0,0,0,0,2131120,0,0,0,0,0,0,0,0,0,0,0,0,0,3160151,0,0,0,4050171,0,-2090171,0,0,0,0
10,6,866.486110131518,1,0,31085.1444741134,31086.1915097985,0,10,1,1,1,6,3,4201080,5182261,0,4080170,0,0,0,0,0,-4201080,0,0,0,3171061,0,0,0,2011200,0,0,0,0,0,0,0,0,0,0,0,0,0,0,0,4080170,0,0,0,0,0,0
10,7,839.389478001976,1,0,31088.1326334842,31089.1796633948,0,10,1,1,1,25,3,3170150,2011021,1050131,3180101,0,0,0,3170150,0,0,0,0,0,0,0,0,0,0,0,2011021,0,0,0,0,0,0,0,0,-1050131,0,0,0,0,0,3180101,0,0,0,0,0
10,8,756.850383288111,0,0,31091.0972690455,31092.1443055005,0,10,1,0,0,13,3,1110161,2040071,4281211,0,0,0,1110161,0,0,0,0,0,0,0,0,0,-2040071,0,0,0,0,0,0,0,0,1201190,0,0,3080021,0,0,0,0,0,0,0,0,0,0,0
10,9,888.381534718064,0,0,31093.9324976699,31094.9795264257,0,10,1,1,0,15,7,9230391,10182332,3240261,0,0,0,2080120,4040110,0,0,0,3110161,0,3030110,0,0,0,0,-4021151,3131071,0,0,0,0,0,0,0,0,1150201,2090060,0,0,0,0,0,0,0,0,0,0
10,10,692.09148049049,1,0,31096.9089600019,31097.9559148452,0,10,1,1,1,7,7,6331171,10251353,4111232,3201141,0,0,0,0,0,0,-4131020,2200151,0,0,0,0,2130161,0,0,4041101,4080091,0,0,0,0,2081101,2030131,0,0,0,0,0,0,0,0,0,3201141,0,0,0
10,11,503.151485892886,1,0,31099.814697691,31100.8617299115,0,10,1,1,1,21,7,6420461,4010140,8350312,2051170,0,3140170,0,0,1200141,2080150,0,0,0,0,4010140,0,0,0,0,0,0,0,4060180,0,-2150031,0,0,0,0,2140101,0,0,0,0,0,2051170,0,0,0,0
10,12,4869.75404372788,1,0,31102.4852815921,31103.5322499091,0,10,1,1,1,1,7,8260131,3070060,14500582,4081140,-4180021,0,0,0,0,0,4080110,0,0,0,0,0,0,0,3070060,0,0,0,0,0,2160191,4080101,4060090,0,0,4200200,0,4081140,0,0,0,0,0,0,0,0
10,13,691.055550541932,0,0,31109.5556378273,31110.602667738,0,10,1,1,0,18,3,1200161,2070041,4010080,4040101,0,0,0,0,1200161,0,0,0,0,0,0,0,0,0,0,0,0,-2070041,0,0,0,0,0,0,4010080,0,0,0,0,0,4040101,0,0,0,0,0
10,14,638.111869560817,1,0,31112.4967403401,31113.5437687109,0,10,1,0,1,2,7,11402582,7262310,0,4110011,0,-2060190,4181180,0,0,3081021,2080191,0,0,2031080,0,0,0,0,1140080,4091150,0,0,0,0,0,0,0,0,0,0,0,0,0,0,0,4110011,0,0,0,0
10,15,578.625007125083,1,0,31115.2261012356,31116.2731511643,0,10,1,0,1,22,3,0,2181190,4291261,4160051,0,0,0,0,0,0,0,0,0,0,0,0,0,0,2181190,0,0,0,0,0,2100061,-2191200,0,0,0,0,0,0,0,0,4160051,0,0,0,0,0
10,16,543.294060033077,0,0,31117.9554244049,31119.0024654795,0,10,1,1,0,5,7,3180011,6202292,2040070,10320172,0,0,0,0,-3180011,0,0,0,0,4051131,0,2151161,0,0,0,0,0,0,0,0,0,0,2040070,0,0,0,0,0,1100041,4010030,0,0,0,0,2040061,3170040
10,17,630.633617929561,0,0,31120.6730301325,31121.7200673575,0,10,1,0,0,36,3,0,4180120,4171190,3181171,0,0,0,0,0,0,0,0,0,0,0,0,0,0,0,0,0,4180120,0,0,0,0,0,4171190,0,0,0,0,0,0,0,1060150,0,0,0,-2121021
10,18,983.758692516858,0,0,31123.5200605052,31124.5670515348,0,10,1,0,0,33,7,3222121,2030110,2071190,7363291,0,0,0,2021041,0,0,0,0,1201080,0,0,0,2030110,0,0,0,0,0,0,0,0,1010040,1061150,0,0,0,0,0,0,0,0,4051190,-2111011,0,0,1201090
10,19,404.880191585107,1,0,31126.731698183,31127.7787161599,0,10,1,0,1,9,3,4060130,5192162,2011121,0,0,0,0,0,0,0,0,0,-4060130,0,0,1021111,4171051,0,0,0,0,0,0,0,0,0,0,0,0,2011121,0,0,0,0,0,0,0,0,0,0
10,20,569.891397801257,0,0,31129.2257466865,31130.2727615838,0,10,1,1,0,27,3,4200170,0,6380441,0,4200170,0,0,0,0,0,0,0,0,0,0,0,0,0,0,0,0,0,0,0,2010160,0,0,0,1170080,0,-3200201,0,0,0,0,0,0,0,0,0
10,21,455.535664612398,0,0,31132.0139211478,31133.0610292055,0,10,1,0,0,16,7,4370261,11451462,4190161,4100130,0,1180141,0,3190120,0,0,0,0,0,2190021,3040051,3100190,0,0,0,-3121200,0,0,0,4190161,0,0,0,0,0,0,0,0,0,0,0,0,0,0,4100130,0
10,22,684.397265758889,0,0,31134.649152159,31135.6961712908,0,10,1,0,0,8,3,1160161,0,5240150,1040160,0,0,0,0,0,0,0,-1160161,0,0,0,0,0,0,0,0,0,0,1180020,0,4060130,0,0,0,0,0,0,0,0,0,1040160,0,0,0,0,0
10,23,533.590349088627,0,0,31137.4608658281,31138.5078795704,0,10,1,0,0,23,7,4010040,10432271,3041190,2171371,0,4010040,0,0,0,0,0,0,0,1130050,0,2071110,0,3120101,4111010,0,0,0,0,0,0,0,-3041190,0,0,0,0,0,1040171,0,0,0,1131200,0,0,0
10,24,692.355178747675,0,0,31140.0960733567,31141.1431117366,0,10,1,0,0,20,7,4191160,2111121,7300261,6502244,0,0,0,0,0,0,0,0,4191160,0,0,0,0,0,0,0,0,2111121,3130060,-4170201,0,0,0,0,0,0,0,0,1091011,2201061,0,1080151,2130021,0,0,0
10,25,450.236292024783,1,0,31152.0252089731,31153.0722323394,0,10,2,1,1,17,3,4050031,6311121,1131191,0,0,0,0,0,0,0,0,0,4050031,0,0,2150051,0,0,0,0,-4161070,0,0,0,0,0,0,0,0,0,1131191,0,0,0,0,0,0,0,0,0
10,26,768.65174651175,1,0,31154.6016341178,31155.648629382,0,10,2,1,1,15,7,9230391,10182332,3240261,0,0,0,2080120,4040110,0,0,0,3110161,0,3030110,0,0,0,0,-4021151,3131071,0,0,0,0,0,0,0,0,1150201,2090060,0,0,0,0,0,0,0,0,0,0
10,27,1000.18305192498,1,0,31157.4721428745,31158.519155077,0,10,2,0,1,31,3,0,4071060,4171151,7180241,0,0,0,0,0,0,0,0,0,4071060,0,0,0,0,0,0,0,0,4171151,0,0,0,0,0,0,0,0,0,0,0,-4130070,3050171,0,0,0,0
10,28,740.437187749194,0,0,31160.730889765,31161.7778981179,0,10,2,0,0,8,7,12423672,5251172,3101200,1190030,4171180,0,0,0,0,2031200,0,-2071201,4150091,0,0,0,0,0,2200031,0,0,3051141,3101200,0,0,0,0,0,0,0,0,0,0,0,0,0,0,1190030,0,0
10,29,581.170368997846,0,0,31163.7191049551,31164.7660705773,0,10,2,0,0,9,3,2020171,3170031,4011151,4010121,0,0,0,0,0,0,0,0,-2020171,0,0,0,0,0,3170031,0,0,0,4011151,0,0,0,0,0,0,0,0,0,0,4010121,0,0,0,0,0,0
10,30,477.994287084584,0,0,31166.5072043489,31167.5542411889,0,10,2,0,0,16,3,5212221,2071160,1160201,0,2091020,0,0,0,0,0,3121201,0,0,0,0,0,0,0,0,-2071160,0,0,0,0,0,0,0,0,0,1160201,0,0,0,0,0,0,0,0,0,0
10,31,848.322112142341,0,0,31169.0718600822,31170.1188857583,0,10,2,1,0,6,3,4201080,5182261,0,4080170,0,0,0,0,0,-4201080,0,0,0,3171061,0,0,0,2011200,0,0,0,0,0,0,0,0,0,0,0,0,0,0,0,4080170,0,0,0,0,0,0
10,32,744.750675319665,0,0,31172.036481015,31173.0835147753,0,10,2,0,0,36,3,0,3130191,7181210,3141200,0,0,0,0,0,0,0,0,0,0,0,0,0,0,3130191,0,0,0,0,0,0,4130110,0,3051100,0,0,0,0,0,0,0,0,0,0,0,-3141200
10,33,758.198516574339,0,0,31175.0129137049,31176.0599135887,0,10,2,0,0,20,7,3200191,9481312,7311221,1110171,0,0,3200191,0,0,0,0,0,0,4141071,4160070,0,0,0,0,0,1180171,0,1121071,-3040020,3150130,0,0,0,0,0,0,0,0,0,0,0,0,0,1110171,0
10,34,757.881308745709,0,0,31177.8598732448,31178.9422125447,0,10,2,1,0,25,3,3170150,2011021,1050131,3180101,0,0,0,3170150,0,0,0,0,0,0,0,0,0,0,0,2011021,0,0,0,0,0,0,0,0,-1050131,0,0,0,0,0,3180101,0,0,0,0,0
10,35,587.260836364294,1,0,31180.7539377627,31181.8009649787,0,10,2,0,1,22,7,3231181,5301271,10641492,0,2101090,1130091,0,0,0,0,0,0,0,0,3200170,0,0,0,2101101,0,0,0,2171110,0,0,-2200091,0,3200171,3070120,0,0,0,0,0,0,0,0,0,0,0
10,36,1229.86269511239,1,0,31183.5891548383,31184.6361808994,0,10,2,1,1,5,7,3180011,6202292,2040070,10320172,0,0,0,0,-3180011,0,0,0,0,4051131,0,2151161,0,0,0,0,0,0,0,0,0,0,2040070,0,0,0,0,0,1100041,4010030,0,0,0,0,2040061,3170040
10,37,636.225560851017,0,0,31186.9538014095,31188.00083363,0,10,2,1,0,21,7,6420461,4010140,8350312,2051170,0,3140170,0,0,1200141,2080150,0,0,0,0,4010140,0,0,0,0,0,0,0,4060180,0,-2150031,0,0,0,0,2140101,0,0,0,0,0,2051170,0,0,0,0
10,38,1069.98186362398,0,0,31189.8360772679,31190.8830994794,0,10,2,0,0,28,3,2031081,2071091,1110100,2021110,0,0,0,0,2031081,0,0,0,0,0,0,0,2071091,0,0,0,0,0,0,0,0,0,1110100,0,0,0,0,-2021110,0,0,0,0,0,0,0,0
10,39,820.966401286569,1,0,31193.0360067431,31194.0830212553,0,10,2,1,1,1,7,8260131,3070060,14500582,4081140,-4180021,0,0,0,0,0,4080110,0,0,0,0,0,0,0,3070060,0,0,0,0,0,2160191,4080101,4060090,0,0,4200200,0,4081140,0,0,0,0,0,0,0,0
10,40,570.081568515889,0,0,31196.0829800645,31197.1300211391,0,10,2,1,0,7,7,6331171,10251353,4111232,3201141,0,0,0,0,0,0,-4131020,2200151,0,0,0,0,2130161,0,0,4041101,4080091,0,0,0,0,2081101,2030131,0,0,0,0,0,0,0,0,0,3201141,0,0,0
10,41,577.890116648632,0,0,31198.7770481241,31199.8240703355,0,10,2,1,0,27,3,4200170,0,6380441,0,4200170,0,0,0,0,0,0,0,0,0,0,0,0,0,0,0,0,0,0,0,2010160,0,0,0,1170080,0,-3200201,0,0,0,0,0,0,0,0,0
10,42,835.17338555248,1,0,31201.4946269044,31202.5416760631,0,10,2,1,1,32,3,0,2131120,3160151,6140342,0,0,0,0,0,0,0,0,0,0,0,2131120,0,0,0,0,0,0,0,0,0,0,0,0,0,3160151,0,0,0,4050171,0,-2090171,0,0,0,0
10,43,722.602716345136,0,0,31204.4004504398,31205.4474849701,0,10,2,0,0,33,3,0,0,3021100,6161151,0,0,0,0,0,0,0,0,0,0,0,0,0,0,0,0,0,0,0,0,0,0,0,0,3021100,0,0,0,1090010,0,0,0,-1010120,0,4061021,0
10,44,532.522467383387,1,0,31207.3535618098,31208.4003411109,0,10,2,0,1,23,7,7232261,9222451,5402521,0,0,4051180,0,0,0,0,0,3181081,0,0,0,3080110,0,3051200,0,3091141,0,0,0,0,0,2121201,-2091150,1190170,0,0,0,0,0,0,0,0,0,0,0,0
10,45,891.794983555883,1,0,31210.059141357,31211.106168573,0,10,2,1,1,29,7,3201171,8363502,7161291,4162111,0,0,0,0,0,0,0,0,3201171,3201160,0,0,1061151,0,0,0,0,4101191,0,0,0,0,3091100,0,0,4070191,0,0,-3061011,0,0,0,0,0,1101100,0
10,46,611.322051317984,1,0,31213.0355351659,31214.0825716209,0,10,2,0,1,2,7,12321251,4030060,7231491,0,0,-4190160,0,2031041,3020010,0,0,0,3080040,0,0,0,0,4030060,0,0,0,0,0,0,0,0,2120201,3011160,2100130,0,0,0,0,0,0,0,0,0,0,0
10,47,1019.53003494418,1,0,31215.8472384411,31216.89428529,0,10,2,1,1,18,3,1200161,2070041,4010080,4040101,0,0,0,0,1200161,0,0,0,0,0,0,0,0,0,0,0,0,-2070041,0,0,0,0,0,0,4010080,0,0,0,0,0,4040101,0,0,0,0,0
10,48,987.342679065478,1,0,31218.9883566603,31220.0353807965,0,10,2,0,1,13,7,16414615,4310092,1010170,0,4091171,0,0,3051101,0,4100131,0,4141131,1031081,3160051,0,0,-1150041,0,0,0,0,0,0,0,0,1010170,0,0,0,0,0,0,0,0,0,0,0,0,0,0
10,49,511.939759675442,1,0,31236.2585438206,31237.3055660321,0,10,3,1,1,18,3,1200161,2070041,4010080,4040101,0,0,0,0,1200161,0,0,0,0,0,0,0,0,0,0,0,0,-2070041,0,0,0,0,0,0,4010080,0,0,0,0,0,4040101,0,0,0,0,0
10,50,1133.49849740553,1,0,31238.929095385,31239.9760956537,0,10,3,0,1,23,3,2090131,0,6162181,4151080,0,0,0,0,0,0,0,2090131,0,0,0,0,0,0,0,0,0,0,0,4151091,0,0,-2011090,0,0,0,0,0,0,0,0,0,0,4151080,0,0
10,51,721.750412776601,0,0,31242.1407611649,31243.187806859,0,10,3,0,0,31,3,0,0,9473272,3010041,0,0,0,0,0,0,0,0,0,0,0,0,0,0,0,0,0,0,0,1171121,0,4121141,0,0,0,4181010,0,0,0,0,-3010041,0,0,0,0,0
10,52,536.335890661576,1,0,31245.0112868599,31246.0583283194,0,10,3,0,1,2,3,2061200,8191371,0,1081140,0,-2061200,0,0,0,0,0,0,0,4160170,0,0,0,0,4031201,0,0,0,0,0,0,0,0,0,0,0,0,0,0,1081140,0,0,0,0,0,0
10,53,1101.26648605365,0,0,31247.7641831137,31248.8112091748,0,10,3,0,0,9,7,6212403,3130161,8270112,7270172,0,0,0,0,0,4070151,1101151,0,-1041101,0,0,0,0,0,0,0,0,3130161,0,0,0,0,4140091,0,0,0,4130021,0,0,0,0,0,0,4100081,3170091,0
10,54,404.293126121047,1,0,31251.1170664328,31252.164072091,0,10,3,0,1,16,7,7070111,7201332,1130031,5160251,0,0,0,3030041,0,0,4040070,0,0,2071161,0,0,1010071,0,0,-4120100,0,0,0,0,0,0,1130031,0,0,0,0,0,4150170,0,1010081,0,0,0,0,0
10,55,712.785056955909,1,0,31253.6346807065,31254.6816463288,0,10,3,0,1,36,3,3141101,4260171,0,3031111,0,0,3141101,0,0,0,0,0,0,0,0,1100130,0,0,3160041,0,0,0,0,0,0,0,0,0,0,0,0,0,0,0,0,0,0,0,0,-3031111
10,56,884.16428738492,0,0,31256.5992939401,31257.6463069125,0,10,3,0,0,28,7,2051030,11462292,4130091,2311231,2051030,0,0,0,0,0,0,0,0,0,4190071,2071030,0,0,0,0,3141091,2060100,0,0,0,0,0,0,0,4130091,0,-1190081,0,0,0,1121150,0,0,0,0
10,57,630.628998402244,1,0,31259.6698153235,31260.7168148223,0,10,3,1,1,32,3,0,2131120,3160151,6140342,0,0,0,0,0,0,0,0,0,0,0,2131120,0,0,0,0,0,0,0,0,0,0,0,0,0,3160151,0,0,0,4050171,0,-2090171,0,0,0,0
10,58,718.058252197807,1,0,31262.4461984305,31263.4932321908,0,10,3,1,1,25,3,3170150,2011021,1050131,3180101,0,0,0,3170150,0,0,0,0,0,0,0,0,0,0,0,2011021,0,0,0,0,0,0,0,0,-1050131,0,0,0,0,0,3180101,0,0,0,0,0
10,59,478.495506256877,1,0,31265.2578967012,31266.3049231473,0,10,3,0,1,22,7,2171041,9463261,6212212,6340132,0,2171041,0,0,0,0,0,0,0,0,0,0,1131170,4171051,4161040,0,0,0,0,0,0,-4061071,0,0,2151141,0,0,0,0,0,2180051,0,0,0,0,4160081
10,60,684.464633926837,1,0,31267.9049002036,31268.9519366586,0,10,3,1,1,6,3,4201080,5182261,0,4080170,0,0,0,0,0,-4201080,0,0,0,3171061,0,0,0,2011200,0,0,0,0,0,0,0,0,0,0,0,0,0,0,0,4080170,0,0,0,0,0,0
10,61,923.155828251765,0,0,31270.8460158051,31271.893033397,0,10,3,0,0,20,7,4190051,2150221,9343090,4270120,0,0,0,0,0,0,0,4190051,0,1050031,0,0,0,0,0,0,1100190,0,2161030,-3101040,0,4081020,0,0,0,0,0,0,0,3170090,1100030,0,0,0,0,0
10,62,807.782258285442,0,0,31273.975352294,31275.022438409,0,10,3,1,0,7,7,6331171,10251353,4111232,3201141,0,0,0,0,0,0,-4131020,2200151,0,0,0,0,2130161,0,0,4041101,4080091,0,0,0,0,2081101,2030131,0,0,0,0,0,0,0,0,0,3201141,0,0,0
10,63,1020.23990295856,0,0,31276.8458710597,31277.8929078997,0,10,3,1,0,15,7,9230391,10182332,3240261,0,0,0,2080120,4040110,0,0,0,3110161,0,3030110,0,0,0,0,-4021151,3131071,0,0,0,0,0,0,0,0,1150201,2090060,0,0,0,0,0,0,0,0,0,0
10,64,621.546614445833,0,0,31280.0105469649,31281.0575476186,0,10,3,0,0,8,7,10332402,5191311,0,6451283,0,0,4021190,0,3201081,0,0,-3110131,0,2110140,0,0,3081171,0,0,0,0,0,0,0,0,0,0,0,0,0,0,0,0,0,0,0,1190061,4161051,1100171,0
10,65,1348.52460160619,1,0,31282.7045857675,31283.7516118286,0,10,3,1,1,5,7,3180011,6202292,2040070,10320172,0,0,0,0,-3180011,0,0,0,0,4051131,0,2151161,0,0,0,0,0,0,0,0,0,0,2040070,0,0,0,0,0,1100041,4010030,0,0,0,0,2040061,3170040
10,66,1002.19986239608,1,0,31286.1868656295,31287.2338797568,0,10,3,1,1,29,7,3201171,8363502,7161291,4162111,0,0,0,0,0,0,0,0,3201171,3201160,0,0,1061151,0,0,0,0,4101191,0,0,0,0,3091100,0,0,4070191,0,0,-3061011,0,0,0,0,0,1101100,0
10,67,978.3234287097,1,0,31289.3397116844,31290.3867743167,0,10,3,1,1,1,7,8260131,3070060,14500582,4081140,-4180021,0,0,0,0,0,4080110,0,0,0,0,0,0,0,3070060,0,0,0,0,0,2160191,4080101,4060090,0,0,4200200,0,4081140,0,0,0,0,0,0,0,0
10,68,618.944663307047,0,0,31292.5161339034,31293.5631557299,0,10,3,0,0,33,3,3171131,4100041,1181010,3131100,0,0,0,0,0,0,0,0,3171131,4100041,0,0,0,0,0,0,0,0,0,0,0,0,0,1181010,0,0,0,0,0,0,0,0,-3131100,0,0,0
10,69,670.300765286811,0,0,31295.3396423914,31296.3866222571,0,10,3,1,0,17,3,4050031,6311121,1131191,0,0,0,0,0,0,0,0,0,4050031,0,0,2150051,0,0,0,0,-4161070,0,0,0,0,0,0,0,0,0,1131191,0,0,0,0,0,0,0,0,0
10,70,501.136600221798,0,0,31298.1748348295,31299.2218578109,0,10,3,1,0,21,7,6420461,4010140,8350312,2051170,0,3140170,0,0,1200141,2080150,0,0,0,0,4010140,0,0,0,0,0,0,0,4060180,0,-2150031,0,0,0,0,2140101,0,0,0,0,0,2051170,0,0,0,0
10,71,606.934651244956,0,0,31300.9159489681,31301.9629734894,0,10,3,1,0,27,3,4200170,0,6380441,0,4200170,0,0,0,0,0,0,0,0,0,0,0,0,0,0,0,0,0,0,0,2010160,0,0,0,1170080,0,-3200201,0,0,0,0,0,0,0,0,0
10,72,828.016576324444,0,0,31303.6688275137,31304.7158574244,0,10,3,0,0,13,3,2141031,1051060,1021101,3131111,0,0,0,0,0,0,2141031,0,0,0,0,0,-1051060,0,0,0,0,0,0,0,0,0,0,0,0,1021101,0,3131111,0,0,0,0,0,0,0,0
10,73,881.301332719886,1,0,31316.7273650624,31317.7744015175,0,10,4,1,1,6,3,4201080,5182261,0,4080170,0,0,0,0,0,-4201080,0,0,0,3171061,0,0,0,2011200,0,0,0,0,0,0,0,0,0,0,0,0,0,0,0,4080170,0,0,0,0,0,0
10,74,519.527725180524,1,0,31319.8331923705,31320.8802207413,0,10,4,1,1,18,3,1200161,2070041,4010080,4040101,0,0,0,0,1200161,0,0,0,0,0,0,0,0,0,0,0,0,-2070041,0,0,0,0,0,0,4010080,0,0,0,0,0,4040101,0,0,0,0,0
10,75,518.089126067935,0,0,31322.4566635943,31323.503693505,0,10,4,0,0,20,7,5152382,6141261,9192442,3080160,0,0,4031181,0,0,1121201,0,0,0,0,0,0,2131060,0,0,0,0,4010201,4090151,-3051180,2051111,0,0,0,0,0,0,0,0,0,0,3080160,0,0,0,0
10,76,755.850639674463,1,0,31325.1507251095,31326.1977554051,0,10,4,1,1,25,3,3170150,2011021,1050131,3180101,0,0,0,3170150,0,0,0,0,0,0,0,0,0,0,0,2011021,0,0,0,0,0,0,0,0,-1050131,0,0,0,0,0,3180101,0,0,0,0,0
10,77,533.362067239068,1,0,31327.9742116547,31329.021225397,0,10,4,0,1,31,3,3011050,0,4190171,2161050,3011050,0,0,0,0,0,0,0,0,0,0,0,0,0,0,0,0,0,0,0,0,0,0,0,4190171,0,0,0,1100040,0,-1061010,0,0,0,0,0
10,78,715.280373900896,0,0,31330.6682546918,31331.7152838326,0,10,4,0,0,33,7,12482532,5161111,4200181,1100021,0,2070161,0,4191050,2060150,4161171,0,0,0,0,1091091,0,0,0,0,4070020,0,0,0,0,0,0,0,0,4200181,0,0,0,0,0,0,0,-1100021,0,0,0
10,79,488.035608796054,0,0,31333.5505513381,31334.5975781691,0,10,4,1,0,17,3,4050031,6311121,1131191,0,0,0,0,0,0,0,0,0,4050031,0,0,2150051,0,0,0,0,-4161070,0,0,0,0,0,0,0,0,0,1131191,0,0,0,0,0,0,0,0,0
10,80,425.710429190076,0,0,31336.1858485626,31337.2328472915,0,10,4,0,0,16,3,0,10362323,0,2051130,0,0,0,0,0,0,0,0,0,0,0,0,0,0,4141061,-2060101,0,4161161,0,0,0,0,0,0,0,0,0,0,0,0,0,2051130,0,0,0,0
10,81,979.191900638398,0,0,31338.8092608874,31339.856291183,0,10,4,1,0,7,7,6331171,10251353,4111232,3201141,0,0,0,0,0,0,-4131020,2200151,0,0,0,0,2130161,0,0,4041101,4080091,0,0,0,0,2081101,2030131,0,0,0,0,0,0,0,0,0,3201141,0,0,0
10,82,558.960816269973,1,0,31341.8915482176,31342.9385796681,0,10,4,1,1,32,3,0,2131120,3160151,6140342,0,0,0,0,0,0,0,0,0,0,0,2131120,0,0,0,0,0,0,0,0,0,0,0,0,0,3160151,0,0,0,4050171,0,-2090171,0,0,0,0
10,83,482.961053403415,0,0,31344.5856097328,31345.632635409,0,10,4,0,0,23,3,1011090,1170191,2292311,0,0,0,0,0,0,0,0,0,1011090,0,0,0,0,0,0,0,0,1170191,0,0,0,0,-1141180,0,0,0,1151131,0,0,0,0,0,0,0,0,0
10,84,733.13062870875,0,0,31347.1502658511,31348.1972992264,0,10,4,0,0,9,7,6172273,11351331,5331190,0,0,0,0,2011031,3081191,0,0,0,-1080051,0,0,4090131,3061030,0,0,0,0,4200170,0,0,4160100,0,0,0,0,1171090,0,0,0,0,0,0,0,0,0,0
10,85,665.978423614433,1,0,31349.9854971702,31351.0325224614,0,10,4,0,1,13,7,7301330,3171152,1070131,4361161,0,0,1170140,0,0,0,4071150,0,2060040,0,0,0,-1061061,0,0,0,2110091,0,0,0,0,0,0,0,1070131,0,0,0,0,2190130,0,0,0,2171031,0,0
10,86,397.01659403363,1,0,31352.7383811053,31353.7854117859,0,10,4,0,1,22,3,3030170,3131061,4181232,0,0,3030170,0,0,0,0,0,0,0,0,3131061,0,0,0,0,0,0,0,0,0,0,-1030031,3151201,0,0,0,0,0,0,0,0,0,0,0,0,0
10,87,595.574453280278,0,0,31355.2677886581,31356.3147719885,0,10,4,0,0,2,3,7222202,2141091,1070120,0,0,-4061041,0,0,0,0,3161161,0,0,0,0,2141091,0,0,0,0,0,0,0,0,0,0,0,0,0,0,1070120,0,0,0,0,0,0,0,0,0
10,88,441.286334640608,1,0,31358.1029791714,31359.1500086971,0,10,4,1,1,15,7,9230391,10182332,3240261,0,0,0,2080120,4040110,0,0,0,3110161,0,3030110,0,0,0,0,-4021151,3131071,0,0,0,0,0,0,0,0,1150201,2090060,0,0,0,0,0,0,0,0,0,0
10,89,425.877117286291,1,0,31360.6793946921,31361.7264199833,0,10,4,1,1,21,7,6420461,4010140,8350312,2051170,0,3140170,0,0,1200141,2080150,0,0,0,0,4010140,0,0,0,0,0,0,0,4060180,0,-2150031,0,0,0,0,2140101,0,0,0,0,0,2051170,0,0,0,0
10,90,836.563094620942,1,0,31363.3616891056,31364.4087247907,0,10,4,1,1,29,7,3201171,8363502,7161291,4162111,0,0,0,0,0,0,0,0,3201171,3201160,0,0,1061151,0,0,0,0,4101191,0,0,0,0,3091100,0,0,4070191,0,0,-3061011,0,0,0,0,0,1101100,0
10,91,1206.28422120353,0,0,31366.3380971581,31367.3851363078,0,10,4,1,0,5,7,3180011,6202292,2040070,10320172,0,0,0,0,-3180011,0,0,0,0,4051131,0,2151161,0,0,0,0,0,0,0,0,0,0,2040070,0,0,0,0,0,1100041,4010030,0,0,0,0,2040061,3170040
10,92,635.727806329669,0,0,31369.7615692288,31370.8086357108,0,10,4,1,0,27,3,4200170,0,6380441,0,4200170,0,0,0,0,0,0,0,0,0,0,0,0,0,0,0,0,0,0,0,2010160,0,0,0,1170080,0,-3200201,0,0,0,0,0,0,0,0,0
10,93,1082.25403410324,1,0,31372.5379738936,31373.5850018795,0,10,4,0,1,8,7,2100151,3191181,1181050,6431212,0,0,0,0,0,0,0,-2100151,0,0,2180060,0,0,0,1011121,0,0,0,0,0,0,0,0,1181050,0,0,0,0,0,0,0,1110110,2070011,2101030,1150061,0
10,94,1124.23017730544,0,0,31375.8320205493,31376.8790596991,0,10,4,0,0,36,7,2191091,4091050,5190333,8331202,2191091,0,0,0,0,0,0,0,0,0,0,0,0,4091050,0,0,0,0,1010171,0,0,3110061,0,0,1070101,0,0,3140050,3011041,0,0,0,0,0,0,-2180111
10,95,596.949918792234,1,0,31379.1731313773,31380.2201639827,0,10,4,1,1,1,7,8260131,3070060,14500582,4081140,-4180021,0,0,0,0,0,4080110,0,0,0,0,0,0,0,3070060,0,0,0,0,0,2160191,4080101,4060090,0,0,4200200,0,4081140,0,0,0,0,0,0,0,0
10,96,689.613101822033,1,0,31381.8554346449,31382.9024695601,0,10,4,0,1,28,3,5302201,3080100,0,1201030,0,2111110,0,3191091,0,0,0,0,0,0,0,0,0,3080100,0,0,0,0,0,0,0,0,0,0,0,0,0,-1201030,0,0,0,0,0,0,0,0
10,97,567.468453511538,0,0,31392.4905032026,31393.5375408125,0,10,5,1,0,27,3,4200170,0,6380441,0,4200170,0,0,0,0,0,0,0,0,0,0,0,0,0,0,0,0,0,0,0,2010160,0,0,0,1170080,0,-3200201,0,0,0,0,0,0,0,0,0
10,98,1230.45053049646,1,0,31395.1375120944,31396.1845481645,0,10,5,0,1,2,7,10341402,3051160,7182130,2180010,3031141,-3130050,0,0,0,0,2140080,2040131,0,0,0,0,3051160,0,0,0,0,0,0,0,3111100,0,0,0,4071030,0,0,0,0,2180010,0,0,0,0,0,0
10,99,776.996930228052,1,0,31398.4668581304,31399.5138918907,0,10,5,1,1,17,3,4050031,6311121,1131191,0,0,0,0,0,0,0,0,0,4050031,0,0,2150051,0,0,0,0,-4161070,0,0,0,0,0,0,0,0,0,1131191,0,0,0,0,0,0,0,0,0
10,100,744.514309288206,0,0,31401.3844472277,31402.4314775234,0,10,5,1,0,6,3,4201080,5182261,0,4080170,0,0,0,0,0,-4201080,0,0,0,3171061,0,0,0,2011200,0,0,0,0,0,0,0,0,0,0,0,0,0,0,0,4080170,0,0,0,0,0,0
10,101,554.579575571552,0,0,31404.2314479584,31405.278478254,0,10,5,1,0,18,3,1200161,2070041,4010080,4040101,0,0,0,0,1200161,0,0,0,0,0,0,0,0,0,0,0,0,-2070041,0,0,0,0,0,0,4010080,0,0,0,0,0,4040101,0,0,0,0,0
10,102,1040.98775891543,0,0,31406.9608053892,31408.0078426142,0,10,5,1,0,21,7,6420461,4010140,8350312,2051170,0,3140170,0,0,1200141,2080150,0,0,0,0,4010140,0,0,0,0,0,0,0,4060180,0,-2150031,0,0,0,0,2140101,0,0,0,0,0,2051170,0,0,0,0
10,103,1113.11750924142,0,0,31410.1607464132,31411.2077728593,0,10,5,1,0,29,7,3201171,8363502,7161291,4162111,0,0,0,0,0,0,0,0,3201171,3201160,0,0,1061151,0,0,0,0,4101191,0,0,0,0,3091100,0,0,4070191,0,0,-3061011,0,0,0,0,0,1101100,0
10,104,483.215127642325,0,0,31413.3606743485,31414.4077108036,0,10,5,1,0,15,7,9230391,10182332,3240261,0,0,0,2080120,4040110,0,0,0,3110161,0,3030110,0,0,0,0,-4021151,3131071,0,0,0,0,0,0,0,0,1150201,2090060,0,0,0,0,0,0,0,0,0,0
10,105,497.38438573695,1,0,31415.972394254,31417.0194222399,0,10,5,0,1,20,3,1081011,3100111,1151150,1120010,0,0,0,0,1081011,0,0,0,0,0,3100111,0,0,0,0,0,0,0,0,-1151150,0,0,0,0,0,0,0,0,1120010,0,0,0,0,0,0,0
10,106,946.124523998151,0,0,31418.5605753366,31419.6076040924,0,10,5,0,0,31,7,8351261,2121191,4181091,12102173,0,0,0,2161011,0,0,0,3060120,3130130,0,0,0,0,0,2121191,0,0,0,0,0,0,4181091,0,0,0,0,0,0,0,4031041,-4060091,0,0,0,0,4011041
10,107,547.436239976378,1,0,31421.5722831543,31422.6193080605,0,10,5,0,1,8,3,9091423,0,0,4191060,2040161,0,0,0,0,0,0,-4030151,3021111,0,0,0,0,0,0,0,0,0,0,0,0,0,0,0,0,0,0,0,0,4191060,0,0,0,0,0,0
10,108,742.743873830477,1,0,31424.1839999801,31425.2310853252,0,10,5,0,1,9,7,13353563,2200080,5062311,2060151,3011160,0,0,2090111,4161141,0,0,0,-4091151,0,0,0,0,0,0,0,2200080,0,4011160,0,0,0,0,0,1051151,0,0,0,2060151,0,0,0,0,0,0,0
10,109,589.743449603702,0,0,31427.1369392725,31428.1839487803,0,10,5,0,0,23,3,0,4020120,4131180,2302152,0,0,0,0,0,0,0,0,0,0,0,0,0,0,4020120,0,0,0,0,0,0,0,-4131180,0,0,0,0,0,0,1131051,0,1171101,0,0,0,0
10,110,555.801441663789,1,0,31429.8897612288,31430.9367899846,0,10,5,1,1,32,3,0,2131120,3160151,6140342,0,0,0,0,0,0,0,0,0,0,0,2131120,0,0,0,0,0,0,0,0,0,0,0,0,0,3160151,0,0,0,4050171,0,-2090171,0,0,0,0
10,111,1508.34152957032,0,0,31432.5132451563,31433.5602762219,0,10,5,1,0,5,7,3180011,6202292,2040070,10320172,0,0,0,0,-3180011,0,0,0,0,4051131,0,2151161,0,0,0,0,0,0,0,0,0,0,2040070,0,0,0,0,0,1100041,4010030,0,0,0,0,2040061,3170040
10,112,1067.94465021812,0,0,31436.2425783346,31437.2896078604,0,10,5,1,0,1,7,8260131,3070060,14500582,4081140,-4180021,0,0,0,0,0,4080110,0,0,0,0,0,0,0,3070060,0,0,0,0,0,2160191,4080101,4060090,0,0,4200200,0,4081140,0,0,0,0,0,0,0,0
10,113,569.897942135867,1,0,31439.5366273001,31440.5836606755,0,10,5,1,1,25,3,3170150,2011021,1050131,3180101,0,0,0,3170150,0,0,0,0,0,0,0,0,0,0,0,2011021,0,0,0,0,0,0,0,0,-1050131,0,0,0,0,0,3180101,0,0,0,0,0
10,114,978.20871033764,1,0,31442.3483382745,31443.3953716499,0,10,5,0,1,33,3,3020171,3180081,2191130,3060140,0,0,0,0,0,0,0,0,3020171,0,0,0,0,0,0,0,0,3180081,0,2191130,0,0,0,0,0,0,0,0,0,0,0,0,-3060140,0,0,0
10,115,1317.61570107847,1,0,31445.4188712068,31446.4658999626,0,10,5,0,1,36,7,1011051,8112290,0,10412470,0,0,1011051,0,0,0,0,0,0,4020110,0,2021020,0,0,0,0,0,2071160,0,0,0,0,0,0,0,0,0,3201100,0,0,1080100,0,2120170,0,0,-4011100
10,116,505.406972166384,1,0,31448.9011537635,31449.9481913734,0,10,5,0,1,22,7,3372280,0,5080281,16531483,0,2171150,0,0,0,0,0,1201130,0,0,0,0,0,0,0,0,0,0,0,0,2030131,-3050150,0,0,0,0,0,0,4140170,4030061,0,4180191,0,4181061,0,0
10,117,597.611666686134,0,0,31451.4658110366,31452.5128394075,0,10,5,1,0,7,7,6331171,10251353,4111232,3201141,0,0,0,0,0,0,-4131020,2200151,0,0,0,0,2130161,0,0,4041101,4080091,0,0,0,0,2081101,2030131,0,0,0,0,0,0,0,0,0,3201141,0,0,0
10,118,469.038170325803,1,0,31454.2304636132,31455.2774904442,0,10,5,0,1,28,3,4031011,3060100,4151080,3041081,0,0,0,4031011,0,0,0,0,0,0,0,0,0,0,0,0,3060100,0,0,0,0,0,0,4151080,0,0,0,-3041081,0,0,0,0,0,0,0,0
10,119,590.874849869579,1,0,31456.877472505,31457.9244985661,0,10,5,0,1,16,7,2121141,14762461,1021170,2040081,0,0,0,0,0,0,2121141,0,0,3190100,3181030,0,0,0,0,-2190061,4090090,2111180,0,0,1021170,0,0,0,0,0,0,0,0,0,2040081,0,0,0,0,0
10,120,503.370528680534,1,0,31459.7009490413,31460.7479743324,0,10,5,0,1,13,3,0,3051181,0,10363292,0,0,0,0,0,0,0,0,0,0,0,0,-3051181,0,0,0,0,0,0,0,0,0,0,0,0,0,0,0,2091141,0,0,0,0,4131021,4141130,0
10,121,688.296150376118,0,0,31474.0418423663,31475.0888834408,0,10,6,1,0,25,3,3170150,2011021,1050131,3180101,0,0,0,3170150,0,0,0,0,0,0,0,0,0,0,0,2011021,0,0,0,0,0,0,0,0,-1050131,0,0,0,0,0,3180101,0,0,0,0,0
10,122,1022.84339393736,0,0,31476.9123769154,31477.9594580259,0,10,6,0,0,36,3,0,3141041,2071201,6271292,0,0,0,0,0,0,0,0,0,0,0,0,0,3141041,0,0,0,0,0,0,0,0,0,0,0,2071201,0,0,0,0,0,0,0,0,2131181,-4140111
10,123,630.418809712864,0,0,31480.1358471383,31481.1828851331,0,10,6,0,0,2,7,2020081,8361231,2131201,8341353,0,-2020081,0,0,0,0,0,0,0,0,1130010,4170041,3061180,0,0,0,0,0,0,0,0,2131201,0,0,0,0,0,0,2030151,0,2120121,0,0,4191081,0,0
10,124,436.405799573549,1,0,31482.9946153556,31484.0416541204,0,10,6,0,1,22,7,8372341,3342112,8210291,2181081,0,0,3161190,0,0,1040090,0,0,4171061,0,0,0,0,0,2171041,1171071,0,0,0,4140170,0,-4070121,0,0,0,0,0,0,0,0,0,0,0,2181081,0,0
10,125,443.932941248931,1,0,31485.5122115361,31486.5592445265,0,10,6,1,1,21,7,6420461,4010140,8350312,2051170,0,3140170,0,0,1200141,2080150,0,0,0,0,4010140,0,0,0,0,0,0,0,4060180,0,-2150031,0,0,0,0,2140101,0,0,0,0,0,2051170,0,0,0,0
10,126,483.519631761737,1,0,31488.1474795036,31489.194492476,0,10,6,0,1,20,3,1170090,0,9422350,0,0,0,0,1170090,0,0,0,0,0,0,0,0,0,0,0,0,0,0,0,-2161060,0,4130200,0,0,0,3131090,0,0,0,0,0,0,0,0,0,0
10,127,728.719746017305,0,0,31490.8063009225,31491.8532634651,0,10,6,0,0,16,7,0,15314471,8372621,0,0,0,0,0,0,0,0,0,0,0,0,3021080,0,4021190,0,-4151011,0,4121190,2180190,3021100,2121140,0,0,1050191,0,0,0,0,0,0,0,0,0,0,0,0
10,128,956.279794154398,1,0,31493.6767665636,31494.7237941645,0,10,6,1,1,18,3,1200161,2070041,4010080,4040101,0,0,0,0,1200161,0,0,0,0,0,0,0,0,0,0,0,0,-2070041,0,0,0,0,0,0,4010080,0,0,0,0,0,4040101,0,0,0,0,0
10,129,800.256656460988,0,0,31496.8296491898,31497.8766775606,0,10,6,1,0,1,7,8260131,3070060,14500582,4081140,-4180021,0,0,0,0,0,4080110,0,0,0,0,0,0,0,3070060,0,0,0,0,0,2160191,4080101,4060090,0,0,4200200,0,4081140,0,0,0,0,0,0,0,0
10,130,563.696221051941,1,0,31499.8413504632,31500.8883876881,0,10,6,1,1,27,3,4200170,0,6380441,0,4200170,0,0,0,0,0,0,0,0,0,0,0,0,0,0,0,0,0,0,0,2010160,0,0,0,1170080,0,-3200201,0,0,0,0,0,0,0,0,0
10,131,876.247565218364,1,0,31502.570718288,31503.6177485836,0,10,6,1,1,29,7,3201171,8363502,7161291,4162111,0,0,0,0,0,0,0,0,3201171,3201160,0,0,1061151,0,0,0,0,4101191,0,0,0,0,3091100,0,0,4070191,0,0,-3061011,0,0,0,0,0,1101100,0
10,132,474.505385896919,1,0,31505.6883042286,31506.7353356791,0,10,6,1,1,15,7,9230391,10182332,3240261,0,0,0,2080120,4040110,0,0,0,3110161,0,3030110,0,0,0,0,-4021151,3131071,0,0,0,0,0,0,0,0,1150201,2090060,0,0,0,0,0,0,0,0,0,0
10,133,551.632699414768,0,0,31508.2882751255,31509.3352857882,0,10,6,1,0,17,3,4050031,6311121,1131191,0,0,0,0,0,0,0,0,0,4050031,0,0,2150051,0,0,0,0,-4161070,0,0,0,0,0,0,0,0,0,1131191,0,0,0,0,0,0,0,0,0
10,134,591.626293666195,0,0,31511.0882536447,31512.1352335105,0,10,6,0,0,28,3,0,0,5031200,5202080,0,0,0,0,0,0,0,0,0,0,0,0,0,0,0,0,0,0,0,0,0,0,2020060,0,3011140,0,0,-2171020,3031060,0,0,0,0,0,0,0
10,135,938.118875852524,0,0,31513.8646217382,31514.9116535737,0,10,6,0,0,31,3,6222150,4110080,0,3160190,3041100,0,0,0,3181050,0,0,0,0,0,0,0,0,0,0,4110080,0,0,0,0,0,0,0,0,0,0,0,0,0,0,-3160190,0,0,0,0,0
10,136,1002.69530715377,0,0,31517.0410651301,31518.0880684785,0,10,6,1,0,6,3,4201080,5182261,0,4080170,0,0,0,0,0,-4201080,0,0,0,3171061,0,0,0,2011200,0,0,0,0,0,0,0,0,0,0,0,0,0,0,0,4080170,0,0,0,0,0,0
10,137,1166.26637441368,0,0,31520.1115649557,31521.1585956363,0,10,6,1,0,32,3,0,2131120,3160151,6140342,0,0,0,0,0,0,0,0,0,0,0,2131120,0,0,0,0,0,0,0,0,0,0,0,0,0,3160151,0,0,0,4050171,0,-2090171,0,0,0,0
10,138,637.405851157382,0,0,31523.5232599157,31524.5702963708,0,10,6,0,0,13,7,5352133,1121170,9402393,0,1081091,0,0,0,0,0,2081011,2190031,0,0,0,0,-1121170,0,0,0,0,0,0,0,0,4130101,3161030,0,1071191,1040071,0,0,0,0,0,0,0,0,0,0
10,139,660.476561559335,1,0,31526.3232087929,31527.3702437081,0,10,6,0,1,23,7,2140110,5112090,2150262,6442323,0,0,0,2140110,0,0,0,0,0,0,3101010,0,0,2011080,0,0,0,0,0,0,0,1010201,-1140061,0,0,0,0,0,0,1201041,0,2061201,0,0,0,3180081
10,140,474.670534149482,1,0,31529.1349355507,31530.1819519878,0,10,6,0,1,8,3,6062292,0,2111071,1181080,0,0,0,0,0,4011101,0,-2051191,0,0,0,0,0,0,0,0,0,0,0,0,0,0,0,0,2111071,0,0,1181080,0,0,0,0,0,0,0,0
10,141,1327.94497358555,1,0,31531.6878153282,31532.7348467787,0,10,6,1,1,5,7,3180011,6202292,2040070,10320172,0,0,0,0,-3180011,0,0,0,0,4051131,0,2151161,0,0,0,0,0,0,0,0,0,0,2040070,0,0,0,0,0,1100041,4010030,0,0,0,0,2040061,3170040
10,142,645.644015723519,0,0,31535.2760079595,31536.3230224718,0,10,6,1,0,7,7,6331171,10251353,4111232,3201141,0,0,0,0,0,0,-4131020,2200151,0,0,0,0,2130161,0,0,4041101,4080091,0,0,0,0,2081101,2030131,0,0,0,0,0,0,0,0,0,3201141,0,0,0
10,143,753.377265496965,0,0,31538.0641597081,31539.1112019375,0,10,6,0,0,9,3,8281360,1090150,3190111,0,0,0,4140170,0,0,0,0,0,-4141190,0,0,0,0,0,0,1090150,0,0,0,0,3190111,0,0,0,0,0,0,0,0,0,0,0,0,0,0,0
10,144,1992.3140649189,1,0,31540.9111762221,31541.9582095975,0,10,6,0,1,33,7,7131210,0,11201411,8290171,0,4030200,0,3101010,0,0,0,0,0,0,0,0,0,0,0,0,0,0,0,0,0,0,4010141,3121140,0,0,4070130,0,0,0,0,1100070,-3180071,0,0,4010030
10,145,765.246766812197,0,0,31562.8401771022,31563.8872197166,0,10,7,0,0,8,7,5200201,3290211,6141350,6172140,4150140,0,0,0,0,0,0,-1050061,0,2130160,0,0,0,0,0,0,0,1160051,0,0,0,4021160,2120190,0,0,0,0,0,0,2061050,0,4111090,0,0,0,0
10,146,739.022456218663,1,0,31565.7813046374,31566.828335318,0,10,7,0,1,20,7,6130132,9512331,4071150,3170070,0,0,4110071,0,0,0,0,0,2020061,2181090,0,0,0,0,3161121,0,4170120,0,0,-3061130,0,0,0,1010020,0,0,0,0,0,3170070,0,0,0,0,0,0
10,147,671.511852469848,0,0,31568.7577196192,31569.8047556892,0,10,7,0,0,36,3,4201110,4100160,2151020,4061121,0,0,0,4201110,0,0,0,0,0,0,4100160,0,0,0,0,0,0,0,0,0,0,2151020,0,0,0,0,0,0,0,0,0,0,0,0,0,-4061121
10,148,473.538191381522,1,0,31571.6753175706,31572.7457417314,0,10,7,1,1,21,7,6420461,4010140,8350312,2051170,0,3140170,0,0,1200141,2080150,0,0,0,0,4010140,0,0,0,0,0,0,0,4060180,0,-2150031,0,0,0,0,2140101,0,0,0,0,0,2051170,0,0,0,0
10,149,463.890472354251,0,0,31574.3693790858,31575.4164170807,0,10,7,1,0,15,7,9230391,10182332,3240261,0,0,0,2080120,4040110,0,0,0,3110161,0,3030110,0,0,0,0,-4021151,3131071,0,0,0,0,0,0,0,0,1150201,2090060,0,0,0,0,0,0,0,0,0,0
10,150,781.666121725721,0,0,31576.9105187088,31577.9575478496,0,10,7,0,0,31,3,0,1021031,2031070,5152250,0,0,0,0,0,0,0,0,0,0,0,1021031,0,0,0,0,0,0,0,0,0,0,2031070,0,0,0,0,0,0,0,-4131100,0,1021150,0,0,0
10,151,575.919501490716,1,0,31579.8751642791,31580.9221941898,0,10,7,0,1,22,3,0,2161210,5142091,0,0,0,0,0,0,0,0,0,0,1150010,0,0,1011200,0,0,0,0,0,0,0,3101031,-2041060,0,0,0,0,0,0,0,0,0,0,0,0,0,0
10,152,655.844326312945,0,0,31582.7104117667,31583.7574439871,0,10,7,0,0,28,7,8151291,4091111,13512452,2021100,0,0,0,4021181,0,0,0,0,4130110,0,0,0,0,0,0,0,0,4091111,0,0,4130181,0,3080070,0,2181061,4121140,0,-2021100,0,0,0,0,0,0,0,0
10,153,910.336628250661,1,0,31585.4397699674,31586.4868098871,0,10,7,1,1,18,3,1200161,2070041,4010080,4040101,0,0,0,0,1200161,0,0,0,0,0,0,0,0,0,0,0,0,-2070041,0,0,0,0,0,0,4010080,0,0,0,0,0,4040101,0,0,0,0,0
10,154,552.162020736432,1,0,31588.5338332535,31589.5808612394,0,10,7,0,1,2,3,8142231,4031040,2061090,0,0,-4111091,0,0,0,4031140,0,0,0,0,0,4031040,0,0,0,0,0,0,0,0,0,0,0,0,0,0,2061090,0,0,0,0,0,0,0,0,0
10,155,506.557620476087,0,0,31591.298486985,31592.3455253648,0,10,7,0,0,9,7,4300070,0,6300230,7511271,2150060,0,0,0,0,0,0,0,-2150010,0,0,0,0,0,0,0,0,0,1010180,0,0,1110020,0,0,0,4180030,0,0,2181040,0,0,0,0,2160040,0,3170191
10,156,656.330532008724,0,0,31594.0396184468,31595.0866522071,0,10,7,1,0,32,3,0,2131120,3160151,6140342,0,0,0,0,0,0,0,0,0,0,0,2131120,0,0,0,0,0,0,0,0,0,0,0,0,0,3160151,0,0,0,4050171,0,-2090171,0,0,0,0
10,157,567.92155255971,0,0,31596.8630876688,31597.9101245088,0,10,7,1,0,17,3,4050031,6311121,1131191,0,0,0,0,0,0,0,0,0,4050031,0,0,2150051,0,0,0,0,-4161070,0,0,0,0,0,0,0,0,0,1131191,0,0,0,0,0,0,0,0,0
10,158,458.562997613626,1,0,31599.5453982507,31600.5924300862,0,10,7,0,1,23,7,9270432,0,10413373,4171141,4150200,0,0,3100101,2020131,0,0,0,0,0,0,0,0,0,0,0,0,0,3051141,2151051,0,0,-4131091,1080090,0,0,0,0,0,0,0,0,0,0,0,4171141
10,159,587.673129553878,0,0,31602.0983450113,31603.145336041,0,10,7,1,0,27,3,4200170,0,6380441,0,4200170,0,0,0,0,0,0,0,0,0,0,0,0,0,0,0,0,0,0,0,2010160,0,0,0,1170080,0,-3200201,0,0,0,0,0,0,0,0,0
10,160,729.546257200127,0,0,31604.7923645658,31605.8393967863,0,10,7,1,0,7,7,6331171,10251353,4111232,3201141,0,0,0,0,0,0,-4131020,2200151,0,0,0,0,2130161,0,0,4041101,4080091,0,0,0,0,2081101,2030131,0,0,0,0,0,0,0,0,0,3201141,0,0,0
10,161,1179.36582599941,1,0,31607.6276001196,31608.6746384994,0,10,7,1,1,1,7,8260131,3070060,14500582,4081140,-4180021,0,0,0,0,0,4080110,0,0,0,0,0,0,0,3070060,0,0,0,0,0,2160191,4080101,4060090,0,0,4200200,0,4081140,0,0,0,0,0,0,0,0
10,162,613.686866501666,1,0,31610.9922628591,31612.0392862255,0,10,7,0,1,33,3,0,8312232,0,1061190,0,0,0,0,0,0,0,0,0,0,0,2071061,0,2181140,0,0,4060031,0,0,0,0,0,0,0,0,0,0,0,0,0,0,0,-1061190,0,0,0
10,163,521.486021589226,0,0,31613.7804350106,31614.8274672311,0,10,7,0,0,13,3,0,4141361,5271170,0,0,0,0,0,0,0,0,0,0,0,0,0,-3131200,0,0,1010161,0,0,0,0,0,0,0,0,4141150,0,1130020,0,0,0,0,0,0,0,0,0
10,164,909.314556898607,0,0,31616.368627257,31617.4156598624,0,10,7,1,0,29,7,3201171,8363502,7161291,4162111,0,0,0,0,0,0,0,0,3201171,3201160,0,0,1061151,0,0,0,0,4101191,0,0,0,0,3091100,0,0,4070191,0,0,-3061011,0,0,0,0,0,1101100,0
10,165,801.635201660247,1,0,31619.4391590344,31620.4861931797,0,10,7,1,1,6,3,4201080,5182261,0,4080170,0,0,0,0,0,-4201080,0,0,0,3171061,0,0,0,2011200,0,0,0,0,0,0,0,0,0,0,0,0,0,0,0,4080170,0,0,0,0,0,0
10,166,1013.12928904372,1,0,31622.4155801755,31623.462612011,0,10,7,1,1,5,7,3180011,6202292,2040070,10320172,0,0,0,0,-3180011,0,0,0,0,4051131,0,2151161,0,0,0,0,0,0,0,0,0,0,2040070,0,0,0,0,0,1100041,4010030,0,0,0,0,2040061,3170040
10,167,760.544083710556,1,0,31625.6390554029,31626.6860822339,0,10,7,0,1,16,7,6422401,8264362,1081050,0,0,0,2081201,1141020,0,0,0,3200180,0,0,0,1091120,0,3031071,0,-1091161,0,3051010,0,0,0,0,1081050,0,0,0,0,0,0,0,0,0,0,0,0,0
10,168,774.024261689192,0,0,31628.5566625934,31629.6036801853,0,10,7,1,0,25,3,3170150,2011021,1050131,3180101,0,0,0,3170150,0,0,0,0,0,0,0,0,0,0,0,2011021,0,0,0,0,0,0,0,0,-1050131,0,0,0,0,0,3180101,0,0,0,0,0
10,169,930.504348041723,1,0,31639.8740871583,31640.9211278479,0,10,8,1,1,29,7,3201171,8363502,7161291,4162111,0,0,0,0,0,0,0,0,3201171,3201160,0,0,1061151,0,0,0,0,4101191,0,0,0,0,3091100,0,0,4070191,0,0,-3061011,0,0,0,0,0,1101100,0
10,170,504.856862949964,1,0,31642.8975724717,31643.9446008425,0,10,8,0,1,16,7,0,4221301,3171091,5403370,0,0,0,0,0,0,0,0,0,0,0,0,3200171,0,0,-1021130,0,0,0,0,0,0,0,0,1121080,0,2050011,0,1101010,2181140,0,1021080,0,1100140,0,0
10,171,896.787927224068,1,0,31645.638699314,31646.6857307646,0,10,8,1,1,32,3,0,2131120,3160151,6140342,0,0,0,0,0,0,0,0,0,0,0,2131120,0,0,0,0,0,0,0,0,0,0,0,0,0,3160151,0,0,0,4050171,0,-2090171,0,0,0,0
10,172,857.106151353946,0,0,31648.6974686092,31649.7445004447,0,10,8,0,0,33,7,4150191,2200350,5280151,9280383,0,0,0,0,0,4150191,0,0,0,0,0,0,1040160,0,0,0,1160190,0,0,0,0,0,0,3130061,0,0,2150090,0,0,0,2070021,0,-3190201,4020161,0,0
10,173,450.478817430849,1,0,31651.6738912902,31652.7209188911,0,10,8,0,1,28,7,8342432,5130212,2070160,6190281,0,0,0,2101151,0,3171090,0,0,3070191,0,0,0,0,0,2040181,3090031,0,0,0,2070160,0,0,0,0,0,0,0,-3110171,0,0,3080110,0,0,0,0,0
10,174,778.838968428317,1,0,31654.3327130941,31655.3797021989,0,10,8,1,1,18,3,1200161,2070041,4010080,4040101,0,0,0,0,1200161,0,0,0,0,0,0,0,0,0,0,0,0,-2070041,0,0,0,0,0,0,4010080,0,0,0,0,0,4040101,0,0,0,0,0
10,175,874.569905350654,0,0,31657.2267914706,31658.2737659469,0,10,8,1,0,1,7,8260131,3070060,14500582,4081140,-4180021,0,0,0,0,0,4080110,0,0,0,0,0,0,0,3070060,0,0,0,0,0,2160191,4080101,4060090,0,0,4200200,0,4081140,0,0,0,0,0,0,0,0
10,176,740.408700639819,0,0,31660.3090314506,31661.3560613613,0,10,8,0,0,31,7,2070190,4180131,11282561,4292280,0,0,0,0,2070190,0,0,0,0,0,0,0,4180131,0,0,0,0,0,0,2161160,2010161,0,3090120,0,0,4021120,0,0,0,0,-1131080,3161200,0,0,0,0
10,177,672.61707538637,0,0,31663.2266232427,31664.273666242,0,10,8,0,0,2,3,9413362,0,4090130,0,0,-3121171,0,0,0,0,4161160,0,2131031,0,0,0,0,0,0,0,0,0,0,0,0,4090130,0,0,0,0,0,0,0,0,0,0,0,0,0,0
10,178,1222.84524174756,1,0,31666.0265879032,31667.0736185839,0,10,8,0,1,36,7,4060170,12442582,1061170,3222152,0,0,0,0,0,4060170,0,0,0,0,4070191,0,0,2071191,0,4161010,2140190,0,0,0,0,0,0,0,0,0,1061170,0,0,0,0,0,0,2111041,0,-1111111
10,179,484.74727226494,1,0,31669.3794535141,31670.426491509,0,10,8,1,1,17,3,4050031,6311121,1131191,0,0,0,0,0,0,0,0,0,4050031,0,0,2150051,0,0,0,0,-4161070,0,0,0,0,0,0,0,0,0,1131191,0,0,0,0,0,0,0,0,0
10,180,734.49377547513,0,0,31672.0617610163,31673.1088040157,0,10,8,0,0,20,3,6241111,0,2212361,0,0,2141011,0,0,0,0,4100100,0,0,0,0,0,0,0,0,0,0,0,0,-1161201,0,0,0,1051160,0,0,0,0,0,0,0,0,0,0,0,0
10,181,395.750072471856,1,0,31674.9205415524,31675.9676299772,0,10,8,0,1,22,3,0,3020111,4171011,5150300,0,0,0,0,0,0,0,0,0,0,3020111,0,0,0,0,0,0,0,0,0,0,-4171011,0,0,0,0,0,0,0,0,0,0,0,2020130,3130170,0
10,182,1391.53628978966,0,0,31677.4146177731,31678.4616453741,0,10,8,1,0,5,7,3180011,6202292,2040070,10320172,0,0,0,0,-3180011,0,0,0,0,4051131,0,2151161,0,0,0,0,0,0,0,0,0,0,2040070,0,0,0,0,0,1100041,4010030,0,0,0,0,2040061,3170040
10,183,677.236991883547,0,0,31680.8969030246,31681.9439371698,0,10,8,1,0,7,7,6331171,10251353,4111232,3201141,0,0,0,0,0,0,-4131020,2200151,0,0,0,0,2130161,0,0,4041101,4080091,0,0,0,0,2081101,2030131,0,0,0,0,0,0,0,0,0,3201141,0,0,0
10,184,415.54630493556,1,0,31683.8145013609,31684.8615331964,0,10,8,1,1,15,7,9230391,10182332,3240261,0,0,0,2080120,4040110,0,0,0,3110161,0,3030110,0,0,0,0,-4021151,3131071,0,0,0,0,0,0,0,0,1150201,2090060,0,0,0,0,0,0,0,0,0,0
10,185,450.885336202191,0,0,31686.332102161,31687.379139386,0,10,8,0,0,8,3,3141140,4261142,2090180,0,0,0,0,0,0,0,0,-3141140,0,2150011,0,0,0,0,2111131,0,0,0,2090180,0,0,0,0,0,0,0,0,0,0,0,0,0,0,0,0,0
10,186,475.903564107284,1,0,31689.0261783048,31690.0732101403,0,10,8,1,1,21,7,6420461,4010140,8350312,2051170,0,3140170,0,0,1200141,2080150,0,0,0,0,4010140,0,0,0,0,0,0,0,4060180,0,-2150031,0,0,0,0,2140101,0,0,0,0,0,2051170,0,0,0,0
10,187,1051.83441895861,1,0,31691.5673391007,31692.6143420641,0,10,8,0,1,23,7,3060011,5251191,5302451,4222332,0,0,0,3060011,0,0,0,0,0,0,2080181,0,0,3171010,0,0,0,0,0,0,0,1060090,-1161160,0,0,3081201,0,0,0,0,0,0,0,2021141,2201191,0
10,188,796.508676543453,0,0,31694.7085142941,31695.7554618231,0,10,8,1,0,6,3,4201080,5182261,0,4080170,0,0,0,0,0,-4201080,0,0,0,3171061,0,0,0,2011200,0,0,0,0,0,0,0,0,0,0,0,0,0,0,0,4080170,0,0,0,0,0,0
10,189,507.861098292778,1,0,31697.5672659581,31698.6142746959,0,10,8,0,1,13,3,1080041,5222051,0,1141100,0,0,0,1080041,0,0,0,0,0,0,0,0,-3041011,0,0,0,0,2181040,0,0,0,0,0,0,0,0,0,0,0,1141100,0,0,0,0,0,0
10,190,619.161781287403,0,0,31700.2377436099,31701.2847846845,0,10,8,1,0,27,3,4200170,0,6380441,0,4200170,0,0,0,0,0,0,0,0,0,0,0,0,0,0,0,0,0,0,0,2010160,0,0,0,1170080,0,-3200201,0,0,0,0,0,0,0,0,0
10,191,898.788569338649,0,0,31703.0142464398,31704.061212447,0,10,8,0,0,9,3,4292221,2151100,4191111,0,0,0,0,0,0,0,0,1141160,-3151061,2151100,0,0,0,0,0,0,0,0,0,0,0,0,0,0,0,4191111,0,0,0,0,0,0,0,0,0,0
10,192,767.342879244097,0,0,31706.1435301891,31707.1905620246,0,10,8,1,0,25,3,3170150,2011021,1050131,3180101,0,0,0,3170150,0,0,0,0,0,0,0,0,0,0,0,2011021,0,0,0,0,0,0,0,0,-1050131,0,0,0,0,0,3180101,0,0,0,0,0
10,193,489.316373910697,1,0,31718.9315375773,31719.9785821165,0,10,9,0,1,8,7,12302451,0,3060011,9292232,4071110,0,0,0,2040191,0,2081090,-4110060,0,0,0,0,0,0,0,0,0,0,0,3060011,0,0,0,0,0,0,0,0,0,4071171,0,0,0,0,3131021,2090040
10,194,919.579925885046,0,0,31721.602095301,31722.6491544688,0,10,9,0,0,31,3,1150011,2150090,0,7132230,0,0,0,1150011,0,0,0,0,0,2150090,0,0,0,0,0,0,0,0,0,0,0,0,0,0,0,0,0,0,0,0,-4071060,0,0,3061170,0,0
10,195,555.550832075824,1,0,31724.6490967246,31725.6961247105,0,10,9,1,1,6,3,4201080,5182261,0,4080170,0,0,0,0,0,-4201080,0,0,0,3171061,0,0,0,2011200,0,0,0,0,0,0,0,0,0,0,0,0,0,0,0,4080170,0,0,0,0,0,0
10,196,446.018659735273,0,0,31727.3666978327,31728.4137281283,0,10,9,1,0,15,7,9230391,10182332,3240261,0,0,0,2080120,4040110,0,0,0,3110161,0,3030110,0,0,0,0,-4021151,3131071,0,0,0,0,0,0,0,0,1150201,2090060,0,0,0,0,0,0,0,0,0,0
10,197,726.337607589812,0,0,31729.8842959381,31730.9313347029,0,10,9,1,0,25,3,3170150,2011021,1050131,3180101,0,0,0,3170150,0,0,0,0,0,0,0,0,0,0,0,2011021,0,0,0,0,0,0,0,0,-1050131,0,0,0,0,0,3180101,0,0,0,0,0
10,198,925.490616482421,0,0,31732.6842494348,31733.7312881996,0,10,9,1,0,27,3,4200170,0,6380441,0,4200170,0,0,0,0,0,0,0,0,0,0,0,0,0,0,0,0,0,0,0,2010160,0,0,0,1170080,0,-3200201,0,0,0,0,0,0,0,0,0
10,199,543.105044202093,0,0,31735.6724365227,31736.7194664334,0,10,9,0,0,20,7,1180121,8252372,3021141,3351171,0,0,0,0,0,0,0,1180121,0,3050071,0,1151150,0,0,0,0,4051151,0,0,-3021141,0,0,0,0,0,0,0,0,0,0,0,1060091,0,1141050,1150030,0
10,200,377.743908476987,0,0,31738.4018651714,31739.44886621,0,10,9,0,0,22,3,4101150,2080050,4040181,1050081,0,0,0,0,4101150,0,0,0,0,0,2080050,0,0,0,0,0,0,0,0,0,0,-4040181,0,0,0,0,0,0,0,0,0,0,0,0,1050081,0
10,201,740.489157484262,0,0,31740.8370516041,31741.8840865193,0,10,9,1,0,1,7,8260131,3070060,14500582,4081140,-4180021,0,0,0,0,0,4080110,0,0,0,0,0,0,0,3070060,0,0,0,0,0,2160191,4080101,4060090,0,0,4200200,0,4081140,0,0,0,0,0,0,0,0
10,202,458.481385889172,1,0,31743.6840638836,31744.7310984138,0,10,9,0,1,16,7,4160160,4082301,5211061,7392231,0,0,0,0,0,4160160,0,0,0,3071160,0,0,0,0,0,-1011141,0,0,0,0,4181021,0,0,0,1030040,0,0,4191020,0,1170041,2031170,0,0,0,0,0
10,203,591.235943251377,1,0,31746.2251958074,31747.2722326474,0,10,9,0,1,13,7,7272130,8382381,3111041,7300390,0,0,4121110,0,0,0,0,0,3151020,0,3101161,0,-1081020,0,0,0,0,4200200,0,3111041,0,0,0,0,0,0,0,0,0,0,0,0,0,3130200,0,4170190
10,204,706.698054236767,0,0,31748.9428030749,31749.9898376051,0,10,9,0,0,33,3,0,2080091,5231180,1180011,0,0,0,0,0,0,0,0,0,0,0,0,0,0,2080091,0,0,0,0,0,0,0,0,4030160,0,0,1201020,0,0,0,0,0,-1180011,0,0,0
10,205,920.620475364558,1,0,31751.836864898,31752.8839001982,0,10,9,1,1,18,3,1200161,2070041,4010080,4040101,0,0,0,0,1200161,0,0,0,0,0,0,0,0,0,0,0,0,-2070041,0,0,0,0,0,0,4010080,0,0,0,0,0,4040101,0,0,0,0,0
10,206,1284.81510238635,0,0,31754.8485796451,31755.8956114806,0,10,9,1,0,5,7,3180011,6202292,2040070,10320172,0,0,0,0,-3180011,0,0,0,0,4051131,0,2151161,0,0,0,0,0,0,0,0,0,0,2040070,0,0,0,0,0,1100041,4010030,0,0,0,0,2040061,3170040
10,207,663.001520500984,1,0,31758.3543994849,31759.4014320903,0,10,9,1,1,29,7,3201171,8363502,7161291,4162111,0,0,0,0,0,0,0,0,3201171,3201160,0,0,1061151,0,0,0,0,4101191,0,0,0,0,3091100,0,0,4070191,0,0,-3061011,0,0,0,0,0,1101100,0
10,208,519.752157419134,0,0,31761.0955321016,31762.1426278406,0,10,9,1,0,7,7,6331171,10251353,4111232,3201141,0,0,0,0,0,0,-4131020,2200151,0,0,0,0,2130161,0,0,4041101,4080091,0,0,0,0,2081101,2030131,0,0,0,0,0,0,0,0,0,3201141,0,0,0
10,209,907.192267117352,1,0,31763.8131359044,31764.8601731294,0,10,9,0,1,36,7,3200131,5313380,6251041,5300170,0,0,0,0,0,0,3200131,0,0,0,2081170,0,0,0,0,2121050,1111160,0,3061031,0,3190010,0,0,0,0,0,0,0,0,0,0,2180160,0,0,0,-3120010
10,210,417.677833778725,0,0,31766.9424951061,31767.9895773715,0,10,9,1,0,21,7,6420461,4010140,8350312,2051170,0,3140170,0,0,1200141,2080150,0,0,0,0,4010140,0,0,0,0,0,0,0,4060180,0,-2150031,0,0,0,0,2140101,0,0,0,0,0,2051170,0,0,0,0
10,211,687.030783694354,1,0,31769.6012703297,31770.648304475,0,10,9,0,1,2,3,11292341,1190171,0,0,4071040,-4200140,0,0,0,3021161,0,0,0,0,0,0,0,1190171,0,0,0,0,0,0,0,0,0,0,0,0,0,0,0,0,0,0,0,0,0,0
10,212,1536.53337563446,0,0,31772.3777015568,31773.4247287728,0,10,9,0,0,23,7,8241311,1031010,6301283,3141070,0,3181051,0,0,0,0,3030140,2030120,0,0,1031010,0,0,0,0,0,0,0,3100051,0,0,1130071,-2071161,0,0,0,0,3141070,0,0,0,0,0,0,0,0
10,213,591.638612415409,1,0,31776.0835193948,31777.1306085895,0,10,9,0,1,28,3,3011090,2171031,3130150,4070031,3011090,0,0,0,0,0,0,0,0,2171031,0,0,0,0,0,0,0,0,0,0,3130150,0,0,0,0,0,0,-4070031,0,0,0,0,0,0,0,0
10,214,778.1564326433,1,0,31778.7540621051,31779.8010981751,0,10,9,1,1,32,3,0,2131120,3160151,6140342,0,0,0,0,0,0,0,0,0,0,0,2131120,0,0,0,0,0,0,0,0,0,0,0,0,0,3160151,0,0,0,4050171,0,-2090171,0,0,0,0
10,215,459.543493183446,1,0,31781.718721149,31782.7657499048,0,10,9,0,1,9,3,5082271,3180061,0,4201061,0,0,0,0,0,0,0,3051181,-2031090,0,0,0,0,0,0,3180061,0,0,0,0,0,0,0,0,0,0,0,0,0,0,0,0,0,0,4201061,0
10,216,530.367070961802,1,0,31784.412784589,31785.459831438,0,10,9,1,1,17,3,4050031,6311121,1131191,0,0,0,0,0,0,0,0,0,4050031,0,0,2150051,0,0,0,0,-4161070,0,0,0,0,0,0,0,0,0,1131191,0,0,0,0,0,0,0,0,0
10,217,814.050962577312,1,0,31793.6479256734,31794.6949675179,0,10,10,1,1,32,3,0,2131120,3160151,6140342,0,0,0,0,0,0,0,0,0,0,0,2131120,0,0,0,0,0,0,0,0,0,0,0,0,0,3160151,0,0,0,4050171,0,-2090171,0,0,0,0
10,218,1092.22490795582,0,0,31796.6478814029,31797.6949163181,0,10,10,0,0,9,7,2201082,3081081,3210130,8410291,0,0,0,0,1011031,0,0,0,-1190051,0,0,0,0,0,0,3081081,0,0,0,0,1160020,0,0,2050110,0,0,0,0,0,2050140,0,2160041,4200110,0,0,0
10,219,614.30241907874,0,0,31799.8595879887,31800.9066279084,0,10,10,0,0,20,7,5291372,0,10504362,6112210,0,0,2111181,0,3180191,0,0,0,0,0,0,0,0,0,0,0,0,0,0,-3071130,0,3061031,1201111,0,0,0,3171090,0,2101200,4011010,0,0,0,0,0,0
10,220,729.845756824943,1,0,31802.6830799234,31803.7301079093,0,10,10,0,1,33,3,0,6171140,4061031,1121040,0,0,0,0,0,0,0,0,0,0,0,0,0,0,0,0,4130010,2041130,0,0,4061031,0,0,0,0,0,0,0,0,0,0,0,-1121040,0,0,0
10,221,820.67537079638,0,0,31805.6242055338,31806.6712439137,0,10,10,1,0,6,3,4201080,5182261,0,4080170,0,0,0,0,0,-4201080,0,0,0,3171061,0,0,0,2011200,0,0,0,0,0,0,0,0,0,0,0,0,0,0,0,4080170,0,0,0,0,0,0
10,222,773.113444054616,1,0,31808.5418019454,31809.5888357057,0,10,10,0,1,31,3,8181211,3180101,0,4010010,0,0,0,4041150,0,0,4140061,0,0,0,0,0,0,0,0,0,0,3180101,0,0,0,0,0,0,0,0,0,0,0,0,-4010010,0,0,0,0,0
10,223,607.123667075939,0,0,31811.4358714678,31812.4829083078,0,10,10,0,0,22,3,1170020,2041100,4121101,4020031,0,1170020,0,0,0,0,0,0,0,0,0,0,0,0,0,0,2041100,0,0,0,0,-4121101,0,0,0,0,0,0,0,0,0,0,4020031,0,0,0
10,224,558.289829314162,1,0,31814.1534779653,31815.2005098008,0,10,10,0,1,13,7,4221252,9221412,2082251,4181090,0,0,3081091,0,0,0,0,0,1140161,0,3081130,0,-3050181,0,3090101,0,0,0,0,0,0,1021121,0,0,0,1061130,0,0,0,0,0,4181090,0,0,0,0
10,225,881.228190133697,1,0,31816.8004903218,31817.8475279317,0,10,10,1,1,1,7,8260131,3070060,14500582,4081140,-4180021,0,0,0,0,0,4080110,0,0,0,0,0,0,0,3070060,0,0,0,0,0,2160191,4080101,4060090,0,0,4200200,0,4081140,0,0,0,0,0,0,0,0
10,226,542.384012325783,0,0,31819.8004437415,31820.847475577,0,10,10,1,0,25,3,3170150,2011021,1050131,3180101,0,0,0,3170150,0,0,0,0,0,0,0,0,0,0,0,2011021,0,0,0,0,0,0,0,0,-1050131,0,0,0,0,0,3180101,0,0,0,0,0
10,227,549.03729261423,1,0,31822.4356886113,31823.4827196769,0,10,10,0,1,8,3,9492351,0,0,3011031,0,0,3181100,0,0,0,3141070,-3170181,0,0,0,0,0,0,0,0,0,0,0,0,0,0,0,0,0,0,0,0,0,0,0,0,3011031,0,0,0
10,228,491.713140858337,0,0,31825.1180184413,31826.1650337234,0,10,10,1,0,15,7,9230391,10182332,3240261,0,0,0,2080120,4040110,0,0,0,3110161,0,3030110,0,0,0,0,-4021151,3131071,0,0,0,0,0,0,0,0,1150201,2090060,0,0,0,0,0,0,0,0,0,0
10,229,857.896091245493,0,0,31827.8238362793,31828.8708704245,0,10,10,0,0,2,7,9431332,5311171,6211142,1091031,0,-1191171,0,0,0,0,0,4080100,4160061,0,4201111,0,0,0,0,1110060,0,0,0,0,0,4170061,0,2041081,0,0,0,0,1091031,0,0,0,0,0,0,0
10,230,507.042286328215,1,0,31830.7767293764,31831.8237635217,0,10,10,1,1,21,7,6420461,4010140,8350312,2051170,0,3140170,0,0,1200141,2080150,0,0,0,0,4010140,0,0,0,0,0,0,0,4060180,0,-2150031,0,0,0,0,2140101,0,0,0,0,0,2051170,0,0,0,0
10,231,758.079178674961,1,0,31833.4825745466,31834.5295998378,0,10,10,0,1,36,3,0,4101060,3321180,3100071,0,0,0,0,0,0,0,0,0,4101060,0,0,0,0,0,0,0,0,0,0,0,0,0,0,1151100,2170080,0,0,0,0,0,0,0,0,0,-3100071
10,232,583.716500797891,0,0,31836.41193652,31837.4589698954,0,10,10,1,0,7,7,6331171,10251353,4111232,3201141,0,0,0,0,0,0,-4131020,2200151,0,0,0,0,2130161,0,0,4041101,4080091,0,0,0,0,2081101,2030131,0,0,0,0,0,0,0,0,0,3201141,0,0,0
10,233,757.340823551203,0,0,31839.2471832377,31840.2942212325,0,10,10,1,0,18,3,1200161,2070041,4010080,4040101,0,0,0,0,1200161,0,0,0,0,0,0,0,0,0,0,0,0,-2070041,0,0,0,0,0,0,4010080,0,0,0,0,0,4040101,0,0,0,0,0
10,234,534.459975897335,0,0,31842.1530133174,31843.2000490025,0,10,10,0,0,16,7,3150091,6351481,0,8512202,0,0,0,0,0,0,3150091,0,0,3101180,0,0,0,0,0,-2120120,1130181,0,0,0,0,0,0,0,0,0,0,0,1121140,0,0,0,3191030,0,2110011,2090021
10,235,690.533543478523,0,0,31844.9059130359,31845.952948336,0,10,10,1,0,27,3,4200170,0,6380441,0,4200170,0,0,0,0,0,0,0,0,0,0,0,0,0,0,0,0,0,0,0,2010160,0,0,0,1170080,0,-3200201,0,0,0,0,0,0,0,0,0
10,236,630.557010699704,1,0,31847.6588035152,31848.7058984844,0,10,10,1,1,17,3,4050031,6311121,1131191,0,0,0,0,0,0,0,0,0,4050031,0,0,2150051,0,0,0,0,-4161070,0,0,0,0,0,0,0,0,0,1131191,0,0,0,0,0,0,0,0,0
10,237,642.710613203235,0,0,31850.3646475306,31851.4117386501,0,10,10,0,0,28,3,0,4181060,3131100,8201260,0,0,0,0,0,0,0,0,0,0,0,0,0,0,0,4181060,0,0,0,0,0,3131100,0,0,0,0,0,-4091070,0,4110190,0,0,0,0,0,0
10,238,1287.63301662184,1,0,31853.1528362354,31854.1998715355,0,10,10,1,1,5,7,3180011,6202292,2040070,10320172,0,0,0,0,-3180011,0,0,0,0,4051131,0,2151161,0,0,0,0,0,0,0,0,0,0,2040070,0,0,0,0,0,1100041,4010030,0,0,0,0,2040061,3170040
10,239,713.597709542228,1,0,31856.6468997524,31857.6939285082,0,10,10,1,1,29,7,3201171,8363502,7161291,4162111,0,0,0,0,0,0,0,0,3201171,3201160,0,0,1061151,0,0,0,0,4101191,0,0,0,0,3091100,0,0,4070191,0,0,-3061011,0,0,0,0,0,1101100,0
10,240,478.755354906752,1,0,31859.4586692409,31860.5056687396,0,10,10,0,1,23,7,7152101,11321302,6341221,3011041,0,0,0,0,0,3061050,0,4091051,0,0,0,0,0,4031121,0,4130120,0,3160061,0,0,0,0,-2191160,0,0,0,4150061,3011041,0,0,0,0,0,0,0,0
10,241,552.327168988995,1,0,31874.4348366927,31875.4818758425,0,10,11,0,1,16,7,2111011,6302352,4150132,6322312,0,0,0,0,0,0,0,0,2111011,0,0,0,0,0,3111181,-3191171,0,0,0,0,0,0,2030031,0,0,0,2120101,0,2140090,3121101,1061121,0,0,0,0,0
10,242,744.867318491742,1,0,31877.152445885,31878.1994861896,0,10,11,1,1,7,7,6331171,10251353,4111232,3201141,0,0,0,0,0,0,-4131020,2200151,0,0,0,0,2130161,0,0,4041101,4080091,0,0,0,0,2081101,2030131,0,0,0,0,0,0,0,0,0,3201141,0,0,0
10,243,1092.48360172205,1,0,31880.0818124779,31881.1288450833,0,10,11,0,1,36,3,4201190,0,0,8393413,4201190,0,0,0,0,0,0,0,0,0,0,0,0,0,0,0,0,0,0,0,0,0,0,0,0,0,0,0,0,0,4101161,1141061,0,0,0,-3151191
10,244,492.979662416474,0,0,31883.3641031958,31884.411147735,0,10,11,0,0,20,3,2150010,0,4060050,5310111,0,0,0,0,0,0,0,2150010,0,0,0,0,0,0,0,0,0,0,0,-4060050,0,0,0,0,0,0,0,0,0,0,3170041,0,0,2140070,0,0
10,245,786.914294509188,0,0,31886.105240817,31887.1522714977,0,10,11,0,0,8,3,5221202,3110081,0,3200050,0,2030051,0,0,0,0,0,-3191151,0,3110081,0,0,0,0,0,0,0,0,0,0,0,0,0,0,0,0,0,0,0,0,0,3200050,0,0,0,0
10,246,660.790304744296,1,0,31889.0934382989,31890.1404616653,0,10,11,1,1,1,7,8260131,3070060,14500582,4081140,-4180021,0,0,0,0,0,4080110,0,0,0,0,0,0,0,3070060,0,0,0,0,0,2160191,4080101,4060090,0,0,4200200,0,4081140,0,0,0,0,0,0,0,0
10,247,771.267171283398,0,0,31891.8227949599,31892.8698275653,0,10,11,1,0,18,3,1200161,2070041,4010080,4040101,0,0,0,0,1200161,0,0,0,0,0,0,0,0,0,0,0,0,-2070041,0,0,0,0,0,0,4010080,0,0,0,0,0,4040101,0,0,0,0,0
10,248,1059.21489050525,1,0,31894.7168660221,31895.7639009373,0,10,11,1,1,29,7,3201171,8363502,7161291,4162111,0,0,0,0,0,0,0,0,3201171,3201160,0,0,1061151,0,0,0,0,4101191,0,0,0,0,3091100,0,0,4070191,0,0,-3061011,0,0,0,0,0,1101100,0
10,249,460.919728615409,1,0,31897.9050495684,31898.9520814039,0,10,11,0,1,23,7,4090011,4020141,8351333,10360491,0,0,4090011,0,0,0,0,0,0,0,4020141,0,0,0,0,0,0,0,0,3170151,0,0,-1150041,4031141,0,0,0,0,0,0,3110130,4050200,0,3200161,0,0
10,250,555.754861386959,0,0,31900.446183802,31901.4932187172,0,10,11,1,0,21,7,6420461,4010140,8350312,2051170,0,3140170,0,0,1200141,2080150,0,0,0,0,4010140,0,0,0,0,0,0,0,4060180,0,-2150031,0,0,0,0,2140101,0,0,0,0,0,2051170,0,0,0,0
10,251,634.340022064862,0,0,31903.0696658047,31904.1167061093,0,10,11,1,0,15,7,9230391,10182332,3240261,0,0,0,2080120,4040110,0,0,0,3110161,0,3030110,0,0,0,0,-4021151,3131071,0,0,0,0,0,0,0,0,1150201,2090060,0,0,0,0,0,0,0,0,0,0
10,252,1036.45792328825,1,0,31905.8813944873,31906.9284251679,0,10,11,0,1,31,7,2030200,4161072,4301061,11402362,0,0,0,0,0,0,2030200,0,0,0,0,0,0,0,0,1100031,0,3061041,0,0,0,0,1170051,0,0,3131010,0,0,4181181,0,-4150080,0,0,3071101,0,0
10,253,706.767732172011,1,0,31908.9872733801,31910.0342609451,0,10,11,1,1,6,3,4201080,5182261,0,4080170,0,0,0,0,0,-4201080,0,0,0,3171061,0,0,0,2011200,0,0,0,0,0,0,0,0,0,0,0,0,0,0,0,4080170,0,0,0,0,0,0
10,254,431.593017638079,0,0,31911.7871818364,31912.8342691063,0,10,11,0,0,22,3,3101180,0,6110372,2120070,0,0,0,3101180,0,0,0,0,0,0,0,0,0,0,0,0,0,0,0,0,0,-3090181,0,0,0,0,3020191,0,0,0,0,0,0,0,0,2120070
10,255,740.909919812111,0,0,31914.4459562901,31915.4929927451,0,10,11,0,0,13,7,11342480,1070071,5350280,3091071,0,2011090,4100140,0,0,3150160,2081090,0,0,0,0,0,-1070071,0,0,0,0,0,0,4200200,0,0,0,0,0,0,1150080,0,3091071,0,0,0,0,0,0,0
10,256,512.120691328164,0,0,31917.4106103295,31918.4576494793,0,10,11,1,0,25,3,3170150,2011021,1050131,3180101,0,0,0,3170150,0,0,0,0,0,0,0,0,0,0,0,2011021,0,0,0,0,0,0,0,0,-1050131,0,0,0,0,0,3180101,0,0,0,0,0
10,257,613.32346335621,1,0,31920.1635104329,31921.2105457331,0,10,11,1,1,27,3,4200170,0,6380441,0,4200170,0,0,0,0,0,0,0,0,0,0,0,0,0,0,0,0,0,0,0,2010160,0,0,0,1170080,0,-3200201,0,0,0,0,0,0,0,0,0
10,258,1317.96794035836,0,0,31922.9987590754,31924.0457947605,0,10,11,0,0,33,7,4081140,3383331,8151241,7220251,0,0,0,0,0,4081140,0,0,0,0,0,0,1161150,1151110,0,1071071,0,0,0,0,0,0,4031191,0,4120050,0,0,0,0,3070120,0,0,-4150131,0,0,0
10,259,411.776382243261,0,0,31926.4340148011,31927.4810320081,0,10,11,0,0,28,3,2040170,0,0,9492223,0,2040170,0,0,0,0,0,0,0,0,0,0,0,0,0,0,0,0,0,0,0,0,0,0,0,0,0,-3090081,0,0,0,0,0,4201101,0,2201041
10,260,621.751028716972,1,0,31928.928079088,31929.9751128483,0,10,11,1,1,32,3,0,2131120,3160151,6140342,0,0,0,0,0,0,0,0,0,0,0,2131120,0,0,0,0,0,0,0,0,0,0,0,0,0,3160151,0,0,0,4050171,0,-2090171,0,0,0,0
10,261,1140.26495621874,1,0,31931.6103865902,31932.6574234302,0,10,11,1,1,5,7,3180011,6202292,2040070,10320172,0,0,0,0,-3180011,0,0,0,0,4051131,0,2151161,0,0,0,0,0,0,0,0,0,0,2040070,0,0,0,0,0,1100041,4010030,0,0,0,0,2040061,3170040
10,262,541.37233491565,1,0,31934.8573991007,31935.9044282414,0,10,11,0,1,9,3,2160140,5112240,1190131,0,0,0,0,0,0,0,0,0,-2160140,0,0,0,0,3041060,0,0,0,2071180,0,0,0,0,0,0,0,0,1190131,0,0,0,0,0,0,0,0,0
10,263,499.150201667362,0,0,31937.645582416,31938.6926242605,0,10,11,1,0,17,3,4050031,6311121,1131191,0,0,0,0,0,0,0,0,0,4050031,0,0,2150051,0,0,0,0,-4161070,0,0,0,0,0,0,0,0,0,1131191,0,0,0,0,0,0,0,0,0
10,264,909.664486411202,0,0,31940.2808365249,31941.3278775994,0,10,11,0,0,2,7,11392252,1120170,6092201,3151151,0,-4101061,0,0,0,0,0,3111060,4180131,0,0,0,0,0,0,0,0,1120170,0,4031140,0,0,0,0,2061061,0,0,0,0,0,0,1050060,0,2101091,0,0
10,265,381.730564189638,1,0,31953.2806236415,31954.3277266947,0,10,12,1,1,15,7,9230391,10182332,3240261,0,0,0,2080120,4040110,0,0,0,3110161,0,3030110,0,0,0,0,-4021151,3131071,0,0,0,0,0,0,0,0,1150201,2090060,0,0,0,0,0,0,0,0,0,0
10,266,459.746752567298,0,0,31955.8217551803,31956.8688024143,0,10,12,1,0,21,7,6420461,4010140,8350312,2051170,0,3140170,0,0,1200141,2080150,0,0,0,0,4010140,0,0,0,0,0,0,0,4060180,0,-2150031,0,0,0,0,2140101,0,0,0,0,0,2051170,0,0,0,0
10,267,923.789089032653,0,0,31958.3747077154,31959.4217060593,0,10,12,0,0,31,7,7390221,1031100,2050070,6342340,0,0,4130020,0,0,2180101,0,1080100,0,1031100,0,0,0,0,0,0,0,0,0,0,0,0,0,2050070,0,0,0,0,0,0,-1071090,3150130,0,0,0,2121120
10,268,509.649241954321,0,0,31961.5157962926,31962.5628319777,0,10,12,1,0,17,3,4050031,6311121,1131191,0,0,0,0,0,0,0,0,0,4050031,0,0,2150051,0,0,0,0,-4161070,0,0,0,0,0,0,0,0,0,1131191,0,0,0,0,0,0,0,0,0
10,269,990.756512870576,1,0,31964.1275150432,31965.1745507283,0,10,12,0,1,28,7,9341330,5081112,4131151,5172261,0,0,0,0,0,4200040,2131110,3010180,0,0,0,0,0,4060051,0,1021061,0,0,0,0,0,4131151,0,0,0,0,0,-4151190,0,0,0,0,0,0,1021071,0
10,270,561.400313879858,0,0,31967.2098158471,31968.2568580765,0,10,12,1,0,7,7,6331171,10251353,4111232,3201141,0,0,0,0,0,0,-4131020,2200151,0,0,0,0,2130161,0,0,4041101,4080091,0,0,0,0,2081101,2030131,0,0,0,0,0,0,0,0,0,3201141,0,0,0
10,271,1270.80829781698,0,0,31969.8686022346,31970.9156436941,0,10,12,1,0,29,7,3201171,8363502,7161291,4162111,0,0,0,0,0,0,0,0,3201171,3201160,0,0,1061151,0,0,0,0,4101191,0,0,0,0,3091100,0,0,4070191,0,0,-3061011,0,0,0,0,0,1101100,0
10,272,554.555707993131,1,0,31973.209796599,31974.2567614513,0,10,12,0,1,23,7,5062221,5211161,5331152,7302272,3041071,0,0,0,2021150,0,0,0,0,0,2180030,0,0,0,0,0,0,3031131,0,0,0,0,-3130051,0,2201101,0,0,0,0,0,0,3151141,0,0,4151131,0
10,273,426.352929032873,1,0,31975.9038046047,31976.9508364402,0,10,12,0,1,22,7,0,8210330,9462432,2200090,0,0,0,0,0,0,0,0,0,0,3030160,0,0,3060070,0,0,0,2120100,0,3160150,0,-3120140,0,1131011,0,0,2051131,0,2200090,0,0,0,0,0,0,0
10,274,1139.6162969977,1,0,31978.4096433076,31979.4566793777,0,10,12,1,1,27,3,4200170,0,6380441,0,4200170,0,0,0,0,0,0,0,0,0,0,0,0,0,0,0,0,0,0,0,2010160,0,0,0,1170080,0,-3200201,0,0,0,0,0,0,0,0,0
10,275,1383.74698970438,1,0,31981.6684175303,31982.7154586049,0,10,12,1,1,5,7,3180011,6202292,2040070,10320172,0,0,0,0,-3180011,0,0,0,0,4051131,0,2151161,0,0,0,0,0,0,0,0,0,0,2040070,0,0,0,0,0,1100041,4010030,0,0,0,0,2040061,3170040
10,276,669.408810739696,1,0,31985.103654008,31986.150690463,0,10,12,1,1,6,3,4201080,5182261,0,4080170,0,0,0,0,0,-4201080,0,0,0,3171061,0,0,0,2011200,0,0,0,0,0,0,0,0,0,0,0,0,0,0,0,4080170,0,0,0,0,0,0
10,277,827.285920422582,0,0,31987.9977304597,31989.044763835,0,10,12,0,0,20,3,6302250,3150151,2041010,0,0,3181110,3121140,0,0,0,0,0,0,0,0,0,0,0,3150151,0,0,0,0,-2041010,0,0,0,0,0,0,0,0,0,0,0,0,0,0,0,0
10,278,798.205969418632,0,0,31990.9388664641,31991.9858986845,0,10,12,0,0,36,3,2111121,2071100,3121040,1051050,0,0,0,2111121,0,0,0,0,0,0,0,0,0,0,0,0,2071100,0,0,0,0,0,3121040,0,0,0,0,0,0,0,0,0,0,0,0,-1051050
10,279,716.996144907171,0,0,31993.9270481626,31994.9740830777,0,10,12,1,0,18,3,1200161,2070041,4010080,4040101,0,0,0,0,1200161,0,0,0,0,0,0,0,0,0,0,0,0,-2070041,0,0,0,0,0,0,4010080,0,0,0,0,0,4040101,0,0,0,0,0
10,280,411.643570711021,1,0,31996.8093571276,31997.8563928127,0,10,12,0,1,16,7,8202152,10303363,5300241,4050050,0,0,0,0,0,0,4031041,0,4171111,0,4071161,4171111,0,0,0,-2061091,0,0,0,0,1120170,0,0,4180071,0,0,0,0,0,0,0,0,4050050,0,0,0
10,281,786.930847829353,0,0,31999.4210720286,32000.4681084836,0,10,12,1,0,1,7,8260131,3070060,14500582,4081140,-4180021,0,0,0,0,0,4080110,0,0,0,0,0,0,0,3070060,0,0,0,0,0,2160191,4080101,4060090,0,0,4200200,0,4081140,0,0,0,0,0,0,0,0
10,282,1084.50528580579,0,0,32002.3975051035,32003.4445388638,0,10,12,1,0,32,3,0,2131120,3160151,6140342,0,0,0,0,0,0,0,0,0,0,0,2131120,0,0,0,0,0,0,0,0,0,0,0,0,0,3160151,0,0,0,4050171,0,-2090171,0,0,0,0
10,283,948.185989946069,1,0,32005.7268596087,32006.7738976036,0,10,12,0,1,13,3,4160181,1141200,8281131,0,0,0,0,0,0,0,4160181,0,0,0,0,0,-1141200,0,0,0,0,0,0,0,4131100,0,0,0,0,0,4150031,0,0,0,0,0,0,0,0,0
10,284,630.803000753076,0,0,32008.9150450798,32009.962079995,0,10,12,0,0,33,3,0,5272310,0,6101072,0,0,0,0,0,0,0,0,0,0,0,0,4111190,1161120,0,0,0,0,0,0,0,0,0,0,0,0,0,0,4090061,0,0,0,-2011011,0,0,0
10,285,805.416673181753,1,0,32011.6444117497,32012.6914485897,0,10,12,0,1,9,3,2150160,0,1100100,4111241,0,0,0,0,0,0,0,0,-2150160,0,0,0,0,0,0,0,0,0,0,0,0,0,0,0,0,1100100,0,0,0,2090161,0,2021080,0,0,0,0
10,286,558.816455908527,1,0,32014.5620166304,32015.609116604,0,10,12,1,1,25,3,3170150,2011021,1050131,3180101,0,0,0,3170150,0,0,0,0,0,0,0,0,0,0,0,2011021,0,0,0,0,0,0,0,0,-1050131,0,0,0,0,0,3180101,0,0,0,0,0
10,287,525.531576327921,0,0,32017.3031561764,32018.3502538403,0,10,12,0,0,2,3,4141170,4101110,0,5212201,0,-4141170,0,0,0,0,0,0,0,4101110,0,0,0,0,0,0,0,0,0,0,0,0,0,0,0,0,0,3101111,0,0,0,0,0,2111090,0,0
10,288,535.84891504579,1,0,32020.0089871031,32021.0561024752,0,10,12,0,1,8,7,5413261,4141020,2041140,11250402,0,0,0,0,1111020,0,0,-2171170,2131071,0,0,0,0,0,0,0,4141020,0,0,0,0,0,0,0,2041140,0,0,3120160,0,4060071,0,4070171,0,0,0,0
10,289,859.309667892376,0,0,32027.4794586726,32028.5264958976,0,10,13,0,0,31,3,4141111,0,0,11180352,4141111,0,0,0,0,0,0,0,0,0,0,0,0,0,0,0,0,0,0,0,0,0,0,0,0,0,0,0,0,0,-4050161,3060171,0,0,4070020,0
10,290,802.980255259172,0,0,32030.4558836634,32031.514688375,0,10,13,1,0,18,3,1200161,2070041,4010080,4040101,0,0,0,0,1200161,0,0,0,0,0,0,0,0,0,0,0,0,-2070041,0,0,0,0,0,0,4010080,0,0,0,0,0,4040101,0,0,0,0,0
10,291,491.609201395477,1,0,32033.4440615122,32034.4911129807,0,10,13,0,1,22,3,4070180,0,5272363,0,0,0,0,0,0,0,0,4070180,0,0,0,0,0,0,0,0,0,0,0,2130011,1071151,-2071201,0,0,0,0,0,0,0,0,0,0,0,0,0,0
10,292,535.943230483099,0,0,32036.1616803285,32037.2087102392,0,10,13,0,0,23,3,0,2200030,3160070,5122212,0,0,0,0,0,0,0,0,0,0,0,0,0,0,0,2200030,0,0,0,0,0,0,-3160070,0,0,0,0,1011191,0,4111021,0,0,0,0,0,0
10,293,474.190487828309,1,0,32038.9263382945,32039.9733755195,0,10,13,0,1,20,7,0,4010161,9521272,8302202,0,0,0,0,0,0,0,0,0,4010161,0,0,0,0,0,0,0,0,0,-2200020,2190011,1091071,0,0,4040170,0,0,4040080,2081051,0,0,2181071,0,0,0,0
10,294,434.486384223419,1,0,32041.5380651293,32042.5851000445,0,10,13,1,1,17,3,4050031,6311121,1131191,0,0,0,0,0,0,0,0,0,4050031,0,0,2150051,0,0,0,0,-4161070,0,0,0,0,0,0,0,0,0,1131191,0,0,0,0,0,0,0,0,0
10,295,623.250836619263,0,0,32044.1262619953,32045.1733038398,0,10,13,0,0,13,7,3100191,8321232,1190110,4331323,0,0,3100191,0,0,0,0,0,0,1170071,0,0,-4011100,3140061,0,0,0,0,0,1190110,0,0,0,0,0,0,0,0,0,1131031,1130091,0,0,0,2070201,0
10,296,611.217341938755,0,0,32046.914451085,32047.9614894649,0,10,13,1,0,25,3,3170150,2011021,1050131,3180101,0,0,0,3170150,0,0,0,0,0,0,0,0,0,0,0,2011021,0,0,0,0,0,0,0,0,-1050131,0,0,0,0,0,3180101,0,0,0,0,0
10,297,470.487933307595,1,0,32049.73793994,32050.7849729304,0,10,13,1,1,15,7,9230391,10182332,3240261,0,0,0,2080120,4040110,0,0,0,3110161,0,3030110,0,0,0,0,-4021151,3131071,0,0,0,0,0,0,0,0,1150201,2090060,0,0,0,0,0,0,0,0,0,0
10,298,1347.19802613472,1,0,32052.373183655,32053.4202258844,0,10,13,0,1,16,7,1051191,6172381,4360371,4121291,0,0,0,0,0,0,1051191,0,0,0,0,0,0,0,0,-1101061,1050200,4021120,0,0,0,3160191,1200180,0,0,0,0,3101170,1020121,0,0,0,0,0,0,0
10,299,1159.75014022479,0,0,32055.7967296382,32056.8437345264,0,10,13,1,0,5,7,3180011,6202292,2040070,10320172,0,0,0,0,-3180011,0,0,0,0,4051131,0,2151161,0,0,0,0,0,0,0,0,0,0,2040070,0,0,0,0,0,1100041,4010030,0,0,0,0,2040061,3170040
10,300,679.185279306694,1,0,32059.1142573727,32060.161300757,0,10,13,0,1,28,3,7141170,0,0,5241231,0,0,4010060,3131110,0,0,0,0,0,0,0,0,0,0,0,0,0,0,0,0,0,0,0,0,0,0,0,-1131101,0,0,0,4110130,0,0,0,0
10,301,736.527524230041,1,0,32061.9848042405,32063.0318395407,0,10,13,1,1,1,7,8260131,3070060,14500582,4081140,-4180021,0,0,0,0,0,4080110,0,0,0,0,0,0,0,3070060,0,0,0,0,0,2160191,4080101,4060090,0,0,4200200,0,4081140,0,0,0,0,0,0,0,0
10,302,540.024586593063,1,0,32064.8082954053,32065.8553318603,0,10,13,1,1,7,7,6331171,10251353,4111232,3201141,0,0,0,0,0,0,-4131020,2200151,0,0,0,0,2130161,0,0,4041101,4080091,0,0,0,0,2081101,2030131,0,0,0,0,0,0,0,0,0,3201141,0,0,0
10,303,640.889362897724,0,0,32067.50236231,32068.5493964552,0,10,13,0,0,33,3,0,5351202,0,5122261,0,0,0,0,0,0,0,0,0,0,2200071,3151131,0,0,0,0,0,0,0,0,0,0,0,0,0,0,0,0,0,0,0,4111190,-1011071,0,0,0
10,304,572.736644262477,0,0,32070.2435045507,32071.2905791169,0,10,13,1,0,21,7,6420461,4010140,8350312,2051170,0,3140170,0,0,1200141,2080150,0,0,0,0,4010140,0,0,0,0,0,0,0,4060180,0,-2150031,0,0,0,0,2140101,0,0,0,0,0,2051170,0,0,0,0
10,305,937.112587896991,0,0,32072.9611021941,32074.0081451935,0,10,13,1,0,29,7,3201171,8363502,7161291,4162111,0,0,0,0,0,0,0,0,3201171,3201160,0,0,1061151,0,0,0,0,4101191,0,0,0,0,3091100,0,0,4070191,0,0,-3061011,0,0,0,0,0,1101100,0
10,306,518.415572962112,0,0,32076.0198764938,32077.0669244977,0,10,13,0,0,9,7,5322141,3020010,8382481,6211311,0,0,0,2141030,0,0,0,0,-3181111,0,0,0,0,0,0,0,3020010,0,3130150,0,2121181,3131150,0,0,0,0,0,0,0,0,0,4160170,2051141,0,0,0
10,307,893.807559463312,0,0,32078.6433688905,32079.6904026508,0,10,13,0,0,2,7,3092141,11592633,1140040,3150180,2021101,-1071040,0,0,0,0,0,0,0,0,0,0,4201200,2161161,0,0,2040111,3190161,0,1140040,0,0,0,0,0,0,0,0,0,0,0,0,3150180,0,0,0
10,308,650.113797444646,0,0,32081.6550847924,32082.7021258669,0,10,13,1,0,6,3,4201080,5182261,0,4080170,0,0,0,0,0,-4201080,0,0,0,3171061,0,0,0,2011200,0,0,0,0,0,0,0,0,0,0,0,0,0,0,0,4080170,0,0,0,0,0,0
10,309,460.852360447461,1,0,32084.4903453686,32085.5373756642,0,10,13,0,1,8,3,3041160,8343221,0,0,0,0,0,0,0,0,0,-3041160,0,0,0,3061070,0,0,3091130,2191021,0,0,0,0,0,0,0,0,0,0,0,0,0,0,0,0,0,0,0,0
10,310,1088.43535225969,1,0,32087.1726547956,32088.2196854762,0,10,13,1,1,27,3,4200170,0,6380441,0,4200170,0,0,0,0,0,0,0,0,0,0,0,0,0,0,0,0,0,0,0,2010160,0,0,0,1170080,0,-3200201,0,0,0,0,0,0,0,0,0
10,311,997.604583408247,1,0,32090.3255458909,32091.3725773414,0,10,13,0,1,36,7,4260300,4152281,4042162,5281141,1150200,0,0,0,0,0,0,0,3110100,0,0,1131141,0,0,0,3021140,0,0,0,1031101,0,0,0,0,3011061,0,0,4160090,0,0,0,0,0,0,0,-1121051
10,312,1007.82029243055,0,0,32093.537279809,32094.5842974009,0,10,13,1,0,32,3,0,2131120,3160151,6140342,0,0,0,0,0,0,0,0,0,0,0,2131120,0,0,0,0,0,0,0,0,0,0,0,0,0,3160151,0,0,0,4050171,0,-2090171,0,0,0,0
10,313,491.258501962875,0,0,32107.00763743,32108.0546804294,0,10,14,1,0,15,7,9230391,10182332,3240261,0,0,0,2080120,4040110,0,0,0,3110161,0,3030110,0,0,0,0,-4021151,3131071,0,0,0,0,0,0,0,0,1150201,2090060,0,0,0,0,0,0,0,0,0,0
10,314,598.930157979339,0,0,32109.6428950035,32110.6899295338,0,10,14,0,0,36,7,4010071,12670633,1061140,2280200,0,0,0,0,0,0,4010071,0,0,4140090,0,3160141,0,1170201,0,0,0,4200201,0,0,0,0,1061140,0,0,0,0,0,0,0,0,1110020,0,0,0,-1170180
10,315,438.764455382625,1,0,32112.3840245406,32113.4310636903,0,10,14,0,1,22,3,0,4140200,1041011,4161050,0,0,0,0,0,0,0,0,0,0,1090070,0,0,0,0,0,3050130,0,0,0,0,-1041011,0,0,0,0,0,0,4161050,0,0,0,0,0,0,0
10,316,935.787552272814,1,0,32114.9839854286,32116.0310218836,0,10,14,1,1,1,7,8260131,3070060,14500582,4081140,-4180021,0,0,0,0,0,4080110,0,0,0,0,0,0,0,3070060,0,0,0,0,0,2160191,4080101,4060090,0,0,4200200,0,4081140,0,0,0,0,0,0,0,0
10,317,1242.81509160573,1,0,32117.983941928,32119.0309756883,0,10,14,0,1,31,7,5260332,7571393,0,6252251,3090191,2170141,0,0,0,0,0,0,0,0,2180140,0,0,1170011,3090141,0,1131101,0,0,0,0,0,0,0,0,0,0,0,0,0,-4201071,0,2051180,0,0,0
10,318,1188.82431681413,1,0,32121.3838836449,32122.4309227946,0,10,14,0,1,2,7,5443312,3121110,5130242,3252182,0,-1071131,0,0,0,3201151,0,1171030,0,0,0,0,0,0,0,0,3121110,0,2040161,0,0,0,0,0,3090081,0,0,0,0,0,0,2071061,0,0,0,1181121
10,319,657.550473293668,1,0,32124.6661966905,32125.7132331455,0,10,14,1,1,6,3,4201080,5182261,0,4080170,0,0,0,0,0,-4201080,0,0,0,3171061,0,0,0,2011200,0,0,0,0,0,0,0,0,0,0,0,0,0,0,0,4080170,0,0,0,0,0,0
10,320,615.712531081954,1,0,32127.4661482624,32128.5131858723,0,10,14,0,1,28,3,1060161,2071070,0,7241321,0,0,0,0,0,0,0,0,1060161,0,0,0,0,0,0,2071070,0,0,0,0,0,0,0,0,0,0,0,-3050120,4191201,0,0,0,0,0,0,0
10,321,543.836854991241,0,0,32130.3249311083,32131.3719987451,0,10,14,1,0,7,7,6331171,10251353,4111232,3201141,0,0,0,0,0,0,-4131020,2200151,0,0,0,0,2130161,0,0,4041101,4080091,0,0,0,0,2081101,2030131,0,0,0,0,0,0,0,0,0,3201141,0,0,0
10,322,532.814267789945,0,0,32133.0307755086,32134.0778054193,0,10,14,0,0,13,7,0,3021101,13480462,7352221,0,0,0,0,0,0,0,0,0,0,0,0,-3021101,0,0,0,0,0,4020180,4180070,0,0,0,1090021,0,0,4190191,3151040,0,0,3170141,0,0,0,1031040,0
10,323,492.634352438472,0,0,32135.6660361618,32136.7130622229,0,10,14,1,0,21,7,6420461,4010140,8350312,2051170,0,3140170,0,0,1200141,2080150,0,0,0,0,4010140,0,0,0,0,0,0,0,4060180,0,-2150031,0,0,0,0,2140101,0,0,0,0,0,2051170,0,0,0,0
10,324,625.732294975023,1,0,32138.3719171334,32139.4189039285,0,10,14,1,1,17,3,4050031,6311121,1131191,0,0,0,0,0,0,0,0,0,4050031,0,0,2150051,0,0,0,0,-4161070,0,0,0,0,0,0,0,0,0,1131191,0,0,0,0,0,0,0,0,0
10,325,491.454062128469,1,0,32141.1012245193,32142.1482782976,0,10,14,0,1,9,7,9100382,4130081,8280060,4191382,1030200,0,0,0,0,4010071,0,0,-4060111,0,0,0,0,0,4130081,0,0,0,0,0,4170010,0,4110050,0,0,0,0,0,0,0,3081181,0,0,0,0,1110201
10,326,810.418470948207,1,0,32143.7482515043,32144.795291809,0,10,14,1,1,32,3,0,2131120,3160151,6140342,0,0,0,0,0,0,0,0,0,0,0,2131120,0,0,0,0,0,0,0,0,0,0,0,0,0,3160151,0,0,0,4050171,0,-2090171,0,0,0,0
10,327,503.996860166808,0,0,32146.6776246416,32147.7246599417,0,10,14,0,0,20,3,2341172,1101110,4050150,0,0,1180011,0,0,1161161,0,0,0,0,0,0,0,0,0,1101110,0,0,0,0,-4050150,0,0,0,0,0,0,0,0,0,0,0,0,0,0,0,0
10,328,715.121769990219,0,0,32149.3364075644,32150.3834501788,0,10,14,1,0,27,3,4200170,0,6380441,0,4200170,0,0,0,0,0,0,0,0,0,0,0,0,0,0,0,0,0,0,0,2010160,0,0,0,1170080,0,-3200201,0,0,0,0,0,0,0,0,0
10,329,528.239776689588,1,0,32152.2422445735,32153.2892806436,0,10,14,1,1,25,3,3170150,2011021,1050131,3180101,0,0,0,3170150,0,0,0,0,0,0,0,0,0,0,0,2011021,0,0,0,0,0,0,0,0,-1050131,0,0,0,0,0,3180101,0,0,0,0,0
10,330,880.318912346411,0,0,32154.8422016118,32155.8892380669,0,10,14,1,0,29,7,3201171,8363502,7161291,4162111,0,0,0,0,0,0,0,0,3201171,3201160,0,0,1061151,0,0,0,0,4101191,0,0,0,0,3091100,0,0,4070191,0,0,-3061011,0,0,0,0,0,1101100,0
10,331,426.733655425778,0,0,32157.9127507125,32158.9597863976,0,10,14,0,0,8,3,2150091,5252271,0,2090130,0,0,0,0,0,0,0,-2150091,0,0,3141141,0,0,0,0,0,0,2111130,0,0,0,0,0,0,0,0,0,0,0,0,0,0,0,0,0,2090130
10,332,1340.1420766786,0,0,32160.4891785519,32161.5362150069,0,10,14,1,0,5,7,3180011,6202292,2040070,10320172,0,0,0,0,-3180011,0,0,0,0,4051131,0,2151161,0,0,0,0,0,0,0,0,0,0,2040070,0,0,0,0,0,1100041,4010030,0,0,0,0,2040061,3170040
10,333,579.386074947251,0,0,32163.9479615517,32164.9949879978,0,10,14,0,0,33,3,0,1151061,1111160,4331192,0,0,0,0,0,0,0,0,0,0,0,0,0,0,0,1151061,0,0,0,0,0,1111160,0,0,0,0,0,3160141,0,0,0,0,-1171051,0,0,0
10,334,458.537590187916,0,0,32166.7479042695,32167.7949449591,0,10,14,0,0,16,7,7332130,5170311,3121161,7363450,3131070,0,4201060,0,0,0,0,0,0,0,0,0,1010171,0,0,-4160140,0,0,0,0,3121161,0,0,0,0,0,0,2151100,3171180,0,0,2041170,0,0,0,0
10,335,607.852398174145,1,0,32169.4184566038,32170.4654861296,0,10,14,1,1,18,3,1200161,2070041,4010080,4040101,0,0,0,0,1200161,0,0,0,0,0,0,0,0,0,0,0,0,-2070041,0,0,0,0,0,0,4010080,0,0,0,0,0,4040101,0,0,0,0,0
10,336,436.205619873363,1,0,32172.0890008539,32173.1360415435,0,10,14,0,1,23,3,0,4011120,4252271,2080100,0,0,0,0,0,0,0,0,0,4011120,0,0,0,0,0,0,0,0,0,0,0,0,-2181160,0,0,0,2071111,0,0,0,0,0,2080100,0,0,0
10,337,900.864663803077,0,0,32181.3123852305,32182.3594821244,0,10,15,0,0,31,3,0,5151062,4091171,3050041,0,0,0,0,0,0,0,0,0,0,0,0,0,0,3080021,2071041,0,0,0,0,4091171,0,0,0,0,0,0,0,0,0,-3050041,0,0,0,0,0
10,338,526.660281866498,0,0,32184.3005815575,32185.3476180126,0,10,15,1,0,27,3,4200170,0,6380441,0,4200170,0,0,0,0,0,0,0,0,0,0,0,0,0,0,0,0,0,0,0,2010160,0,0,0,1170080,0,-3200201,0,0,0,0,0,0,0,0,0
10,339,433.064338430995,1,0,32186.924075494,32187.9711042498,0,10,15,0,1,23,3,1160201,2090101,6092081,0,0,0,0,0,0,0,0,1160201,0,0,0,0,0,0,2090101,0,0,0,0,0,0,0,-3011020,0,3081061,0,0,0,0,0,0,0,0,0,0,0
10,340,748.716158181196,0,0,32189.4064227242,32190.4534195282,0,10,15,0,0,2,3,8262111,0,0,2091141,0,-1071080,0,0,4141020,0,0,3050011,0,0,0,0,0,0,0,0,0,0,0,0,0,0,0,0,0,0,0,0,2091141,0,0,0,0,0,0,0
10,341,445.826949173352,0,0,32192.359278865,32193.4063145502,0,10,15,1,0,21,7,6420461,4010140,8350312,2051170,0,3140170,0,0,1200141,2080150,0,0,0,0,4010140,0,0,0,0,0,0,0,4060180,0,-2150031,0,0,0,0,2140101,0,0,0,0,0,2051170,0,0,0,0
10,342,870.796518011048,0,0,32194.9121782755,32195.9592158854,0,10,15,1,0,29,7,3201171,8363502,7161291,4162111,0,0,0,0,0,0,0,0,3201171,3201160,0,0,1061151,0,0,0,0,4101191,0,0,0,0,3091100,0,0,4070191,0,0,-3061011,0,0,0,0,0,1101100,0
10,343,1167.84971884772,0,0,32197.9591974073,32199.0062315526,0,10,15,1,0,5,7,3180011,6202292,2040070,10320172,0,0,0,0,-3180011,0,0,0,0,4051131,0,2151161,0,0,0,0,0,0,0,0,0,0,2040070,0,0,0,0,0,1100041,4010030,0,0,0,0,2040061,3170040
10,344,418.751489898568,0,0,32201.2062110726,32202.253284099,0,10,15,0,0,22,7,7232331,0,8421463,9303462,4081171,0,0,0,0,3151160,0,0,0,0,0,0,0,0,0,0,0,0,0,0,0,-4170111,0,2050161,0,0,2201191,0,2011201,0,4161190,0,0,0,0,3131071
10,345,744.562044448685,1,0,32203.7944013943,32204.8414443936,0,10,15,1,1,7,7,6331171,10251353,4111232,3201141,0,0,0,0,0,0,-4131020,2200151,0,0,0,0,2130161,0,0,4041101,4080091,0,0,0,0,2081101,2030131,0,0,0,0,0,0,0,0,0,3201141,0,0,0
10,346,546.100040482997,1,0,32206.723769527,32207.770806752,0,10,15,1,1,25,3,3170150,2011021,1050131,3180101,0,0,0,3170150,0,0,0,0,0,0,0,0,0,0,0,2011021,0,0,0,0,0,0,0,0,-1050131,0,0,0,0,0,3180101,0,0,0,0,0
10,347,601.400067505892,0,0,32209.3354982866,32210.3825332018,0,10,15,1,0,17,3,4050031,6311121,1131191,0,0,0,0,0,0,0,0,0,4050031,0,0,2150051,0,0,0,0,-4161070,0,0,0,0,0,0,0,0,0,1131191,0,0,0,0,0,0,0,0,0
10,348,722.822914012795,1,0,32212.1589829071,32213.2060212869,0,10,15,0,1,20,7,7390371,7260391,3281360,1090190,0,4190201,3200170,0,0,0,0,0,0,0,1040150,0,3090161,3130080,0,0,0,0,0,-2110160,1171200,0,0,0,0,0,0,1090190,0,0,0,0,0,0,0,0
10,349,431.277349649463,0,0,32214.9707088949,32216.0177415003,0,10,15,0,0,13,3,0,3252251,0,6121171,0,0,0,0,0,0,0,0,0,0,0,0,-1071081,0,0,2181170,0,0,0,0,0,0,0,0,0,0,0,0,0,4080161,0,0,0,0,0,2041010
10,350,1268.43539845504,0,0,32217.6294918177,32218.6765278878,0,10,15,0,0,36,7,2190031,0,4292342,10203462,0,0,0,2190031,0,0,0,0,0,0,0,0,0,0,0,0,0,0,0,0,0,2201170,0,1050151,0,1041021,0,1071070,0,0,3041091,4011191,0,0,0,-2080110
10,351,588.233247752214,1,0,32221.1235522551,32222.17059025,0,10,15,1,1,32,3,0,2131120,3160151,6140342,0,0,0,0,0,0,0,0,0,0,0,2131120,0,0,0,0,0,0,0,0,0,0,0,0,0,3160151,0,0,0,4050171,0,-2090171,0,0,0,0
10,352,854.967693212529,1,0,32223.9588082118,32225.005842357,0,10,15,1,1,1,7,8260131,3070060,14500582,4081140,-4180021,0,0,0,0,0,4080110,0,0,0,0,0,0,0,3070060,0,0,0,0,0,2160191,4080101,4060090,0,0,4200200,0,4081140,0,0,0,0,0,0,0,0
10,353,640.157167148573,1,0,32227.0646466837,32228.111680829,0,10,15,0,1,33,3,0,0,6150251,5371251,0,0,0,0,0,0,0,0,0,0,0,0,0,0,0,0,0,0,0,0,0,0,0,3090120,0,3060131,0,0,2170141,0,0,0,-3201110,0,0,0
10,354,391.756487460952,1,0,32229.841075986,32230.8881043569,0,10,15,1,1,15,7,9230391,10182332,3240261,0,0,0,2080120,4040110,0,0,0,3110161,0,3030110,0,0,0,0,-4021151,3131071,0,0,0,0,0,0,0,0,1150201,2090060,0,0,0,0,0,0,0,0,0,0
10,355,514.262229153246,1,0,32232.3704431179,32233.4174849624,0,10,15,0,1,8,7,7232432,6021191,1170070,8170111,0,0,1161101,0,0,4030140,0,-2041191,0,4010130,0,0,0,0,0,0,0,2011061,0,0,0,1170070,0,0,0,0,0,0,4130010,0,0,0,4040101,0,0,0
10,356,480.108492683939,1,0,32235.0645169519,32236.1115741948,0,10,15,0,1,16,7,15313223,5220230,5301181,0,0,0,0,0,0,4020041,4031030,4111141,3151011,0,0,3150060,0,0,0,-2070170,0,0,0,2130110,0,0,3171071,0,0,0,0,0,0,0,0,0,0,0,0,0
10,357,966.26144691254,1,0,32237.7703652018,32238.8173978072,0,10,15,1,1,18,3,1200161,2070041,4010080,4040101,0,0,0,0,1200161,0,0,0,0,0,0,0,0,0,0,0,0,-2070041,0,0,0,0,0,0,4010080,0,0,0,0,0,4040101,0,0,0,0,0
10,358,1243.99576687574,1,0,32240.85267255,32241.8997024607,0,10,15,0,1,9,7,9311243,3201070,3010121,3240221,0,0,0,0,0,0,1040151,4080031,-4191061,0,0,0,0,1041060,2160010,0,0,0,0,0,0,0,0,0,3010121,0,0,1060080,0,0,0,0,0,2180141,0,0
10,359,1031.35911535719,0,0,32244.1702653429,32245.217301028,0,10,15,1,0,6,3,4201080,5182261,0,4080170,0,0,0,0,0,-4201080,0,0,0,3171061,0,0,0,2011200,0,0,0,0,0,0,0,0,0,0,0,0,0,0,0,4080170,0,0,0,0,0,0
10,360,614.439850141935,1,0,32247.4290403355,32248.4760752507,0,10,15,0,1,28,3,4021010,4050030,3060081,4060191,0,0,4021010,0,0,0,0,0,0,0,0,0,0,0,4050030,0,0,0,0,0,3060081,0,0,0,0,0,0,-4060191,0,0,0,0,0,0,0,0
10,361,890.967317489412,1,0,32259.8994376075,32260.9464771423,0,10,16,1,1,18,3,1200161,2070041,4010080,4040101,0,0,0,0,1200161,0,0,0,0,0,0,0,0,0,0,0,0,-2070041,0,0,0,0,0,0,4010080,0,0,0,0,0,4040101,0,0,0,0,0
10,362,439.870833186433,0,0,32262.8876350894,32263.9346738542,0,10,16,0,0,28,3,3141100,0,0,7272411,3141100,0,0,0,0,0,0,0,0,0,0,0,0,0,0,0,0,0,0,0,0,0,0,0,0,0,0,-3010130,2131151,0,0,2131130,0,0,0,0
10,363,582.370677275321,1,0,32265.4640679334,32266.5111016937,0,10,16,0,1,33,3,5232152,0,0,4131201,0,0,0,0,1101041,0,0,4131111,0,0,0,0,0,0,0,0,0,0,0,0,0,0,0,0,0,0,0,0,0,0,0,0,-3080080,0,0,1051121
10,364,782.173885232623,1,0,32268.1110825996,32269.1581171299,0,10,16,1,1,1,7,8260131,3070060,14500582,4081140,-4180021,0,0,0,0,0,4080110,0,0,0,0,0,0,0,3070060,0,0,0,0,0,2160191,4080101,4060090,0,0,4200200,0,4081140,0,0,0,0,0,0,0,0
10,365,966.882773907855,1,0,32271.1346198827,32272.1816039831,0,10,16,1,1,5,7,3180011,6202292,2040070,10320172,0,0,0,0,-3180011,0,0,0,0,4051131,0,2151161,0,0,0,0,0,0,0,0,0,0,2040070,0,0,0,0,0,1100041,4010030,0,0,0,0,2040061,3170040
10,366,665.8679398206,0,0,32274.2404048451,32275.287442455,0,10,16,1,0,29,7,3201171,8363502,7161291,4162111,0,0,0,0,0,0,0,0,3201171,3201160,0,0,1061151,0,0,0,0,4101191,0,0,0,0,3091100,0,0,4070191,0,0,-3061011,0,0,0,0,0,1101100,0
10,367,624.446525365784,0,0,32276.9697769044,32278.0168148993,0,10,16,1,0,21,7,6420461,4010140,8350312,2051170,0,3140170,0,0,1200141,2080150,0,0,0,0,4010140,0,0,0,0,0,0,0,4060180,0,-2150031,0,0,0,0,2140101,0,0,0,0,0,2051170,0,0,0,0
10,368,423.348308733694,1,0,32279.6638515083,32280.710891428,0,10,16,1,1,15,7,9230391,10182332,3240261,0,0,0,2080120,4040110,0,0,0,3110161,0,3030110,0,0,0,0,-4021151,3131071,0,0,0,0,0,0,0,0,1150201,2090060,0,0,0,0,0,0,0,0,0,0
10,369,877.683854563657,0,0,32282.1814653971,32283.2284964627,0,10,16,0,0,31,3,8221180,0,0,5150181,0,0,0,0,0,0,0,4080040,4141140,0,0,0,0,0,0,0,0,0,0,0,0,0,0,0,0,0,0,0,0,0,-2120120,3030061,0,0,0,0
10,370,506.404790976376,0,0,32285.216709728,32286.2637519574,0,10,16,0,0,8,7,5282402,7220111,7130082,3151141,0,0,2070120,0,2091131,0,0,-1121151,0,0,0,3100021,0,0,0,0,0,4120090,0,3120021,0,0,0,0,4010061,0,0,0,3151141,0,0,0,0,0,0,0
10,371,585.804914011533,1,0,32287.981377318,32289.0284391805,0,10,16,1,1,32,3,0,2131120,3160151,6140342,0,0,0,0,0,0,0,0,0,0,0,2131120,0,0,0,0,0,0,0,0,0,0,0,0,0,3160151,0,0,0,4050171,0,-2090171,0,0,0,0
10,372,578.779761432088,0,0,32290.6284100774,32291.6754268995,0,10,16,0,0,23,3,0,2110020,5390221,2170041,0,0,0,0,0,0,0,0,0,0,0,2110020,0,0,0,0,0,0,0,0,0,1190030,-4200191,0,0,0,0,0,0,0,0,0,2170041,0,0,0
10,373,1131.7207476859,0,0,32293.3225204827,32294.3695122823,0,10,16,1,0,6,3,4201080,5182261,0,4080170,0,0,0,0,0,-4201080,0,0,0,3171061,0,0,0,2011200,0,0,0,0,0,0,0,0,0,0,0,0,0,0,0,4080170,0,0,0,0,0,0
10,374,643.652612674487,1,0,32296.5694864129,32297.6165201732,0,10,16,1,1,17,3,4050031,6311121,1131191,0,0,0,0,0,0,0,0,0,4050031,0,0,2150051,0,0,0,0,-4161070,0,0,0,0,0,0,0,0,0,1131191,0,0,0,0,0,0,0,0,0
10,375,649.192200904508,0,0,32299.4047350553,32300.4517757449,0,10,16,0,0,13,7,8271431,8101490,3311291,0,0,4091161,0,0,0,2170190,0,0,2010080,0,0,0,-1020160,0,4060130,0,3021200,0,0,0,0,0,0,0,2180171,0,1131120,0,0,0,0,0,0,0,0,0
10,376,697.534058555902,0,0,32302.2635102019,32303.3105543562,0,10,16,1,0,7,7,6331171,10251353,4111232,3201141,0,0,0,0,0,0,-4131020,2200151,0,0,0,0,2130161,0,0,4041101,4080091,0,0,0,0,2081101,2030131,0,0,0,0,0,0,0,0,0,3201141,0,0,0
10,377,585.897689601552,0,0,32305.0870044464,32306.1340405165,0,10,16,1,0,27,3,4200170,0,6380441,0,4200170,0,0,0,0,0,0,0,0,0,0,0,0,0,0,0,0,0,0,0,2010160,0,0,0,1170080,0,-3200201,0,0,0,0,0,0,0,0,0
10,378,865.379347367707,1,0,32307.9104917615,32308.9575274467,0,10,16,0,1,36,7,8330243,2080081,1121091,5300382,3130051,0,0,3090071,0,0,2110121,0,0,0,0,2080081,0,0,0,0,0,0,0,1121091,0,0,0,0,0,0,0,0,0,0,0,3100101,0,1030091,0,-1170190
10,379,879.218308960844,1,0,32310.9927983398,32312.0398374896,0,10,16,0,1,16,3,0,4201181,7070200,2010071,0,0,0,0,0,0,0,0,0,0,0,0,0,0,0,-4201181,0,0,0,0,0,0,0,0,4020180,0,3050020,0,0,0,0,0,0,0,2010071,0
10,380,745.251124568313,1,0,32314.0515764891,32315.0986133291,0,10,16,0,1,9,7,7462332,1061140,7423321,1081131,0,0,2171131,0,3110100,0,0,0,-2181101,0,0,0,0,0,0,0,1061140,0,0,0,0,1171190,0,2141120,0,4111011,0,0,0,0,0,0,0,0,0,1081131
10,381,597.529285041674,0,0,32316.9574519943,32318.0044538029,0,10,16,0,0,20,7,7372352,6273140,2031091,3190020,0,0,0,0,2111121,0,0,2141111,3120120,0,0,0,0,0,1041060,3151020,2081060,0,0,-2031091,0,0,0,0,0,0,0,0,0,0,0,3190020,0,0,0,0
10,382,985.371293983917,1,0,32319.6985541991,32320.7455848798,0,10,16,0,1,2,7,3070041,1121160,5541500,5482221,0,-3070041,0,0,0,0,0,0,0,0,0,1121160,0,0,0,0,0,0,1161140,0,0,0,0,2200180,0,0,2180180,0,0,1151121,0,0,3160050,0,1171050,0
10,383,524.892926096072,1,0,32322.8279130159,32323.8749517807,0,10,16,0,1,22,3,3130150,1100040,1060121,3061051,0,0,0,0,0,3130150,0,0,0,1100040,0,0,0,0,0,0,0,0,0,0,0,-1060121,0,0,0,0,0,3061051,0,0,0,0,0,0,0,0
10,384,716.588086288539,0,0,32325.4161225855,32326.4631913773,0,10,16,1,0,25,3,3170150,2011021,1050131,3180101,0,0,0,3170150,0,0,0,0,0,0,0,0,0,0,0,2011021,0,0,0,0,0,0,0,0,-1050131,0,0,0,0,0,3180101,0,0,0,0,0
10,385,462.405677928473,1,0,32343.5923153678,32344.6393529777,0,10,17,1,1,21,7,6420461,4010140,8350312,2051170,0,3140170,0,0,1200141,2080150,0,0,0,0,4010140,0,0,0,0,0,0,0,4060180,0,-2150031,0,0,0,0,2140101,0,0,0,0,0,2051170,0,0,0,0
10,386,682.34888848383,1,0,32346.1922774107,32347.2393134807,0,10,17,1,1,6,3,4201080,5182261,0,4080170,0,0,0,0,0,-4201080,0,0,0,3171061,0,0,0,2011200,0,0,0,0,0,0,0,0,0,0,0,0,0,0,0,4080170,0,0,0,0,0,0
10,387,604.944788035937,0,0,32348.9687036333,32350.0157423981,0,10,17,0,0,28,3,0,4261290,2181121,2190171,0,0,0,0,0,0,0,0,0,0,2171150,2090140,0,0,0,0,0,0,2181121,0,0,0,0,0,0,0,0,-2190171,0,0,0,0,0,0,0,0
10,388,736.680353733391,0,0,32351.756903117,32352.8039368773,0,10,17,1,0,25,3,3170150,2011021,1050131,3180101,0,0,0,3170150,0,0,0,0,0,0,0,0,0,0,0,2011021,0,0,0,0,0,0,0,0,-1050131,0,0,0,0,0,3180101,0,0,0,0,0
10,389,841.011318527308,1,0,32354.5803923569,32355.6274307368,0,10,17,0,1,36,3,3180090,0,6211121,2150101,0,3180090,0,0,0,0,0,0,0,0,0,0,0,0,0,0,0,0,0,0,2180011,0,0,4031110,0,0,0,0,0,0,0,0,0,0,0,-2150101
10,390,564.783735768287,0,0,32357.6627470553,32358.7097361602,0,10,17,1,0,15,7,9230391,10182332,3240261,0,0,0,2080120,4040110,0,0,0,3110161,0,3030110,0,0,0,0,-4021151,3131071,0,0,0,0,0,0,0,0,1150201,2090060,0,0,0,0,0,0,0,0,0,0
10,391,965.677846095787,0,0,32360.3097263052,32361.3567585256,0,10,17,0,0,13,7,9262462,5242283,4050011,3140011,0,0,1051101,0,4061191,4150170,0,0,0,2050041,0,0,-1051071,0,0,0,2141171,0,0,0,4050011,0,0,0,0,0,0,0,0,0,0,0,0,0,0,3140011
10,392,1442.23218372281,1,0,32363.4390801174,32364.4861188822,0,10,17,0,1,31,7,7401292,9270392,4020191,1200130,0,0,0,0,0,2091041,3110201,2200050,0,3090201,3050170,0,0,0,0,0,3130021,0,0,0,0,0,0,4020191,0,0,0,0,0,0,-1200130,0,0,0,0,0
10,393,649.102120041789,0,0,32366.9802058818,32368.0272419519,0,10,17,1,0,17,3,4050031,6311121,1131191,0,0,0,0,0,0,0,0,0,4050031,0,0,2150051,0,0,0,0,-4161070,0,0,0,0,0,0,0,0,0,1131191,0,0,0,0,0,0,0,0,0
10,394,920.949232026032,1,0,32369.721343888,32370.7683780333,0,10,17,0,1,33,3,0,2070021,2070040,5202221,0,0,0,0,0,0,0,0,0,0,0,2070021,0,0,0,0,0,0,2070040,0,0,0,0,0,0,0,0,0,0,0,0,3161130,-2041091,0,0,0
10,395,495.230914122658,1,0,32372.886002855,32373.93303931,0,10,17,1,1,27,3,4200170,0,6380441,0,4200170,0,0,0,0,0,0,0,0,0,0,0,0,0,0,0,0,0,0,0,2010160,0,0,0,1170080,0,-3200201,0,0,0,0,0,0,0,0,0
10,396,714.781849459541,1,0,32375.5565840613,32376.6035901044,0,10,17,0,1,9,7,2181010,6272392,2261270,6230242,0,0,0,0,0,0,0,0,-2181010,1130181,4051081,0,0,1091130,0,0,0,0,0,0,0,0,0,1171100,0,0,1090170,0,4070181,0,0,0,0,0,0,2160061
10,397,496.425063018251,0,0,32378.3447408143,32379.3917830438,0,10,17,0,0,22,3,2170051,0,5202160,4051041,0,0,0,0,0,0,0,2170051,0,0,0,0,0,0,0,0,0,0,0,1151130,0,-4051030,0,0,0,0,0,4051041,0,0,0,0,0,0,0,0
10,398,399.213566237449,1,0,32380.9800018525,32382.0270410023,0,10,17,0,1,16,7,10221342,4050031,1140010,6212211,0,4010120,0,0,0,0,2030021,1121030,3060171,0,0,0,0,0,0,-4050031,0,0,0,1140010,0,0,0,0,0,0,0,4111071,0,0,2101140,0,0,0,0,0
10,399,1087.04256350029,0,0,32383.5681948689,32384.6152336337,0,10,17,1,0,5,7,3180011,6202292,2040070,10320172,0,0,0,0,-3180011,0,0,0,0,4051131,0,2151161,0,0,0,0,0,0,0,0,0,0,2040070,0,0,0,0,0,1100041,4010030,0,0,0,0,2040061,3170040
10,400,623.708555202029,0,0,32386.7564461683,32387.8034583708,0,10,17,0,0,20,3,3111150,4181061,3262391,0,3111150,0,0,0,0,0,0,0,0,4181061,0,0,0,0,0,0,0,0,0,-2161200,0,0,0,0,0,1101191,0,0,0,0,0,0,0,0,0,0
10,401,588.431887608749,1,0,32389.5328158017,32390.5798503319,0,10,17,0,1,23,3,0,2141110,10352421,0,0,0,0,0,0,0,0,0,0,0,0,0,2141110,0,0,0,0,0,0,0,4131170,0,-2081060,4140191,0,0,0,0,0,0,0,0,0,0,0,0
10,402,1240.19466234677,0,0,32392.3798338556,32393.4268706956,0,10,17,0,0,2,7,4142201,4310312,1201020,7252381,0,-1131180,0,3011021,0,0,0,0,0,0,0,0,0,1110191,0,3200121,0,0,0,0,0,0,0,0,1201020,0,0,4011150,2120190,1121041,0,0,0,0,0,0
10,403,790.723483216425,0,0,32395.8503785676,32396.8974123279,0,10,17,1,0,18,3,1200161,2070041,4010080,4040101,0,0,0,0,1200161,0,0,0,0,0,0,0,0,0,0,0,0,-2070041,0,0,0,0,0,0,4010080,0,0,0,0,0,4040101,0,0,0,0,0
10,404,732.944307601429,0,0,32398.8620871553,32399.9091209156,0,10,17,0,0,8,7,8471222,0,9311331,6281321,2160051,0,4170040,0,0,0,0,-2141131,0,0,0,0,0,0,0,0,0,0,0,4120200,0,0,0,2081030,0,3110101,0,0,0,0,0,0,0,2190131,4091190,0
10,405,702.529696951387,1,0,32401.8385175354,32402.8855597649,0,10,17,1,1,32,3,0,2131120,3160151,6140342,0,0,0,0,0,0,0,0,0,0,0,2131120,0,0,0,0,0,0,0,0,0,0,0,0,0,3160151,0,0,0,4050171,0,-2090171,0,0,0,0
10,406,793.38895291221,1,0,32404.6267150943,32405.6737488546,0,10,17,1,1,1,7,8260131,3070060,14500582,4081140,-4180021,0,0,0,0,0,4080110,0,0,0,0,0,0,0,3070060,0,0,0,0,0,2160191,4080101,4060090,0,0,4200200,0,4081140,0,0,0,0,0,0,0,0
10,407,954.452384470642,0,0,32407.6384244519,32408.6854639866,0,10,17,1,0,29,7,3201171,8363502,7161291,4162111,0,0,0,0,0,0,0,0,3201171,3201160,0,0,1061151,0,0,0,0,4101191,0,0,0,0,3091100,0,0,4070191,0,0,-3061011,0,0,0,0,0,1101100,0
10,408,729.27832437199,0,0,32410.6736780218,32411.7207144769,0,10,17,1,0,7,7,6331171,10251353,4111232,3201141,0,0,0,0,0,0,-4131020,2200151,0,0,0,0,2130161,0,0,4041101,4080091,0,0,0,0,2081101,2030131,0,0,0,0,0,0,0,0,0,3201141,0,0,0
10,409,983.156613572646,0,0,32424.5675874005,32425.6146277051,0,10,18,1,0,5,7,3180011,6202292,2040070,10320172,0,0,0,0,-3180011,0,0,0,0,4051131,0,2151161,0,0,0,0,0,0,0,0,0,0,2040070,0,0,0,0,0,1100041,4010030,0,0,0,0,2040061,3170040
10,410,485.837866668589,0,0,32427.6969616156,32428.7439965308,0,10,18,0,0,23,7,0,8313411,9442243,4081040,0,0,0,0,0,0,0,0,0,0,2071100,4101110,0,2141201,0,0,0,0,1110011,2081080,3051071,0,-3200081,0,0,0,0,0,0,4081040,0,0,0,0,0,0
10,411,836.484177627426,1,0,32430.3792748922,32431.426313657,0,10,18,1,1,6,3,4201080,5182261,0,4080170,0,0,0,0,0,-4201080,0,0,0,3171061,0,0,0,2011200,0,0,0,0,0,0,0,0,0,0,0,0,0,0,0,4080170,0,0,0,0,0,0
10,412,724.533295568108,0,0,32433.3321756886,32434.3792094489,0,10,18,1,0,1,7,8260131,3070060,14500582,4081140,-4180021,0,0,0,0,0,4080110,0,0,0,0,0,0,0,3070060,0,0,0,0,0,2160191,4080101,4060090,0,0,4200200,0,4081140,0,0,0,0,0,0,0,0
10,413,500.688120704581,0,0,32436.2380211668,32437.2850576218,0,10,18,1,0,21,7,6420461,4010140,8350312,2051170,0,3140170,0,0,1200141,2080150,0,0,0,0,4010140,0,0,0,0,0,0,0,4060180,0,-2150031,0,0,0,0,2140101,0,0,0,0,0,2051170,0,0,0,0
10,414,609.386852564057,0,0,32438.8262168779,32439.8732479434,0,10,18,1,0,27,3,4200170,0,6380441,0,4200170,0,0,0,0,0,0,0,0,0,0,0,0,0,0,0,0,0,0,0,2010160,0,0,0,1170080,0,-3200201,0,0,0,0,0,0,0,0,0
10,415,839.048017627647,1,0,32441.6026415606,32442.6496753209,0,10,18,0,1,33,3,3141121,1061010,0,2121121,0,0,0,0,0,0,3141121,0,0,0,0,0,1061010,0,0,0,0,0,0,0,0,0,0,0,0,0,0,0,0,0,1101070,0,-1020051,0,0,0
10,416,406.984773162549,1,0,32444.4967203221,32445.5437533125,0,10,18,1,1,15,7,9230391,10182332,3240261,0,0,0,2080120,4040110,0,0,0,3110161,0,3030110,0,0,0,0,-4021151,3131071,0,0,0,0,0,0,0,0,1150201,2090060,0,0,0,0,0,0,0,0,0,0
10,417,650.640809002653,0,0,32447.0378687992,32448.0848967851,0,10,18,1,0,25,3,3170150,2011021,1050131,3180101,0,0,0,3170150,0,0,0,0,0,0,0,0,0,0,0,2011021,0,0,0,0,0,0,0,0,-1050131,0,0,0,0,0,3180101,0,0,0,0,0
10,418,667.328096744313,1,0,32449.8613495701,32450.9083841003,0,10,18,0,1,2,7,7071241,2100201,7351322,4190381,0,-3060120,0,0,4011121,0,0,0,0,2100201,0,0,0,0,0,0,0,0,0,0,3050181,0,1170071,0,0,3131070,0,1160191,0,0,0,0,0,0,0,3030190
10,419,651.781448330439,0,0,32452.5907185497,32453.6377523101,0,10,18,1,0,7,7,6331171,10251353,4111232,3201141,0,0,0,0,0,0,-4131020,2200151,0,0,0,0,2130161,0,0,4041101,4080091,0,0,0,0,2081101,2030131,0,0,0,0,0,0,0,0,0,3201141,0,0,0
10,420,613.045906498883,1,0,32455.3553849849,32456.4024237497,0,10,18,1,1,17,3,4050031,6311121,1131191,0,0,0,0,0,0,0,0,0,4050031,0,0,2150051,0,0,0,0,-4161070,0,0,0,0,0,0,0,0,0,1131191,0,0,0,0,0,0,0,0,0
10,421,569.935668310791,0,0,32458.1906347822,32459.2376750869,0,10,18,0,0,16,3,0,5032171,4090030,4181180,0,0,0,0,0,0,0,0,0,0,2021161,0,0,0,0,-3011010,0,0,4090030,0,0,0,0,0,0,0,0,0,0,0,0,4181180,0,0,0,0
10,422,1658.42471963333,0,0,32460.9200022221,32461.9670483011,0,10,18,0,0,36,7,6260070,6201272,8301181,4152262,0,0,0,2200030,0,4060040,0,0,0,0,0,0,0,0,0,4060171,0,2141101,4171011,0,0,0,0,0,4130170,0,0,0,0,0,0,0,0,1091081,0,-3061181
10,423,980.704797213548,0,0,32464.7317166611,32465.7787573507,0,10,18,1,0,32,3,0,2131120,3160151,6140342,0,0,0,0,0,0,0,0,0,0,0,2131120,0,0,0,0,0,0,0,0,0,0,0,0,0,3160151,0,0,0,4050171,0,-2090171,0,0,0,0
10,424,627.967378317408,1,0,32467.896376398,32468.9434101583,0,10,18,1,1,18,3,1200161,2070041,4010080,4040101,0,0,0,0,1200161,0,0,0,0,0,0,0,0,0,0,0,0,-2070041,0,0,0,0,0,0,4010080,0,0,0,0,0,4040101,0,0,0,0,0
10,425,656.592305462254,0,0,32470.6728114747,32471.7198413854,0,10,18,0,0,8,7,6202151,5180202,6283212,2021080,0,0,0,0,0,2181091,0,-4021060,0,3120071,0,0,0,2060131,0,0,0,0,0,0,3031111,2081041,0,1171060,0,0,0,2021080,0,0,0,0,0,0,0,0
10,426,538.410060322349,1,0,32473.5198272188,32474.5668605942,0,10,18,0,1,22,7,2111051,3182030,5241160,7421322,0,0,0,0,0,2111051,0,0,0,1031010,0,0,0,2151020,0,0,0,0,0,0,0,-3161020,2080140,0,0,0,0,0,0,0,0,0,0,3161150,2120101,2140071
10,427,1063.22387395267,1,0,32476.2609594506,32477.3080012951,0,10,18,0,1,31,3,0,2090190,0,8160310,0,0,0,0,0,0,0,0,0,0,0,0,0,0,2090190,0,0,0,0,0,0,0,0,0,0,0,0,0,0,0,-3030020,2070170,0,3060120,0,0
10,428,903.793446796044,0,0,32479.4373839794,32480.4844223592,0,10,18,1,0,29,7,3201171,8363502,7161291,4162111,0,0,0,0,0,0,0,0,3201171,3201160,0,0,1061151,0,0,0,0,4101191,0,0,0,0,3091100,0,0,4070191,0,0,-3061011,0,0,0,0,0,1101100,0
10,429,513.487687701854,1,0,32482.5667585795,32483.6137881053,0,10,18,0,1,20,3,0,3121030,6050100,2190150,0,0,0,0,0,0,0,0,0,0,0,0,0,0,3121030,0,0,0,0,-4020050,0,0,0,0,0,0,2030050,0,0,0,2190150,0,0,0,0,0
10,430,429.296725505992,1,0,32485.3078892715,32486.3549295761,0,10,18,0,1,28,3,3030030,1020130,0,5160271,0,0,0,3030030,0,0,0,0,0,0,0,0,0,0,0,0,0,1020130,0,0,0,0,0,0,0,0,0,-3150120,0,0,0,2010151,0,0,0,0
10,431,495.784103019105,1,0,32487.9784750974,32489.0254792157,0,10,18,0,1,9,7,8260202,9181221,7211061,2021201,0,0,4130171,0,0,0,0,0,-4130031,1091080,4070120,0,4020021,0,0,0,0,0,4030020,0,0,0,0,0,0,3181041,0,2021201,0,0,0,0,0,0,0,0
10,432,591.709830190666,0,0,32490.625465896,32491.6724981165,0,10,18,0,0,13,3,0,5220260,0,3231252,0,0,0,0,0,0,0,0,0,0,2100100,0,-3120160,0,0,0,0,0,0,0,0,0,0,0,0,0,0,2151171,0,1080081,0,0,0,0,0,0
10,433,716.446420654393,0,0,32500.8135428081,32501.8605838827,0,10,19,0,0,31,3,3070051,0,3090200,8240161,0,0,0,0,3070051,0,0,0,0,0,0,0,0,0,0,0,0,0,0,0,0,0,0,0,0,0,3090200,0,0,0,-4120060,4120101,0,0,0,0
10,434,401.031351895654,0,0,32503.7429186401,32504.7899547102,0,10,19,1,0,15,7,9230391,10182332,3240261,0,0,0,2080120,4040110,0,0,0,3110161,0,3030110,0,0,0,0,-4021151,3131071,0,0,0,0,0,0,0,0,1150201,2090060,0,0,0,0,0,0,0,0,0,0
10,435,428.767789144331,1,0,32506.3311147362,32507.3781508062,0,10,19,1,1,21,7,6420461,4010140,8350312,2051170,0,3140170,0,0,1200141,2080150,0,0,0,0,4010140,0,0,0,0,0,0,0,4060180,0,-2150031,0,0,0,0,2140101,0,0,0,0,0,2051170,0,0,0,0
10,436,446.831697285234,0,0,32508.9781359467,32510.0252313008,0,10,19,0,0,22,7,0,5271232,5200090,8471452,0,0,0,0,0,0,0,0,0,2201031,0,0,0,0,0,0,0,3070201,0,0,4070020,-1130070,0,0,0,0,0,3180070,0,2010201,0,0,0,2140040,1141141,0
10,437,430.279915799474,0,0,32511.601622184,32512.648659409,0,10,19,0,0,16,3,0,7341152,0,6310352,0,0,0,0,0,0,0,0,0,4191081,0,0,0,0,0,-3150071,0,0,0,0,0,0,0,0,0,0,0,0,0,0,3170191,3140161,0,0,0,0
10,438,708.031174042844,0,0,32514.2368797575,32515.283921602,0,10,19,0,0,2,7,6400381,6081230,4131201,2071121,0,-3170080,0,2140131,0,0,0,0,1090170,0,0,4011030,0,0,0,0,2070200,0,0,3040081,0,1091120,0,0,0,0,0,0,2071121,0,0,0,0,0,0,0
10,439,468.730586519087,1,0,32517.166260594,32518.2132855002,0,10,19,0,1,8,3,3230171,4050040,4200171,0,0,0,0,0,0,1190020,0,-2040151,0,0,0,4050040,0,0,0,0,0,0,0,4200171,0,0,0,0,0,0,0,0,0,0,0,0,0,0,0,0
10,440,413.583773955907,0,0,32519.7191534602,32520.7662503541,0,10,19,0,0,20,3,0,7301212,4071141,3111130,0,0,0,0,0,0,0,0,0,0,4151091,0,0,0,0,0,0,3150121,0,-4071141,0,0,0,0,0,0,0,0,0,0,0,3111130,0,0,0,0
10,441,838.531784975203,0,0,32522.2132531635,32523.2602738351,0,10,19,0,0,28,7,4281483,2081071,1030090,9311333,0,2100181,0,0,0,0,1101111,1080191,0,0,0,0,0,0,2081071,0,0,0,0,0,0,0,1030090,0,0,0,0,-4200181,2040041,0,3071111,0,0,0,0,0
10,442,989.503464938025,1,0,32525.2131938795,32526.2602345691,0,10,19,1,1,18,3,1200161,2070041,4010080,4040101,0,0,0,0,1200161,0,0,0,0,0,0,0,0,0,0,0,0,-2070041,0,0,0,0,0,0,4010080,0,0,0,0,0,4040101,0,0,0,0,0
10,443,625.159858023835,1,0,32528.4366795008,32529.4837105664,0,10,19,1,1,17,3,4050031,6311121,1131191,0,0,0,0,0,0,0,0,0,4050031,0,0,2150051,0,0,0,0,-4161070,0,0,0,0,0,0,0,0,0,1131191,0,0,0,0,0,0,0,0,0
10,444,1569.47679484438,1,0,32531.1542987021,32532.2013205286,0,10,19,1,1,5,7,3180011,6202292,2040070,10320172,0,0,0,0,-3180011,0,0,0,0,4051131,0,2151161,0,0,0,0,0,0,0,0,0,0,2040070,0,0,0,0,0,1100041,4010030,0,0,0,0,2040061,3170040
10,445,576.455367146991,0,0,32534.8012906556,32535.8483278806,0,10,19,0,0,9,3,3151101,0,4030061,5330241,0,0,0,0,0,0,0,0,-3151101,0,0,0,0,0,0,0,0,0,4030061,0,0,0,0,0,0,0,0,0,0,0,3160051,0,0,0,2170190,0
10,446,610.603714165336,0,0,32537.5071285116,32538.5541699711,0,10,19,0,0,23,7,7331273,5260262,1010061,8170330,0,1190151,0,0,0,4050051,2091071,0,0,0,0,0,0,0,0,0,4090181,1170081,0,0,0,0,-1010061,0,0,0,0,4120190,0,0,4050140,0,0,0,0,0
10,447,938.27247527588,0,0,32540.1894529521,32541.2364851726,0,10,19,0,0,13,7,2250221,10242453,3090170,4161101,0,1060021,0,0,0,0,0,0,1190200,0,0,0,-1010031,2031101,0,0,3101151,4100170,0,0,0,3090170,0,0,0,0,0,0,0,0,0,4161101,0,0,0,0
10,448,714.374175800913,1,0,32543.2011715487,32544.2482087737,0,10,19,1,1,29,7,3201171,8363502,7161291,4162111,0,0,0,0,0,0,0,0,3201171,3201160,0,0,1061151,0,0,0,0,4101191,0,0,0,0,3091100,0,0,4070191,0,0,-3061011,0,0,0,0,0,1101100,0
10,449,524.754340149229,1,0,32546.1187756595,32547.1658710135,0,10,19,1,1,27,3,4200170,0,6380441,0,4200170,0,0,0,0,0,0,0,0,0,0,0,0,0,0,0,0,0,0,0,2010160,0,0,0,1170080,0,-3200201,0,0,0,0,0,0,0,0,0
10,450,885.001577476942,0,0,32548.777561277,32549.8245961922,0,10,19,1,0,25,3,3170150,2011021,1050131,3180101,0,0,0,3170150,0,0,0,0,0,0,0,0,0,0,0,2011021,0,0,0,0,0,0,0,0,-1050131,0,0,0,0,0,3180101,0,0,0,0,0
10,451,967.55799543098,1,0,32551.8598755545,32552.9069562801,0,10,19,1,1,6,3,4201080,5182261,0,4080170,0,0,0,0,0,-4201080,0,0,0,3171061,0,0,0,2011200,0,0,0,0,0,0,0,0,0,0,0,0,0,0,0,4080170,0,0,0,0,0,0
10,452,889.261940432334,1,0,32554.942180593,32555.9892124285,0,10,19,0,1,36,3,5231282,0,0,3050060,0,0,1100191,0,0,3101041,0,0,1030050,0,0,0,0,0,0,0,0,0,0,0,0,0,0,0,0,0,0,0,0,0,0,0,0,0,0,-3050060
10,453,734.973821789026,1,0,32557.9774260787,32559.0244656135,0,10,19,1,1,32,3,0,2131120,3160151,6140342,0,0,0,0,0,0,0,0,0,0,0,2131120,0,0,0,0,0,0,0,0,0,0,0,0,0,3160151,0,0,0,4050171,0,-2090171,0,0,0,0
10,454,685.162568152009,1,0,32560.8362085396,32561.8832507691,0,10,19,1,1,1,7,8260131,3070060,14500582,4081140,-4180021,0,0,0,0,0,4080110,0,0,0,0,0,0,0,3070060,0,0,0,0,0,2160191,4080101,4060090,0,0,4200200,0,4081140,0,0,0,0,0,0,0,0
10,455,647.24237363771,0,0,32563.6361666559,32564.6832077304,0,10,19,1,0,7,7,6331171,10251353,4111232,3201141,0,0,0,0,0,0,-4131020,2200151,0,0,0,0,2130161,0,0,4041101,4080091,0,0,0,0,2081101,2030131,0,0,0,0,0,0,0,0,0,3201141,0,0,0
10,456,864.874663548107,1,0,32566.4597001663,32567.5066942756,0,10,19,0,1,33,7,3361062,3321392,4040031,7252200,0,0,0,0,0,1160011,0,2201051,0,1011100,0,1160161,0,0,0,0,0,1150131,0,0,0,0,0,0,0,0,4040031,0,3171160,0,0,0,-4081040,0,0,0
10,457,708.487352785596,1,0,32583.9888186134,32585.0358550685,0,10,20,1,1,7,7,6331171,10251353,4111232,3201141,0,0,0,0,0,0,-4131020,2200151,0,0,0,0,2130161,0,0,4041101,4080091,0,0,0,0,2081101,2030131,0,0,0,0,0,0,0,0,0,3201141,0,0,0
10,458,1317.92366984882,0,0,32586.9181867462,32587.9652274358,0,10,20,1,0,5,7,3180011,6202292,2040070,10320172,0,0,0,0,-3180011,0,0,0,0,4051131,0,2151161,0,0,0,0,0,0,0,0,0,0,2040070,0,0,0,0,0,1100041,4010030,0,0,0,0,2040061,3170040
10,459,435.789092112827,1,0,32590.3064398934,32591.3534474764,0,10,20,1,1,15,7,9230391,10182332,3240261,0,0,0,2080120,4040110,0,0,0,3110161,0,3030110,0,0,0,0,-4021151,3131071,0,0,0,0,0,0,0,0,1150201,2090060,0,0,0,0,0,0,0,0,0,0
10,460,688.756178722542,0,0,32592.9534229929,32594.0004344255,0,10,20,0,0,31,3,4241161,3030061,0,3070150,0,0,0,0,3160031,1081130,0,0,0,0,0,0,0,0,0,0,0,3030061,0,0,0,0,0,0,0,0,0,0,0,0,-3070150,0,0,0,0,0
10,461,718.509041482321,0,0,32595.7886496925,32596.8356899972,0,10,20,1,0,25,3,3170150,2011021,1050131,3180101,0,0,0,3170150,0,0,0,0,0,0,0,0,0,0,0,2011021,0,0,0,0,0,0,0,0,-1050131,0,0,0,0,0,3180101,0,0,0,0,0
10,462,649.712283164263,0,0,32598.647495672,32599.6944886264,0,10,20,0,0,20,7,8542593,3170140,3080090,6191250,3131100,0,1110111,0,1201201,3100181,0,0,0,0,3170140,0,0,0,0,0,0,0,0,-3080090,0,0,0,0,0,0,0,2070080,0,0,4121170,0,0,0,0,0
