sub_id,Trial,RT,Resp,Error,Fix_onset,Disp_onset,q1,q2,block,repeat,tid,tloc,d_setsize,quad1,quad2,quad3,quad4,loc1,loc2,loc3,loc4,loc5,loc6,loc7,loc8,loc9,loc10,loc11,loc12,loc13,loc14,loc15,loc16,loc17,loc18,loc19,loc20,loc21,loc22,loc23,loc24,loc25,loc26,loc27,loc28,loc29,loc30,loc31,loc32,loc33,loc34,loc35,loc36
14,1,636.442688759416,0,0,674791.538032684,674792.585117056,0,50,1,0,0,8,3,2141040,2242171,0,4111071,0,0,0,0,0,0,0,-2141040,0,0,1171040,1071131,0,0,0,0,0,0,0,0,0,0,0,0,0,0,0,0,0,4111071,0,0,0,0,0,0
14,2,2524.3951351149,1,0,674794.338118608,674795.385152165,0,50,1,0,1,9,7,3302212,8211221,4060061,6202150,1121101,0,0,0,0,0,1071061,0,-1110050,0,0,0,0,4120200,0,0,4091021,0,0,0,0,0,0,0,4060061,0,0,0,0,3181140,0,3021010,0,0,0,0
14,3,1420.12189794332,1,0,674799.07933338,674800.126403123,0,50,1,1,1,10,3,0,4321381,0,5260230,0,0,0,0,0,0,0,0,0,-1131181,0,3190200,0,0,0,0,0,0,0,0,0,0,0,0,0,0,0,0,0,0,0,3080170,0,0,2180060,0
14,4,655.683496617712,1,0,674802.561745216,674803.608861924,0,50,1,0,1,22,7,2041090,3140161,9322232,6321282,0,0,2041090,0,0,0,0,0,0,0,0,0,0,3140161,0,0,0,0,0,0,0,-3010060,0,4191061,2121111,0,0,2100041,0,0,2060110,0,0,0,0,2161131
14,5,752.814140520059,0,0,674805.408867006,674806.45592058,0,50,1,0,0,25,7,7192250,4312310,10302601,0,0,0,0,3161110,0,0,0,4031140,0,0,3111190,0,1201120,0,0,0,0,0,2190140,0,0,4051191,0,0,-1030100,0,3031170,0,0,0,0,0,0,0,0,0
14,6,641.513413982466,1,0,674808.303007724,674809.350100564,0,50,1,1,1,30,3,1141140,4181221,0,4150181,0,0,0,0,1141140,0,0,0,0,0,0,0,0,0,3100121,0,0,1081100,0,0,0,0,0,0,0,0,0,0,0,-4150181,0,0,0,0,0,0
14,7,916.132532176562,0,0,674811.032457658,674812.079523167,0,50,1,1,0,3,7,8172372,11272142,3111070,2120110,0,0,-2040031,3071170,0,0,0,0,3061171,4061021,0,0,0,0,0,3200041,0,4011080,0,0,0,0,0,0,0,3111070,0,0,2120110,0,0,0,0,0,0,0
14,8,1046.97472217958,1,0,674814.138373145,674815.185462521,0,50,1,1,1,7,7,5211240,6322470,3110071,5311180,1181190,0,0,0,0,0,-4030050,0,0,0,0,0,0,0,0,2141180,1080100,3101190,0,0,0,0,0,0,0,3110071,0,0,0,4191160,0,0,0,0,1120020,0
14,9,542.253157822415,1,0,674817.291371464,674818.338437742,0,50,1,1,1,2,3,5341160,4120070,3011110,0,0,-4171010,0,0,0,1170150,0,0,0,0,0,0,0,0,0,4120070,0,0,0,0,0,3011110,0,0,0,0,0,0,0,0,0,0,0,0,0,0
14,10,578.107019886374,0,0,674820.044356848,674821.091418121,0,50,1,0,0,33,3,1040011,0,2111201,6261152,0,0,0,0,0,0,0,1040011,0,0,0,0,0,0,0,0,0,0,0,0,0,0,0,0,0,0,2111201,0,3180071,0,0,0,-3081081,0,0,0
14,11,647.208933369257,1,0,674822.856191825,674823.903248479,0,50,1,0,1,16,3,0,4201171,7482401,0,0,0,0,0,0,0,0,0,0,0,0,0,0,0,0,-4201171,0,0,0,0,4200200,0,0,0,1171130,2111071,0,0,0,0,0,0,0,0,0,0
14,12,708.229330251925,0,0,674825.656202681,674826.703277043,0,50,1,0,0,24,3,2191231,0,6190051,0,0,0,0,0,0,0,1010111,0,1181120,0,0,0,0,0,0,0,0,0,0,0,2180021,0,0,-4010030,0,0,0,0,0,0,0,0,0,0,0,0
14,13,1086.43645222764,1,0,674828.526838747,674829.573907335,0,50,1,1,1,19,7,2181090,2190100,12402363,3212182,0,0,0,0,0,0,0,0,2181090,0,2190100,0,0,0,0,0,0,0,-4121010,4040111,0,0,3091201,0,1150041,0,0,0,0,0,2041161,1171021,0,0,0,0
14,14,768.735417281277,0,0,674831.785707126,674832.832781104,0,50,1,0,0,34,7,3140101,8460501,6081341,6291250,0,0,0,0,0,0,0,3140101,0,0,0,0,0,3200200,0,1190180,4070121,0,0,0,0,0,3060200,3021141,0,0,0,0,0,2140150,0,0,0,-4151100,0,0
14,15,760.733587900177,0,0,674834.691720086,674835.738702442,0,50,1,1,0,36,7,1090121,4261052,7421151,3161241,0,0,0,0,0,0,0,0,1090121,0,0,0,0,1191031,0,3070021,0,0,0,0,2070050,0,0,3181051,0,2170050,0,0,2061150,0,0,0,0,0,0,-1100091
14,16,521.253071608953,1,0,674837.515206721,674838.562273385,0,50,1,1,1,20,7,6211250,4342132,8310313,3110100,0,0,3080050,0,0,0,0,0,3131200,0,0,0,0,0,0,2161021,2181111,0,0,-2170201,4050041,0,0,2090071,0,0,0,0,0,0,0,0,0,3110100,0,0
14,17,438.769093714654,0,0,674840.244656656,674841.291727554,0,50,1,0,0,17,3,4020170,1060021,5202280,0,0,0,0,4020170,0,0,0,0,0,0,0,0,0,0,0,0,-1060021,0,0,4181080,0,0,1021200,0,0,0,0,0,0,0,0,0,0,0,0,0
14,18,875.842747860588,1,0,674842.809400025,674843.856512114,0,50,1,0,1,4,3,6432223,0,0,2121101,3111031,0,0,-2180081,0,0,1141111,0,0,0,0,0,0,0,0,0,0,0,0,0,0,0,0,0,0,0,0,0,0,0,0,2121101,0,0,0,0
14,19,915.200538001955,0,0,674845.844756515,674846.89212268,0,50,1,1,0,15,7,1161170,7391241,1180201,7272461,0,1161170,0,0,0,0,0,0,0,0,1190080,0,0,4090100,-2111061,0,0,0,0,0,0,0,0,0,0,1180201,0,3050150,0,1131190,3091121,0,0,0,0,0
14,20,794.2153114127,0,0,674848.880079129,674849.927155032,0,50,1,0,0,1,7,6242531,0,12402543,1120191,-1040191,0,0,0,3071190,2131150,0,0,0,0,0,0,0,0,0,0,0,0,0,0,2171041,4051181,4090160,0,0,2090161,0,0,0,1120191,0,0,0,0,0,0
14,21,541.259184828959,0,0,674851.833067901,674852.880134179,0,50,1,1,0,14,3,0,4010190,1061061,6092242,0,0,0,0,0,0,0,0,0,0,0,0,0,-4010190,0,0,0,0,0,1061061,0,0,0,0,0,0,0,0,0,2071051,0,0,0,0,4021191,0
14,22,722.623460926116,0,0,674854.515461567,674855.562564031,0,50,1,1,0,12,3,0,2270061,3040191,1201021,0,0,0,0,0,0,0,0,0,0,0,-1130041,0,0,1140020,0,0,0,0,0,0,0,3040191,0,0,0,0,0,0,0,0,0,1201021,0,0,0
14,23,934.400154976174,1,0,674857.350791957,674858.397867474,0,50,1,0,1,28,7,3171270,1051030,4191071,12411362,0,0,0,0,1141150,0,0,2030120,0,0,0,0,0,0,0,0,1051030,0,0,0,0,4191071,0,0,0,0,0,-4080191,3100060,0,0,1131040,0,0,4100071,0
14,24,695.88242971804,1,0,674860.527348437,674861.574388153,0,50,1,1,1,32,3,0,4070120,7211252,4200161,0,0,0,0,0,0,0,0,0,0,0,0,4070120,0,0,0,0,0,4020171,0,0,0,0,0,0,0,3191081,0,0,0,0,-4200161,0,0,0,0
14,25,678.708100342192,0,1,674876.292299993,674877.339316611,0,50,2,1,1,30,3,1141140,4181221,0,4150181,0,0,0,0,1141140,0,0,0,0,0,0,0,0,0,3100121,0,0,1081100,0,0,0,0,0,0,0,0,0,0,0,-4150181,0,0,0,0,0,0
14,26,886.416896246374,1,0,674879.115826665,674880.162895638,0,50,2,1,1,19,7,2181090,2190100,12402363,3212182,0,0,0,0,0,0,0,0,2181090,0,2190100,0,0,0,0,0,0,0,-4121010,4040111,0,0,3091201,0,1150041,0,0,0,0,0,2041161,1171021,0,0,0,0
14,27,631.145220482722,1,0,674882.20997462,674883.257063996,0,50,2,0,1,9,7,11291461,5211231,3211351,2170101,0,0,0,4160160,0,0,3051200,0,-4080101,0,0,0,0,2181080,0,0,3030151,0,0,0,0,0,1140181,0,2071170,0,0,0,2170101,0,0,0,0,0,0,0
14,28,548.80560352467,1,0,674885.045330033,674886.092392846,0,50,2,0,1,17,7,4191231,12323514,2070101,3031150,1120041,0,0,3071190,0,0,0,0,0,0,0,4151171,3041171,0,0,3080071,-2051101,0,0,0,0,0,2070101,0,0,0,0,0,0,3031150,0,0,0,0,0,0
14,29,547.339666634798,1,0,674887.833611468,674888.880677746,0,50,2,1,1,12,3,0,2270061,3040191,1201021,0,0,0,0,0,0,0,0,0,0,0,-1130041,0,0,1140020,0,0,0,0,0,0,0,3040191,0,0,0,0,0,0,0,0,0,1201021,0,0,0
14,30,478.496832889505,0,0,674890.633643882,674891.680715549,0,50,2,1,0,10,3,0,4321381,0,5260230,0,0,0,0,0,0,0,0,0,-1131181,0,3190200,0,0,0,0,0,0,0,0,0,0,0,0,0,0,0,0,0,0,0,3080170,0,0,2180060,0
14,31,636.751813464798,1,0,674893.163087349,674894.210207522,0,50,2,0,1,1,3,3161120,2071031,5271181,0,-3161120,0,0,0,0,0,0,0,0,0,0,0,2071031,0,0,0,0,0,0,0,0,0,0,2170100,3101081,0,0,0,0,0,0,0,0,0,0,0
14,32,625.050880014896,0,0,674895.927841805,674896.974909623,0,50,2,0,0,24,3,0,0,2061050,3480372,0,0,0,0,0,0,0,0,0,0,0,0,0,0,0,0,0,0,0,0,0,0,0,-2061050,0,0,0,1130201,0,0,0,0,0,1150120,0,1200051
14,33,747.006982099265,0,0,674898.727883843,674899.774949351,0,50,2,0,0,28,7,0,4051181,5281340,12310451,0,0,0,0,0,0,0,0,0,0,0,0,0,1011030,0,0,3040151,0,0,0,3130180,0,0,2151160,0,0,0,-2030110,0,0,0,3050041,0,3180190,4050110,0
14,34,552.73645510897,0,0,674901.610275122,674902.657344864,0,50,2,1,0,2,3,5341160,4120070,3011110,0,0,-4171010,0,0,0,1170150,0,0,0,0,0,0,0,0,0,4120070,0,0,0,0,0,3011110,0,0,0,0,0,0,0,0,0,0,0,0,0,0
14,35,966.897914418951,0,0,674904.222079379,674905.269150277,0,50,2,0,0,34,3,4110091,4181020,3050080,3061191,0,4110091,0,0,0,0,0,0,0,0,4181020,0,0,0,0,0,0,0,0,0,0,0,0,0,0,0,3050080,0,0,0,0,0,0,-3061191,0,0
14,36,630.280594923534,1,0,674907.292713058,674908.339778566,0,50,2,1,1,14,3,0,4010190,1061061,6092242,0,0,0,0,0,0,0,0,0,0,0,0,0,-4010190,0,0,0,0,0,1061061,0,0,0,0,0,0,0,0,0,2071051,0,0,0,0,4021191,0
14,37,585.371646098793,0,0,674910.01040393,674911.057470978,0,50,2,0,0,16,3,1091010,6220091,0,4101010,0,0,1091010,0,0,0,0,0,0,0,0,0,0,0,0,-2110031,4110060,0,0,0,0,0,0,0,0,0,0,0,0,4101010,0,0,0,0,0,0
14,38,1075.07082121447,1,0,674912.798678436,674913.845753183,0,50,2,1,1,36,7,1090121,4261052,7421151,3161241,0,0,0,0,0,0,0,0,1090121,0,0,0,0,1191031,0,3070021,0,0,0,0,2070050,0,0,3181051,0,2170050,0,0,2061150,0,0,0,0,0,0,-1100091
14,39,458.577336277813,0,0,674916.069311268,674917.116389865,0,50,2,0,0,22,7,6221211,1191051,5310191,9190392,3070141,0,0,0,0,0,0,3151070,0,0,1191051,0,0,0,0,0,0,0,0,0,4200110,-1110081,0,0,0,0,0,0,4090131,0,0,0,2020151,3080110,0,0
14,40,804.377934895456,0,0,674918.763469771,674919.810543363,0,50,2,1,0,7,7,5211240,6322470,3110071,5311180,1181190,0,0,0,0,0,-4030050,0,0,0,0,0,0,0,0,2141180,1080100,3101190,0,0,0,0,0,0,0,3110071,0,0,0,4191160,0,0,0,0,1120020,0
14,41,500.751511775889,0,0,674921.68116711,674922.728234543,0,50,2,0,0,33,3,4121280,2100201,0,2170020,3091080,0,0,1030200,0,0,0,0,0,0,0,0,0,0,2100201,0,0,0,0,0,0,0,0,0,0,0,0,0,0,0,0,0,-2170020,0,0,0
14,42,588.224987848662,1,0,674924.363555386,674925.410628594,0,50,2,1,1,15,7,1161170,7391241,1180201,7272461,0,1161170,0,0,0,0,0,0,0,0,1190080,0,0,4090100,-2111061,0,0,0,0,0,0,0,0,0,0,1180201,0,3050150,0,1131190,3091121,0,0,0,0,0
14,43,1427.61326709297,1,0,674927.128308302,674928.175371886,0,50,2,0,1,4,7,4140291,2332160,5100241,3231340,3050101,0,0,-1090190,0,0,0,0,0,0,0,0,0,0,0,0,1181050,1151110,0,0,0,0,0,4030150,1070091,0,0,2101160,0,0,0,0,0,1130180,0,0
14,44,803.232671692967,1,0,674930.622474966,674931.669545094,0,50,2,1,1,20,7,6211250,4342132,8310313,3110100,0,0,3080050,0,0,0,0,0,3131200,0,0,0,0,0,0,2161021,2181111,0,0,-2170201,4050041,0,0,2090071,0,0,0,0,0,0,0,0,0,3110100,0,0
14,45,511.637094663456,0,0,674933.646058151,674934.693118654,0,50,2,0,0,8,3,5192310,1201111,3111150,0,0,0,0,0,3021180,0,0,-2171130,0,0,0,0,0,1201111,0,0,0,0,0,0,0,0,0,0,3111150,0,0,0,0,0,0,0,0,0,0,0
14,46,669.905934017152,1,0,674936.21079074,674937.257864718,0,50,2,1,1,32,3,0,4070120,7211252,4200161,0,0,0,0,0,0,0,0,0,0,0,0,4070120,0,0,0,0,0,4020171,0,0,0,0,0,0,0,3191081,0,0,0,0,-4200161,0,0,0,0
14,47,939.236053149216,0,0,674939.081419877,674940.128493854,0,50,2,0,0,25,7,1100190,5240201,5281263,4191221,0,0,0,0,0,1100190,0,0,0,0,4110041,0,0,0,0,1130160,0,0,0,0,0,0,0,1111021,-2010081,0,2160161,0,0,0,2041090,0,2150131,0,0,0
14,48,458.68435583543,0,0,674942.105035398,674943.152079348,0,50,2,1,0,3,7,8172372,11272142,3111070,2120110,0,0,-2040031,3071170,0,0,0,0,3061171,4061021,0,0,0,0,0,3200041,0,4011080,0,0,0,0,0,0,0,3111070,0,0,2120110,0,0,0,0,0,0,0
14,49,896.504452102818,1,0,674956.164030122,674957.211107564,0,50,3,0,1,28,7,1040111,9311211,3071272,6231171,0,0,0,0,0,0,0,0,1040111,3070120,4201081,0,2040010,0,0,0,0,0,0,0,0,0,0,0,0,2031131,1040141,-4100060,0,2131111,0,0,0,0,0,0
14,50,976.959292893298,0,0,674959.234690364,674960.281789749,0,50,3,1,0,7,7,5211240,6322470,3110071,5311180,1181190,0,0,0,0,0,-4030050,0,0,0,0,0,0,0,0,2141180,1080100,3101190,0,0,0,0,0,0,0,3110071,0,0,0,4191160,0,0,0,0,1120020,0
14,51,622.263751924038,0,0,674962.30529748,674963.352365683,0,50,3,1,0,12,3,0,2270061,3040191,1201021,0,0,0,0,0,0,0,0,0,0,0,-1130041,0,0,1140020,0,0,0,0,0,0,0,3040191,0,0,0,0,0,0,0,0,0,1201021,0,0,0
14,52,644.601582665928,1,0,674965.08225563,674966.12889383,0,50,3,1,1,15,7,1161170,7391241,1180201,7272461,0,1161170,0,0,0,0,0,0,0,0,1190080,0,0,4090100,-2111061,0,0,0,0,0,0,0,0,0,0,1180201,0,3050150,0,1131190,3091121,0,0,0,0,0
14,53,723.086955607869,0,0,674967.858322592,674968.905396185,0,50,3,1,0,32,3,0,4070120,7211252,4200161,0,0,0,0,0,0,0,0,0,0,0,0,4070120,0,0,0,0,0,4020171,0,0,0,0,0,0,0,3191081,0,0,0,0,-4200161,0,0,0,0
14,54,499.643589835614,1,0,674970.681897769,674971.728962507,0,50,3,1,1,20,7,6211250,4342132,8310313,3110100,0,0,3080050,0,0,0,0,0,3131200,0,0,0,0,0,0,2161021,2181111,0,0,-2170201,4050041,0,0,2090071,0,0,0,0,0,0,0,0,0,3110100,0,0
14,55,494.433893123642,0,0,674973.423116391,674974.470177664,0,50,3,1,0,2,3,5341160,4120070,3011110,0,0,-4171010,0,0,0,1170150,0,0,0,0,0,0,0,0,0,4120070,0,0,0,0,0,3011110,0,0,0,0,0,0,0,0,0,0,0,0,0,0
14,56,884.603338083252,0,0,674976.140829591,674977.187870076,0,50,3,0,0,24,3,0,4030031,3330191,1040170,0,0,0,0,0,0,0,0,0,0,0,0,0,4030031,0,0,0,0,0,0,0,2130101,0,-1200090,0,0,0,0,0,0,0,0,1040170,0,0,0
14,57,563.604714698158,1,0,674979.282022266,674980.329095858,0,50,3,0,1,22,7,0,3050020,8133261,7573574,0,0,0,0,0,0,0,0,0,0,0,0,0,0,0,0,3050020,0,0,0,4031020,-2021171,0,0,0,2081070,0,2111091,3191171,1101191,0,1170121,0,0,0,0
14,58,1139.24829498865,1,0,674982.023244737,674983.070314865,0,50,3,1,1,36,7,1090121,4261052,7421151,3161241,0,0,0,0,0,0,0,0,1090121,0,0,0,0,1191031,0,3070021,0,0,0,0,2070050,0,0,3181051,0,2170050,0,0,2061150,0,0,0,0,0,0,-1100091
14,59,580.422184080817,1,0,674985.282113117,674986.32917978,0,50,3,0,1,17,7,6352331,3151161,6190121,4241402,0,0,4150100,0,0,1081180,1121051,0,0,0,0,0,0,0,0,0,-3151161,0,2180071,0,0,0,4010050,0,0,0,0,0,0,0,0,3140201,0,1101201,0,0
14,60,390.789299621247,1,0,674987.952759654,674988.999813998,0,50,3,0,1,16,7,14324283,4150071,4070141,7210381,0,0,3021120,0,0,3141051,4141051,4021061,0,0,0,0,0,0,0,-4150071,0,0,0,0,0,0,0,4070141,0,0,0,0,0,0,0,0,0,3120191,0,4090190
14,61,775.650112540461,0,0,674990.505716627,674991.552794069,0,50,3,1,0,30,3,1141140,4181221,0,4150181,0,0,0,0,1141140,0,0,0,0,0,0,0,0,0,3100121,0,0,1081100,0,0,0,0,0,0,0,0,0,0,0,-4150181,0,0,0,0,0,0
14,62,543.490042095073,0,0,674993.494010689,674994.541080817,0,50,3,1,0,14,3,0,4010190,1061061,6092242,0,0,0,0,0,0,0,0,0,0,0,0,0,-4010190,0,0,0,0,0,1061061,0,0,0,0,0,0,0,0,0,2071051,0,0,0,0,4021191,0
14,63,1246.13696697634,0,0,674996.235216992,674997.282280961,0,50,3,0,0,4,3,1050131,0,0,5371332,0,0,0,-1050131,0,0,0,0,0,0,0,0,0,0,0,0,0,0,0,0,0,0,0,0,0,0,0,0,0,1180110,1121031,0,0,3070191,0,0
14,64,693.681599455886,0,0,674999.658795788,675000.70587246,0,50,3,1,0,3,7,8172372,11272142,3111070,2120110,0,0,-2040031,3071170,0,0,0,0,3061171,4061021,0,0,0,0,0,3200041,0,4011080,0,0,0,0,0,0,0,3111070,0,0,2120110,0,0,0,0,0,0,0
14,65,412.92348515708,0,0,675002.529426464,675003.576540478,0,50,3,0,0,9,3,2111020,3110060,0,4240252,0,0,0,0,0,0,0,0,-2111020,0,0,0,3110060,0,0,0,0,0,0,0,0,0,0,0,0,0,0,0,0,0,0,2120141,0,0,0,2120111
14,66,606.442180578597,0,0,675005.058873781,675006.105950068,0,50,3,0,0,8,7,8351331,6361192,8222201,4051101,0,0,0,0,3090191,0,0,-2100120,3161020,0,0,0,0,4180131,2181061,0,0,0,0,0,4071090,0,4151111,0,0,0,0,0,0,0,4051101,0,0,0,0,0
14,67,627.982369158417,1,0,675007.882443954,675008.92952871,0,50,3,0,1,33,3,0,0,4080111,6353401,0,0,0,0,0,0,0,0,0,0,0,0,0,0,0,0,0,0,0,4080111,0,0,0,0,0,0,0,1061150,0,3111101,0,0,-2181150,0,0,0
14,68,1351.33680864237,1,0,675010.753081174,675011.800152842,0,50,3,0,1,34,7,8223502,3111170,4200081,4311242,0,2071121,0,4101201,2051180,0,0,0,0,0,0,3111170,0,0,0,0,0,0,0,3070041,1130040,0,0,0,0,0,0,0,0,0,0,3190141,0,-1121101,0,0
14,69,625.422753859311,1,0,675014.270779053,675015.317851105,0,50,3,0,1,25,3,0,2080010,7270243,0,0,0,0,0,0,0,0,0,0,0,2080010,0,0,0,0,0,0,0,0,3070091,0,0,0,1160131,-3040021,0,0,0,0,0,0,0,0,0,0,0
14,70,780.902155209333,1,0,675017.000239767,675018.047296036,0,50,3,0,1,1,3,4121310,0,0,7071201,-1060160,0,0,3061150,0,0,0,0,0,0,0,0,0,0,0,0,0,0,0,0,0,0,0,0,0,0,0,0,3020131,0,0,0,0,0,0,4051070
14,71,2019.67087597586,0,0,675019.894381254,675020.941492958,0,50,3,1,0,10,3,0,4321381,0,5260230,0,0,0,0,0,0,0,0,0,-1131181,0,3190200,0,0,0,0,0,0,0,0,0,0,0,0,0,0,0,0,0,0,0,3080170,0,0,2180060,0
14,72,1101.07546462677,1,0,675024.094460479,675025.141330381,0,50,3,1,1,19,7,2181090,2190100,12402363,3212182,0,0,0,0,0,0,0,0,2181090,0,2190100,0,0,0,0,0,0,0,-4121010,4040111,0,0,3091201,0,1150041,0,0,0,0,0,2041161,1171021,0,0,0,0
14,73,823.6811067909,0,0,675038.753498859,675039.800567831,0,50,4,0,0,1,7,2011170,9291343,5212421,4120201,-2011170,0,0,0,0,0,0,0,0,0,0,0,4070031,0,1121171,4100141,0,0,0,0,2051200,2130041,0,0,0,0,1031180,0,0,4120201,0,0,0,0,0,0
14,74,672.935973387212,1,0,675041.718307517,675042.765317976,0,50,4,0,1,34,3,3141181,0,0,4121141,2061111,0,0,0,0,0,0,1080070,0,0,0,0,0,0,0,0,0,0,0,0,0,0,0,0,0,0,0,0,0,1080070,0,0,0,-3041071,0,0
14,75,734.511486138217,1,0,675044.506525433,675045.553594791,0,50,4,0,1,25,7,0,4170011,11542342,7491290,0,0,0,0,0,0,0,0,0,0,0,0,0,0,0,0,4170011,0,0,0,0,0,4120020,3201040,-2141121,0,2080161,1171090,0,0,0,3190110,0,0,0,3130090
14,76,798.854878754355,1,0,675047.31841392,675048.365402051,0,50,4,0,1,33,7,2140011,1131200,3041341,14324182,0,0,2140011,0,0,0,0,0,0,0,0,0,0,0,0,0,0,1131200,0,1021171,0,0,0,0,0,0,2020170,3131021,0,0,4041100,0,-4081020,0,0,3071041
14,77,491.756864241324,1,0,675050.330142571,675051.377261589,0,50,4,1,1,14,3,0,4010190,1061061,6092242,0,0,0,0,0,0,0,0,0,0,0,0,0,-4010190,0,0,0,0,0,1061061,0,0,0,0,0,0,0,0,0,2071051,0,0,0,0,4021191,0
14,78,498.96644090768,0,0,675052.883121873,675053.930187766,0,50,4,1,0,15,7,1161170,7391241,1180201,7272461,0,1161170,0,0,0,0,0,0,0,0,1190080,0,0,4090100,-2111061,0,0,0,0,0,0,0,0,0,0,1180201,0,3050150,0,1131190,3091121,0,0,0,0,0
14,79,711.840662988834,1,0,675055.530220642,675056.577300009,0,50,4,1,1,30,3,1141140,4181221,0,4150181,0,0,0,0,1141140,0,0,0,0,0,0,0,0,0,3100121,0,0,1081100,0,0,0,0,0,0,0,0,0,0,0,-4150181,0,0,0,0,0,0
14,80,480.282288743183,0,0,675058.41261577,675059.459681278,0,50,4,1,0,3,7,8172372,11272142,3111070,2120110,0,0,-2040031,3071170,0,0,0,0,3061171,4061021,0,0,0,0,0,3200041,0,4011080,0,0,0,0,0,0,0,3111070,0,0,2120110,0,0,0,0,0,0,0
14,81,431.969117140397,1,0,675061.047948547,675062.095019445,0,50,4,0,1,28,3,4201080,2120181,0,6302171,0,0,0,0,0,0,4201080,0,0,0,0,0,0,0,0,2120181,0,0,0,0,0,0,0,0,0,0,0,-2111111,0,0,0,4191060,0,0,0,0
14,82,447.724475059658,0,0,675063.58917456,675064.636241608,0,50,4,0,0,16,7,4161031,6252231,7270381,7211191,0,0,0,0,0,0,0,4161031,0,0,0,0,0,0,1070041,-4141040,1041150,0,0,3090191,4180190,0,0,0,0,0,0,4070090,3141101,0,0,0,0,0,0,0
14,83,910.49437224865,0,0,675066.271557832,675067.318630269,0,50,4,1,0,7,7,5211240,6322470,3110071,5311180,1181190,0,0,0,0,0,-4030050,0,0,0,0,0,0,0,0,2141180,1080100,3101190,0,0,0,0,0,0,0,3110071,0,0,0,4191160,0,0,0,0,1120020,0
14,84,866.404238739051,0,0,675069.271599793,675070.31867454,0,50,4,0,0,4,7,11461452,6080292,1031071,2351071,0,0,0,-4100090,3181191,0,0,4180171,0,0,4070151,0,2010141,0,0,0,0,0,0,0,0,0,0,0,0,0,1031071,1170040,0,0,0,0,0,0,1181031,0
14,85,502.01842316892,1,0,675072.36577585,675073.412833274,0,50,4,0,1,24,3,5161251,4181100,1061051,0,0,0,0,4151070,0,0,0,1010181,0,0,0,0,4181100,0,0,0,0,0,0,0,0,0,0,-1061051,0,0,0,0,0,0,0,0,0,0,0,0
14,86,941.967746708542,0,0,675074.954045813,675076.001107087,0,50,4,1,0,19,7,2181090,2190100,12402363,3212182,0,0,0,0,0,0,0,0,2181090,0,2190100,0,0,0,0,0,0,0,-4121010,4040111,0,0,3091201,0,1150041,0,0,0,0,0,2041161,1171021,0,0,0,0
14,87,1255.82069717348,1,0,675078.048200698,675079.095277755,0,50,4,0,1,22,3,2051011,2031101,3131090,4191140,0,0,0,2051011,0,0,0,0,0,0,0,0,2031101,0,0,0,0,0,0,0,0,-3131090,0,0,0,0,0,0,0,4191140,0,0,0,0,0,0
14,88,571.484126034193,0,0,675081.483554339,675082.530621773,0,50,4,0,0,9,3,3171090,0,7141100,2150090,0,0,0,0,0,0,0,0,-3171090,0,0,0,0,0,0,0,0,0,0,0,3051030,0,0,0,0,4090070,0,2150090,0,0,0,0,0,0,0,0
14,89,590.997102437541,1,0,675084.165965328,675085.213055474,0,50,4,0,1,17,7,2200021,13271541,7191140,4050101,0,0,0,0,0,2200021,0,0,0,0,4080080,2060201,4091130,0,0,0,-3040130,0,3140050,0,0,0,0,0,4051090,0,0,0,0,0,0,0,0,0,0,4050101
14,90,508.742177160457,0,0,675086.918926844,675087.966040858,0,50,4,1,0,2,3,5341160,4120070,3011110,0,0,-4171010,0,0,0,1170150,0,0,0,0,0,0,0,0,0,4120070,0,0,0,0,0,3011110,0,0,0,0,0,0,0,0,0,0,0,0,0,0
14,91,598.649385850877,1,0,675089.566037162,675090.613110755,0,50,4,1,1,32,3,0,4070120,7211252,4200161,0,0,0,0,0,0,0,0,0,0,0,0,4070120,0,0,0,0,0,4020171,0,0,0,0,0,0,0,3191081,0,0,0,0,-4200161,0,0,0,0
14,92,362.223546486348,1,0,675092.283706862,675093.330775835,0,50,4,1,1,10,3,0,4321381,0,5260230,0,0,0,0,0,0,0,0,0,-1131181,0,3190200,0,0,0,0,0,0,0,0,0,0,0,0,0,0,0,0,0,0,0,3080170,0,0,2180060,0
14,93,680.630602757446,0,0,675094.766122932,675095.813168807,0,50,4,1,0,12,3,0,2270061,3040191,1201021,0,0,0,0,0,0,0,0,0,0,0,-1130041,0,0,1140020,0,0,0,0,0,0,0,3040191,0,0,0,0,0,0,0,0,0,1201021,0,0,0
14,94,512.098664767109,0,0,675097.542669942,675098.589672701,0,50,4,1,0,20,7,6211250,4342132,8310313,3110100,0,0,3080050,0,0,0,0,0,3131200,0,0,0,0,0,0,2161021,2181111,0,0,-2170201,4050041,0,0,2090071,0,0,0,0,0,0,0,0,0,3110100,0,0
14,95,524.320837343112,1,0,675100.248534383,675101.29560759,0,50,4,0,1,8,3,2120171,0,4171070,7230170,0,0,0,0,0,0,0,-2120171,0,0,0,0,0,0,0,0,0,0,0,0,0,0,0,0,0,4171070,0,0,0,0,0,3060090,0,0,0,4170080
14,96,1024.97488853987,0,0,675102.942683262,675103.989766093,0,50,4,1,0,36,7,1090121,4261052,7421151,3161241,0,0,0,0,0,0,0,0,1090121,0,0,0,0,1191031,0,3070021,0,0,0,0,2070050,0,0,3181051,0,2170050,0,0,2061150,0,0,0,0,0,0,-1100091
14,97,417.448718682863,0,0,675129.296043368,675130.343099637,0,50,5,0,0,16,3,0,7131251,5261190,0,0,0,0,0,0,0,0,0,0,0,0,0,0,0,0,-4081160,0,3050091,0,1200130,0,0,0,0,4061060,0,0,0,0,0,0,0,0,0,0,0
14,98,715.874684276059,0,0,675131.966658338,675133.013759648,0,50,5,0,0,22,3,3170051,3151150,3050261,0,0,0,0,0,0,0,3170051,0,0,3151150,0,0,0,0,0,0,0,0,0,0,1020060,-2030201,0,0,0,0,0,0,0,0,0,0,0,0,0,0
14,99,592.891117557883,1,0,675134.766700761,675135.813776663,0,50,5,1,1,14,3,0,4010190,1061061,6092242,0,0,0,0,0,0,0,0,0,0,0,0,0,-4010190,0,0,0,0,0,1061061,0,0,0,0,0,0,0,0,0,2071051,0,0,0,0,4021191,0
14,100,700.841900892556,0,0,675137.566737794,675138.613854117,0,50,5,1,0,3,7,8172372,11272142,3111070,2120110,0,0,-2040031,3071170,0,0,0,0,3061171,4061021,0,0,0,0,0,3200041,0,4011080,0,0,0,0,0,0,0,3111070,0,0,2120110,0,0,0,0,0,0,0
14,101,521.249991841614,1,0,675140.343249003,675141.390316051,0,50,5,0,1,8,3,4021101,0,2180071,6352251,0,0,0,0,0,0,0,-4021101,0,0,0,0,0,0,0,0,0,0,0,0,0,0,0,2180071,0,0,0,0,4161070,0,0,0,0,2191181,0,0
14,102,541.080562281422,1,0,675142.943294582,675143.99036163,0,50,5,1,1,20,7,6211250,4342132,8310313,3110100,0,0,3080050,0,0,0,0,0,3131200,0,0,0,0,0,0,2161021,2181111,0,0,-2170201,4050041,0,0,2090071,0,0,0,0,0,0,0,0,0,3110100,0,0
14,103,768.547940533608,0,0,675145.71981426,675146.766868219,0,50,5,0,0,34,3,4040181,0,0,8250202,0,0,0,0,0,0,4040181,0,0,0,0,0,0,0,0,0,0,0,0,0,0,0,0,0,0,0,0,2050051,0,0,0,4090091,0,-2110060,0,0
14,104,538.599094375968,1,0,675148.613960752,675149.66103011,0,50,5,0,1,17,7,7121132,4212251,12361462,0,0,0,0,3011101,0,0,4110031,0,0,0,0,2101200,0,0,0,0,-2111051,0,0,4061120,0,2070180,0,0,0,3130061,3100101,0,0,0,0,0,0,0,0,0
14,105,579.707308905199,0,0,675151.319881397,675152.366957685,0,50,5,0,0,28,7,1140151,5062281,1051050,8352241,0,0,1140151,0,0,0,0,0,0,0,0,0,0,0,0,1041120,4021161,0,0,0,0,0,0,0,0,0,1051050,-2070010,2161051,0,2031120,0,2090060,0,0,0
14,106,414.409440243617,1,0,675154.014039515,675155.061119652,0,50,5,1,1,15,7,1161170,7391241,1180201,7272461,0,1161170,0,0,0,0,0,0,0,0,1190080,0,0,4090100,-2111061,0,0,0,0,0,0,0,0,0,0,1180201,0,3050150,0,1131190,3091121,0,0,0,0,0
14,107,1492.6137906732,1,0,675156.578784424,675157.625859941,0,50,5,1,1,19,7,2181090,2190100,12402363,3212182,0,0,0,0,0,0,0,0,2181090,0,2190100,0,0,0,0,0,0,0,-4121010,4040111,0,0,3091201,0,1150041,0,0,0,0,0,2041161,1171021,0,0,0,0
14,108,2251.86790281441,0,0,675160.237674207,675161.284735866,0,50,5,0,0,33,7,8202212,2080091,2021190,11480361,3081101,1090051,4031060,0,0,0,0,0,0,0,0,0,0,0,2080091,0,0,0,0,0,0,0,0,2021190,0,0,0,0,0,0,4160171,0,-3120070,0,4200120,0
14,109,659.081945079379,1,0,675164.567154323,675165.614219062,0,50,5,0,1,9,3,3070200,4121011,3011181,1090021,0,0,0,0,0,0,0,0,-3070200,0,0,0,0,0,4121011,0,0,0,0,0,3011181,0,0,0,0,0,0,0,1090021,0,0,0,0,0,0,0
14,110,463.223833008669,1,0,675167.414244546,675168.461331227,0,50,5,1,1,10,3,0,4321381,0,5260230,0,0,0,0,0,0,0,0,0,-1131181,0,3190200,0,0,0,0,0,0,0,0,0,0,0,0,0,0,0,0,0,0,0,3080170,0,0,2180060,0
14,111,978.337458451279,1,0,675170.08492342,675171.131942733,0,50,5,0,1,1,7,9311311,11390451,0,8260221,-4151100,0,0,0,0,0,0,2110011,3050200,0,4200110,3110160,0,0,4080181,0,0,0,0,0,0,0,0,0,0,0,0,4200170,0,0,0,4060051,0,0,0,0
14,112,764.751825830899,1,0,675173.261386354,675174.308504217,0,50,5,1,1,12,3,0,2270061,3040191,1201021,0,0,0,0,0,0,0,0,0,0,0,-1130041,0,0,1140020,0,0,0,0,0,0,0,3040191,0,0,0,0,0,0,0,0,0,1201021,0,0,0
14,113,886.030778870918,0,0,675176.214372431,675177.261486059,0,50,5,1,0,32,3,0,4070120,7211252,4200161,0,0,0,0,0,0,0,0,0,0,0,0,4070120,0,0,0,0,0,4020171,0,0,0,0,0,0,0,3191081,0,0,0,0,-4200161,0,0,0,0
14,114,774.258473422378,0,0,675179.332072773,675180.379143671,0,50,5,1,0,30,3,1141140,4181221,0,4150181,0,0,0,0,1141140,0,0,0,0,0,0,0,0,0,3100121,0,0,1081100,0,0,0,0,0,0,0,0,0,0,0,-4150181,0,0,0,0,0,0
14,115,801.160803763196,1,0,675182.285049996,675183.332113964,0,50,5,0,1,25,3,2170060,0,2141222,3030091,0,0,0,2170060,0,0,0,0,0,0,0,0,0,0,0,0,0,0,0,0,0,0,0,0,-1031061,1110161,0,0,0,0,0,0,0,0,3030091,0
14,116,1191.15778570995,0,0,675185.238035687,675186.285104275,0,50,5,0,0,4,7,9383300,3011071,1181061,10171191,0,0,0,-4131030,1151200,4101070,0,0,0,0,0,3011071,0,0,0,0,0,0,0,0,0,0,0,0,0,1181061,0,0,4100030,2021130,0,0,4050031,0,0,0
14,117,678.830903256312,0,0,675188.67343052,675189.720452143,0,50,5,1,0,2,3,5341160,4120070,3011110,0,0,-4171010,0,0,0,1170150,0,0,0,0,0,0,0,0,0,4120070,0,0,0,0,0,3011110,0,0,0,0,0,0,0,0,0,0,0,0,0,0
14,118,949.519554967992,0,0,675191.602834952,675192.64990431,0,50,5,1,0,36,7,1090121,4261052,7421151,3161241,0,0,0,0,0,0,0,0,1090121,0,0,0,0,1191031,0,3070021,0,0,0,0,2070050,0,0,3181051,0,2170050,0,0,2061150,0,0,0,0,0,0,-1100091
14,119,1149.02942068875,0,0,675194.791118928,675195.838199065,0,50,5,0,0,24,7,6032200,5211221,12462563,0,0,0,3011060,3021140,0,0,0,0,0,3080020,0,0,0,0,0,0,0,2131201,3120161,0,0,0,3161181,-4080040,0,2101181,0,0,0,0,0,0,0,0,0,0
14,120,810.069604660384,0,0,675198.049983844,675199.097057821,0,50,5,1,0,7,7,5211240,6322470,3110071,5311180,1181190,0,0,0,0,0,-4030050,0,0,0,0,0,0,0,0,2141180,1080100,3101190,0,0,0,0,0,0,0,3110071,0,0,0,4191160,0,0,0,0,1120020,0
14,121,413.970968103968,1,0,675216.414969431,675217.462036094,0,50,6,0,1,16,3,0,2111020,3211190,1141090,0,0,0,0,0,0,0,0,0,0,0,0,0,0,0,-2111020,0,0,0,0,0,0,2011090,1200100,0,0,0,0,0,0,0,1141090,0,0,0,0
14,122,1173.47723070998,0,0,675218.93265114,675219.979730892,0,50,6,0,0,33,7,2071030,3030120,5232191,15433301,0,0,0,0,0,0,2071030,0,0,0,0,0,0,0,3030120,0,0,0,0,1171071,0,0,0,0,4061120,0,0,0,0,4121110,0,0,-4021070,3140020,0,4151101
14,123,1528.17585121375,0,0,675222.332710656,675223.379781169,0,50,6,0,0,1,7,7311430,1111041,4201342,4041021,-1070100,4170150,0,0,2071180,0,0,0,0,0,0,0,0,0,0,0,0,1111041,1120070,0,0,0,0,0,1071121,0,2010151,0,0,0,0,0,4041021,0,0,0
14,124,631.733058136888,0,0,675226.003352958,675227.050433095,0,50,6,0,0,25,3,3200030,0,5131070,2120070,0,3200030,0,0,0,0,0,0,0,0,0,0,0,0,0,0,0,0,0,0,0,0,1060010,0,-4071060,0,0,0,0,0,2120070,0,0,0,0,0
14,125,1044.81431294698,1,0,675228.721036901,675229.768165158,0,50,6,1,1,32,3,0,4070120,7211252,4200161,0,0,0,0,0,0,0,0,0,0,0,0,4070120,0,0,0,0,0,4020171,0,0,0,0,0,0,0,3191081,0,0,0,0,-4200161,0,0,0,0
14,126,473.0911902152,0,0,675231.885791587,675232.932861715,0,50,6,1,0,20,7,6211250,4342132,8310313,3110100,0,0,3080050,0,0,0,0,0,3131200,0,0,0,0,0,0,2161021,2181111,0,0,-2170201,4050041,0,0,2090071,0,0,0,0,0,0,0,0,0,3110100,0,0
14,127,608.240725006908,1,0,675234.544659428,675235.591729556,0,50,6,0,1,22,3,0,1121071,4212181,2151040,0,0,0,0,0,0,0,0,0,0,0,0,0,0,0,1121071,0,0,0,0,0,-1091151,0,0,3121030,0,0,0,0,0,2151040,0,0,0,0,0
14,128,1695.87242067792,1,0,675237.379991358,675238.427114226,0,50,6,1,1,19,7,2181090,2190100,12402363,3212182,0,0,0,0,0,0,0,0,2181090,0,2190100,0,0,0,0,0,0,0,-4121010,4040111,0,0,3091201,0,1150041,0,0,0,0,0,2041161,1171021,0,0,0,0
14,129,540.525446413085,0,0,675241.262395726,675242.309468933,0,50,6,0,0,9,7,9262322,5171331,3090040,2112140,4191110,0,0,0,3040201,0,0,0,-2031011,0,0,1010180,0,0,4161151,0,0,0,0,0,0,0,0,0,0,3090040,0,0,1011080,1101060,0,0,0,0,0,0
14,130,503.589069936424,1,0,675243.968320991,675245.015391888,0,50,6,1,1,14,3,0,4010190,1061061,6092242,0,0,0,0,0,0,0,0,0,0,0,0,0,-4010190,0,0,0,0,0,1061061,0,0,0,0,0,0,0,0,0,2071051,0,0,0,0,4021191,0
14,131,485.479281749576,0,0,675246.568350017,675247.615423994,0,50,6,0,0,8,3,2050131,1050090,2071110,4081071,0,0,0,0,0,0,0,-2050131,0,0,0,0,0,0,0,0,0,1050090,0,0,0,2071110,0,0,0,0,0,0,0,0,0,0,0,0,4081071,0
14,132,709.140536375344,1,0,675249.2978192,675250.344881243,0,50,6,1,1,2,3,5341160,4120070,3011110,0,0,-4171010,0,0,0,1170150,0,0,0,0,0,0,0,0,0,4120070,0,0,0,0,0,3011110,0,0,0,0,0,0,0,0,0,0,0,0,0,0
14,133,480.470535345376,1,0,675252.168445256,675253.215506915,0,50,6,1,1,15,7,1161170,7391241,1180201,7272461,0,1161170,0,0,0,0,0,0,0,0,1190080,0,0,4090100,-2111061,0,0,0,0,0,0,0,0,0,0,1180201,0,3050150,0,1131190,3091121,0,0,0,0,0
14,134,1425.93444581144,1,0,675254.803773029,675255.850847776,0,50,6,0,1,24,7,2041171,4020080,6212203,8231341,0,0,0,0,0,0,0,0,2041171,0,0,0,4020080,0,0,0,0,0,0,0,0,0,1011121,-4061011,0,1140071,0,0,1130080,0,0,0,0,4031171,0,3070090
14,135,760.267783305608,1,0,675258.321479761,675259.368548349,0,50,6,0,1,4,7,2381222,10382352,1200140,2291251,0,0,0,-1200021,1181201,0,0,0,0,0,0,2070191,0,0,4181120,0,4131041,0,0,1200140,0,0,0,0,0,0,0,0,0,0,0,1120130,1171121,0,0,0
14,136,485.413068090566,1,0,675261.333276936,675262.380358997,0,50,6,1,1,3,7,8172372,11272142,3111070,2120110,0,0,-2040031,3071170,0,0,0,0,3061171,4061021,0,0,0,0,0,3200041,0,4011080,0,0,0,0,0,0,0,3111070,0,0,2120110,0,0,0,0,0,0,0
14,137,658.201535930857,0,0,675263.921561142,675264.968633195,0,50,6,1,0,12,3,0,2270061,3040191,1201021,0,0,0,0,0,0,0,0,0,0,0,-1130041,0,0,1140020,0,0,0,0,0,0,0,3040191,0,0,0,0,0,0,0,0,0,1201021,0,0,0
14,138,1082.83397380728,0,0,675266.709836418,675267.756958516,0,50,6,1,0,36,7,1090121,4261052,7421151,3161241,0,0,0,0,0,0,0,0,1090121,0,0,0,0,1191031,0,3070021,0,0,0,0,2070050,0,0,3181051,0,2170050,0,0,2061150,0,0,0,0,0,0,-1100091
14,139,470.264026080258,0,0,675269.886359792,675270.933431074,0,50,6,0,0,17,7,5230131,5121261,3130100,4431360,0,0,4120060,0,0,1110071,0,0,0,3080080,0,0,0,0,0,0,-2041181,0,0,0,3130100,0,0,0,0,0,0,0,1100130,0,2131070,0,0,0,1200160,0
14,140,891.827928251587,1,0,675272.604049509,675273.651120407,0,50,6,1,1,7,7,5211240,6322470,3110071,5311180,1181190,0,0,0,0,0,-4030050,0,0,0,0,0,0,0,0,2141180,1080100,3101190,0,0,0,0,0,0,0,3110071,0,0,0,4191160,0,0,0,0,1120020,0
14,141,438.022651593201,1,0,675275.627623069,675276.674692427,0,50,6,1,1,10,3,0,4321381,0,5260230,0,0,0,0,0,0,0,0,0,-1131181,0,3190200,0,0,0,0,0,0,0,0,0,0,0,0,0,0,0,0,0,0,0,3080170,0,0,2180060,0
14,142,586.633553146385,0,0,675278.251188314,675279.298261522,0,50,6,1,0,30,3,1141140,4181221,0,4150181,0,0,0,0,1141140,0,0,0,0,0,0,0,0,0,3100121,0,0,1081100,0,0,0,0,0,0,0,0,0,0,0,-4150181,0,0,0,0,0,0
14,143,464.257457060739,1,0,675280.886521861,675281.933589679,0,50,6,0,1,28,3,0,4081040,3150070,5121222,0,0,0,0,0,0,0,0,0,4081040,0,0,0,0,0,0,0,0,0,0,0,0,0,0,0,3150070,0,-1011111,0,0,4110111,0,0,0,0,0
14,144,446.62848697044,0,0,675283.510091725,675284.557150304,0,50,6,0,0,34,3,4040100,4081140,0,4122151,0,0,0,0,0,0,0,4040100,0,0,0,0,4081140,0,0,0,0,0,0,0,0,0,0,0,0,0,0,0,0,0,3081021,0,0,-1041130,0,0
14,145,986.519065219909,1,0,675305.275102951,675306.322186937,0,50,7,1,1,19,7,2181090,2190100,12402363,3212182,0,0,0,0,0,0,0,0,2181090,0,2190100,0,0,0,0,0,0,0,-4121010,4040111,0,0,3091201,0,1150041,0,0,0,0,0,2041161,1171021,0,0,0,0
14,146,602.210673387162,1,0,675308.369286707,675309.416351446,0,50,7,1,1,2,3,5341160,4120070,3011110,0,0,-4171010,0,0,0,1170150,0,0,0,0,0,0,0,0,0,4120070,0,0,0,0,0,3011110,0,0,0,0,0,0,0,0,0,0,0,0,0,0
14,147,405.788206378929,1,0,675311.204621717,675312.2516853,0,50,7,1,1,14,3,0,4010190,1061061,6092242,0,0,0,0,0,0,0,0,0,0,0,0,0,-4010190,0,0,0,0,0,1061061,0,0,0,0,0,0,0,0,0,2071051,0,0,0,0,4021191,0
14,148,438.573147752322,0,0,675313.745833486,675314.792901305,0,50,7,0,0,17,3,1150120,7270160,0,2151171,0,0,0,0,0,1150120,0,0,0,4110090,0,0,0,0,0,0,-3160070,0,0,0,0,0,0,0,0,0,0,0,2151171,0,0,0,0,0,0,0
14,149,825.336830224842,1,0,675316.275285808,675317.322352856,0,50,7,1,1,30,3,1141140,4181221,0,4150181,0,0,0,0,1141140,0,0,0,0,0,0,0,0,0,3100121,0,0,1081100,0,0,0,0,0,0,0,0,0,0,0,-4150181,0,0,0,0,0,0
14,150,460.584530374035,0,1,675319.192969674,675320.240045576,0,50,7,0,1,28,3,0,0,2120011,6332542,0,0,0,0,0,0,0,0,0,0,0,0,0,0,0,0,0,0,0,0,0,0,2120011,0,0,0,0,-2100171,0,1111180,0,3121191,0,0,0,0
14,151,383.391861338168,1,0,675321.745958599,675322.793020258,0,50,7,0,1,16,3,2080131,4070010,4021091,2141031,0,0,0,0,2080131,0,0,0,0,0,0,0,0,0,0,-4070010,0,0,4021091,0,0,0,0,0,0,0,0,2141031,0,0,0,0,0,0,0,0
14,152,807.022241875529,1,0,675324.322459491,675325.369590443,0,50,7,1,1,3,7,8172372,11272142,3111070,2120110,0,0,-2040031,3071170,0,0,0,0,3061171,4061021,0,0,0,0,0,3200041,0,4011080,0,0,0,0,0,0,0,3111070,0,0,2120110,0,0,0,0,0,0,0
14,153,770.341480500065,0,0,675327.251912428,675328.298988716,0,50,7,0,0,25,3,2191011,5211251,4070120,0,0,0,0,0,0,0,0,0,2191011,0,0,3100100,0,0,0,2111151,0,0,0,0,0,0,0,0,-4070120,0,0,0,0,0,0,0,0,0,0,0
14,154,947.553166770376,1,0,675330.204906204,675331.251966323,0,50,7,1,1,32,3,0,4070120,7211252,4200161,0,0,0,0,0,0,0,0,0,0,0,0,4070120,0,0,0,0,0,4020171,0,0,0,0,0,0,0,3191081,0,0,0,0,-4200161,0,0,0,0
14,155,456.135134561919,0,0,675333.240241907,675334.287304336,0,50,7,0,0,22,7,3191171,11171331,8340411,1141010,0,0,0,0,0,0,0,0,3191171,0,3061080,0,0,0,0,0,4020080,4090171,0,0,0,-3100140,0,2060161,3180110,0,0,0,0,1141010,0,0,0,0,0,0
14,156,1028.58121669851,0,0,675335.922632108,675336.969704546,0,50,7,1,0,36,7,1090121,4261052,7421151,3161241,0,0,0,0,0,0,0,0,1090121,0,0,0,0,1191031,0,3070021,0,0,0,0,2070050,0,0,3181051,0,2170050,0,0,2061150,0,0,0,0,0,0,-1100091
14,157,722.72740083281,1,0,675339.122680536,675340.169750664,0,50,7,0,1,24,7,9462082,8262530,4060011,4130020,0,0,0,0,0,1120011,4191040,4151031,0,0,3040170,4031180,0,0,0,0,0,1191180,0,0,0,0,0,-4060011,0,0,0,0,0,0,0,4130020,0,0,0,0
14,158,410.540952696465,0,0,675342.063902161,675343.110976138,0,50,7,1,0,10,3,0,4321381,0,5260230,0,0,0,0,0,0,0,0,0,-1131181,0,3190200,0,0,0,0,0,0,0,0,0,0,0,0,0,0,0,0,0,0,0,3080170,0,0,2180060,0
14,159,581.123585696332,1,0,675344.546288974,675345.593354867,0,50,7,1,1,7,7,5211240,6322470,3110071,5311180,1181190,0,0,0,0,0,-4030050,0,0,0,0,0,0,0,0,2141180,1080100,3101190,0,0,0,0,0,0,0,3110071,0,0,0,4191160,0,0,0,0,1120020,0
14,160,426.56501440797,1,0,675347.369869155,675348.416923115,0,50,7,1,1,20,7,6211250,4342132,8310313,3110100,0,0,3080050,0,0,0,0,0,3131200,0,0,0,0,0,0,2161021,2181111,0,0,-2170201,4050041,0,0,2090071,0,0,0,0,0,0,0,0,0,3110100,0,0
14,161,952.394454507157,0,0,675349.969899337,675351.016975624,0,50,7,0,0,9,7,5262261,4172241,0,9252440,0,0,0,4071071,0,0,0,0,-1191190,0,0,0,2151060,0,2021181,0,0,0,0,0,0,0,0,0,0,0,0,3040040,0,0,1030180,1151130,0,4031090,0,0
14,162,629.877154249698,0,0,675353.052292848,675354.09937029,0,50,7,0,0,33,7,7252521,11273211,0,4271400,0,3111190,0,3110160,0,0,1031171,0,0,0,0,4201050,0,0,0,4051040,3021121,0,0,0,0,0,0,0,0,0,0,0,0,0,2130200,0,-2141200,0,0,0
14,163,680.647541070357,0,0,675355.7464629,675356.793524174,0,50,7,0,0,34,7,3031090,6372221,5250201,7220071,0,0,0,0,0,0,3031090,0,0,0,0,0,0,2100140,0,1201030,3071051,0,3100131,0,0,0,0,0,0,2150070,0,3130040,0,0,0,0,0,-4090031,0,0
14,164,451.78236416541,0,0,675358.558264386,675359.605386483,0,50,7,1,0,15,7,1161170,7391241,1180201,7272461,0,1161170,0,0,0,0,0,0,0,0,1190080,0,0,4090100,-2111061,0,0,0,0,0,0,0,0,0,0,1180201,0,3050150,0,1131190,3091121,0,0,0,0,0
14,165,697.630544193089,0,0,675361.099510802,675362.146545898,0,50,7,1,0,12,3,0,2270061,3040191,1201021,0,0,0,0,0,0,0,0,0,0,0,-1130041,0,0,1140020,0,0,0,0,0,0,0,3040191,0,0,0,0,0,0,0,0,0,1201021,0,0,0
14,166,874.642819864675,1,0,675363.993651904,675365.040718567,0,50,7,0,1,8,7,7271142,2221111,2200170,5211291,2061101,0,0,0,0,0,0,-4120020,1090021,0,0,0,1150100,0,0,1071011,0,0,0,0,0,0,2200170,0,0,0,0,2201191,0,0,0,0,0,0,0,3010100
14,167,716.489084297791,0,0,675366.993687321,675368.040758219,0,50,7,0,0,1,3,6111291,0,8071282,0,-4090180,0,0,0,0,0,2021111,0,0,0,0,0,0,0,0,0,0,0,0,0,4050201,0,0,0,0,4021081,0,0,0,0,0,0,0,0,0,0
14,168,480.976375984028,0,0,675369.923143723,675370.970201147,0,50,7,0,0,4,3,6170211,2141111,0,4180091,0,0,0,-4090071,0,0,0,2080140,0,0,0,0,2141111,0,0,0,0,0,0,0,0,0,0,0,0,0,0,0,4180091,0,0,0,0,0,0,0
14,169,787.181277642958,0,0,675387.19398174,675388.241053793,0,50,8,1,0,32,3,0,4070120,7211252,4200161,0,0,0,0,0,0,0,0,0,0,0,0,4070120,0,0,0,0,0,4020171,0,0,0,0,0,0,0,3191081,0,0,0,0,-4200161,0,0,0,0
14,170,578.398051555268,1,0,675390.15872611,675391.205812021,0,50,8,0,1,17,7,6342192,2130031,6300561,5230301,0,2171051,0,4171141,0,0,0,0,0,0,0,0,0,0,0,0,-2130031,0,0,0,2040191,0,0,3110170,0,0,1150200,0,0,0,0,3100110,0,0,2130191,0
14,171,992.906747036614,1,0,675392.994070358,675394.041141256,0,50,8,1,1,19,7,2181090,2190100,12402363,3212182,0,0,0,0,0,0,0,0,2181090,0,2190100,0,0,0,0,0,0,0,-4121010,4040111,0,0,3091201,0,1150041,0,0,0,0,0,2041161,1171021,0,0,0,0
14,172,750.753821455874,1,0,675396.147054818,675397.194168062,0,50,8,0,1,24,3,0,2051070,4011120,7141170,0,0,0,0,0,0,0,0,0,2051070,0,0,0,0,0,0,0,0,0,0,0,0,0,-4011120,0,0,0,0,0,0,0,0,0,3051130,0,4090040
14,173,582.641877583228,0,0,675398.982381744,675400.029464575,0,50,8,1,0,2,3,5341160,4120070,3011110,0,0,-4171010,0,0,0,1170150,0,0,0,0,0,0,0,0,0,4120070,0,0,0,0,0,3011110,0,0,0,0,0,0,0,0,0,0,0,0,0,0
14,174,390.669961343519,0,1,675401.794256757,675402.841257592,0,50,8,1,1,20,7,6211250,4342132,8310313,3110100,0,0,3080050,0,0,0,0,0,3131200,0,0,0,0,0,0,2161021,2181111,0,0,-2170201,4050041,0,0,2090071,0,0,0,0,0,0,0,0,0,3110100,0,0
14,175,470.587779534981,1,0,675404.288351048,675405.335418482,0,50,8,0,1,8,3,1111180,1051201,0,6340090,0,0,0,0,0,0,0,-1111180,0,0,0,1051201,0,0,0,0,0,0,0,0,0,0,0,0,0,0,0,0,4150060,0,0,0,0,0,2190030,0
14,176,647.120392066427,0,0,675406.970749334,675408.017821771,0,50,8,1,0,30,3,1141140,4181221,0,4150181,0,0,0,0,1141140,0,0,0,0,0,0,0,0,0,3100121,0,0,1081100,0,0,0,0,0,0,0,0,0,0,0,-4150181,0,0,0,0,0,0
14,177,545.161164132878,1,0,675409.817845331,675410.864916999,0,50,8,0,1,28,3,3170070,0,6281221,3131011,3170070,0,0,0,0,0,0,0,0,0,0,0,0,0,0,0,0,0,0,0,0,2091030,0,0,4190191,0,0,-3131011,0,0,0,0,0,0,0,0
14,178,504.870994831435,1,0,675412.512011533,675413.559066262,0,50,8,1,1,3,7,8172372,11272142,3111070,2120110,0,0,-2040031,3071170,0,0,0,0,3061171,4061021,0,0,0,0,0,3200041,0,4011080,0,0,0,0,0,0,0,3111070,0,0,2120110,0,0,0,0,0,0,0
14,179,394.480319577269,0,0,675415.147340845,675416.194407124,0,50,8,1,0,14,3,0,4010190,1061061,6092242,0,0,0,0,0,0,0,0,0,0,0,0,0,-4010190,0,0,0,0,0,1061061,0,0,0,0,0,0,0,0,0,2071051,0,0,0,0,4021191,0
14,180,1075.46117308084,1,0,675417.653255793,675418.700327846,0,50,8,1,1,36,7,1090121,4261052,7421151,3161241,0,0,0,0,0,0,0,0,1090121,0,0,0,0,1191031,0,3070021,0,0,0,0,2070050,0,0,3181051,0,2170050,0,0,2061150,0,0,0,0,0,0,-1100091
14,181,374.845695099793,1,0,675420.876840055,675421.923904794,0,50,8,1,1,10,3,0,4321381,0,5260230,0,0,0,0,0,0,0,0,0,-1131181,0,3190200,0,0,0,0,0,0,0,0,0,0,0,0,0,0,0,0,0,0,0,3080170,0,0,2180060,0
14,182,389.27909207996,0,0,675423.500402221,675424.547473503,0,50,8,0,0,16,7,0,7260082,12312564,3141070,0,0,0,0,0,0,0,0,0,0,0,0,0,2190021,0,-4020050,1050011,0,0,2030121,2050191,4161161,0,4071091,0,0,0,0,0,0,0,0,3141070,0,0,0
14,183,406.051905709319,1,0,675426.135736923,675427.182802431,0,50,8,1,1,15,7,1161170,7391241,1180201,7272461,0,1161170,0,0,0,0,0,0,0,0,1190080,0,0,4090100,-2111061,0,0,0,0,0,0,0,0,0,0,1180201,0,3050150,0,1131190,3091121,0,0,0,0,0
14,184,609.374824445695,0,0,675428.606366213,675429.653432106,0,50,8,0,0,34,7,0,8350213,8342363,5230281,0,0,0,0,0,0,0,0,0,0,1110041,3190091,4050081,0,0,0,0,0,3100161,0,0,4091111,1151091,0,0,0,0,0,0,0,0,0,0,-2110110,3120171,0
14,185,333.199303131551,0,0,675431.39463148,675432.441710462,0,50,8,0,0,9,3,8241251,1171081,3200081,0,0,0,0,0,0,0,0,4060171,-4181080,0,0,0,1171081,0,0,0,0,0,3200081,0,0,0,0,0,0,0,0,0,0,0,0,0,0,0,0,0
14,186,899.616488488391,1,0,675433.829969338,675434.877063334,0,50,8,1,1,12,3,0,2270061,3040191,1201021,0,0,0,0,0,0,0,0,0,0,0,-1130041,0,0,1140020,0,0,0,0,0,0,0,3040191,0,0,0,0,0,0,0,0,0,1201021,0,0,0
14,187,429.818716947921,0,0,675436.782948485,675437.830025928,0,50,8,0,0,4,3,1170060,0,4131041,3201202,0,0,0,-1170060,0,0,0,0,0,0,0,0,0,0,0,0,0,0,0,0,0,0,0,0,4131041,0,0,0,0,0,0,1011061,2190141,0,0,0
14,188,950.31065272633,0,0,675439.312407351,675440.359479789,0,50,8,1,0,7,7,5211240,6322470,3110071,5311180,1181190,0,0,0,0,0,-4030050,0,0,0,0,0,0,0,0,2141180,1080100,3101190,0,0,0,0,0,0,0,3110071,0,0,0,4191160,0,0,0,0,1120020,0
14,189,411.918348283507,0,0,675442.347741514,675443.394815492,0,50,8,0,0,22,7,2111031,4050160,6321312,8191391,0,0,0,0,0,0,0,2111031,0,0,0,0,0,4050160,0,0,0,0,0,0,0,-2090131,1161150,3070031,0,0,0,0,4130021,0,3050180,0,0,1011190,0,0
14,190,488.550512120128,0,0,675444.877189986,675445.924260114,0,50,8,0,0,33,7,5251181,8241140,0,9151363,0,0,3050111,1021060,0,1180010,0,0,0,0,4181100,0,0,0,0,0,0,4060040,0,0,0,0,0,0,0,0,0,0,2061111,0,0,0,-3020181,0,0,4070071
14,191,627.42224871181,1,0,675447.583112172,675448.630186919,0,50,8,0,1,25,7,6391240,6241201,6230351,6200151,0,2191170,0,0,4200070,0,0,0,0,0,0,0,0,0,3091101,3150100,0,0,3070200,0,0,0,0,0,-3160151,0,0,0,0,0,0,3180080,0,3020071,0,0
14,192,682.721718680114,0,0,675450.289027812,675451.33610487,0,50,8,0,0,1,3,6301201,0,0,3271061,-3130051,0,3171150,0,0,0,0,0,0,0,0,0,0,0,0,0,0,0,0,0,0,0,0,0,0,0,0,0,0,0,2191030,0,0,0,0,1080031
14,193,967.032651416957,1,0,675475.442352579,675476.489411928,0,50,9,0,1,25,7,10363320,1011020,4183201,3101060,2141030,0,0,0,0,0,0,4141150,4081140,1011020,0,0,0,0,0,0,0,0,0,0,0,0,0,0,-1101010,1021121,2061070,0,0,0,0,3101060,0,0,0,0
14,194,1070.0605349848,0,0,675478.595342043,675479.642407167,0,50,9,0,0,4,3,3191010,0,2100090,4241271,0,0,0,-3191010,0,0,0,0,0,0,0,0,0,0,0,0,0,0,0,2100090,0,0,0,0,0,0,0,3141140,0,0,0,0,0,0,1100131,0
14,195,550.999119528569,0,0,675481.795383157,675482.842449436,0,50,9,0,0,9,3,2021181,4191322,0,4011181,0,0,0,0,0,0,0,0,-2021181,0,0,0,2050161,0,0,0,2141161,0,0,0,0,0,0,0,0,0,0,0,0,0,0,0,0,4011181,0,0
14,196,911.486420431174,0,0,675484.418953792,675485.46602392,0,50,9,1,0,7,7,5211240,6322470,3110071,5311180,1181190,0,0,0,0,0,-4030050,0,0,0,0,0,0,0,0,2141180,1080100,3101190,0,0,0,0,0,0,0,3110071,0,0,0,4191160,0,0,0,0,1120020,0
14,197,702.414857456461,1,0,675487.571941716,675488.619010304,0,50,9,0,1,34,3,5312121,0,0,5202060,4131081,0,0,0,0,0,0,0,1181040,0,0,0,0,0,0,0,0,0,0,0,0,0,0,0,0,0,0,0,0,0,0,0,2071020,-3131040,0,0
14,198,513.652758090757,1,0,675490.489630972,675491.536724197,0,50,9,0,1,22,7,4181061,8492292,4373183,3011031,0,0,0,0,0,0,4181061,0,0,4190031,0,2111180,0,2191081,0,0,0,0,0,0,0,-1041081,0,2171091,1161011,0,0,0,0,0,0,3011031,0,0,0,0
14,199,434.775108355097,1,0,675493.101433304,675494.148562716,0,50,9,1,1,15,7,1161170,7391241,1180201,7272461,0,1161170,0,0,0,0,0,0,0,0,1190080,0,0,4090100,-2111061,0,0,0,0,0,0,0,0,0,0,1180201,0,3050150,0,1131190,3091121,0,0,0,0,0
14,200,640.862442553043,0,0,675495.654417995,675496.701547022,0,50,9,0,0,8,7,5070350,5252110,5172210,7231182,0,0,0,0,0,0,4010200,-1060150,0,0,0,2141030,0,0,0,0,0,3111080,0,0,0,0,0,0,3031110,0,2141100,0,0,3100021,0,0,0,0,0,4131161
14,201,793.124327785335,1,0,675498.419158207,675499.466232954,0,50,9,1,1,12,3,0,2270061,3040191,1201021,0,0,0,0,0,0,0,0,0,0,0,-1130041,0,0,1140020,0,0,0,0,0,0,0,3040191,0,0,0,0,0,0,0,0,0,1201021,0,0,0
14,202,1783.42712391168,0,0,675501.278031745,675502.325091479,0,50,9,0,0,1,7,5280262,2031080,9380272,3110080,-1020161,0,2060070,0,0,2200031,0,0,0,2031080,0,0,0,0,0,0,0,0,3160140,0,2100041,4120091,0,0,0,0,0,0,3110080,0,0,0,0,0,0,0
14,203,522.080355905928,1,0,675505.125142756,675506.172217118,0,50,9,1,1,3,7,8172372,11272142,3111070,2120110,0,0,-2040031,3071170,0,0,0,0,3061171,4061021,0,0,0,0,0,3200041,0,4011080,0,0,0,0,0,0,0,3111070,0,0,2120110,0,0,0,0,0,0,0
14,204,757.719716872089,0,0,675507.901663204,675508.948734101,0,50,9,1,0,36,7,1090121,4261052,7421151,3161241,0,0,0,0,0,0,0,0,1090121,0,0,0,0,1191031,0,3070021,0,0,0,0,2070050,0,0,3181051,0,2170050,0,0,2061150,0,0,0,0,0,0,-1100091
14,205,454.73887573462,1,0,675510.713472389,675511.760588712,0,50,9,1,1,20,7,6211250,4342132,8310313,3110100,0,0,3080050,0,0,0,0,0,3131200,0,0,0,0,0,0,2161021,2181111,0,0,-2170201,4050041,0,0,2090071,0,0,0,0,0,0,0,0,0,3110100,0,0
14,206,476.754107978195,1,0,675513.372318287,675514.419447314,0,50,9,0,1,28,3,0,0,4200160,5371293,0,0,0,0,0,0,0,0,0,0,0,0,0,0,0,0,0,0,0,0,0,4200160,0,0,0,0,0,-1081081,0,0,0,0,0,0,3130181,1160031
14,207,491.850025136955,1,0,675516.066482949,675517.113552307,0,50,9,1,1,32,3,0,4070120,7211252,4200161,0,0,0,0,0,0,0,0,0,0,0,0,4070120,0,0,0,0,0,4020171,0,0,0,0,0,0,0,3191081,0,0,0,0,-4200161,0,0,0,0
14,208,539.457175531425,0,0,675518.795925954,675519.842994542,0,50,9,1,0,2,3,5341160,4120070,3011110,0,0,-4171010,0,0,0,1170150,0,0,0,0,0,0,0,0,0,4120070,0,0,0,0,0,3011110,0,0,0,0,0,0,0,0,0,0,0,0,0,0
14,209,962.763802846894,0,0,675521.419512757,675522.466576341,0,50,9,1,0,19,7,2181090,2190100,12402363,3212182,0,0,0,0,0,0,0,0,2181090,0,2190100,0,0,0,0,0,0,0,-4121010,4040111,0,0,3091201,0,1150041,0,0,0,0,0,2041161,1171021,0,0,0,0
14,210,423.101507360116,1,0,675524.537181148,675525.584267829,0,50,9,1,1,10,3,0,4321381,0,5260230,0,0,0,0,0,0,0,0,0,-1131181,0,3190200,0,0,0,0,0,0,0,0,0,0,0,0,0,0,0,0,0,0,0,3080170,0,0,2180060,0
14,211,1433.11823008116,0,0,675527.090174308,675528.137240586,0,50,9,0,0,24,7,8162171,3120160,6200230,7172110,0,0,0,2081021,0,0,4041010,0,2040140,0,0,0,0,0,0,0,3120160,0,0,0,0,0,0,-3120050,0,0,3080180,0,0,0,0,0,4081060,0,0,3091050
14,212,574.893738492392,0,0,675530.737290785,675531.784353598,0,50,9,1,0,30,3,1141140,4181221,0,4150181,0,0,0,0,1141140,0,0,0,0,0,0,0,0,0,3100121,0,0,1081100,0,0,0,0,0,0,0,0,0,0,0,-4150181,0,0,0,0,0,0
14,213,487.041074316949,1,0,675533.396147847,675534.443221439,0,50,9,1,1,14,3,0,4010190,1061061,6092242,0,0,0,0,0,0,0,0,0,0,0,0,0,-4010190,0,0,0,0,0,1061061,0,0,0,0,0,0,0,0,0,2071051,0,0,0,0,4021191,0
14,214,434.106428641826,0,0,675535.96089314,675537.007964038,0,50,9,0,0,33,3,5250260,0,0,6252201,1110100,0,0,0,0,4140160,0,0,0,0,0,0,0,0,0,0,0,0,0,0,0,0,0,0,0,0,0,0,0,0,0,0,-2141100,0,4111101,0
14,215,355.137927806936,0,0,675538.502112224,675539.549178502,0,50,9,0,0,16,3,0,5071112,0,4151331,0,0,0,0,0,0,0,0,0,1011031,0,0,0,0,0,-4060081,0,0,0,0,0,0,0,0,0,0,0,0,0,0,0,1060200,0,3091131,0,0
14,216,480.91131739784,1,0,675541.05509268,675542.102152799,0,50,9,0,1,17,7,4192210,3050070,9400372,6101340,0,0,0,1111080,0,0,0,0,3081130,0,0,0,0,0,0,0,-3050070,0,0,4180200,0,3060151,2160021,0,0,0,0,0,0,0,4021190,0,0,0,2080150,0
14,217,422.109844046645,0,0,675558.772996051,675559.820070799,0,50,10,1,0,10,3,0,4321381,0,5260230,0,0,0,0,0,0,0,0,0,-1131181,0,3190200,0,0,0,0,0,0,0,0,0,0,0,0,0,0,0,0,0,0,0,3080170,0,0,2180060,0
14,218,744.776124716736,1,0,675561.420100595,675562.467172648,0,50,10,0,1,8,7,15542303,4161061,2011170,4031011,4181041,3100061,4180151,0,0,0,0,-4081050,0,0,3100011,1061050,0,0,0,0,0,0,2011170,0,0,0,0,0,0,0,0,0,0,0,0,4031011,0,0,0,0
14,219,504.832113627344,1,0,675564.420150255,675565.467267733,0,50,10,1,1,12,3,0,2270061,3040191,1201021,0,0,0,0,0,0,0,0,0,0,0,-1130041,0,0,1140020,0,0,0,0,0,0,0,3040191,0,0,0,0,0,0,0,0,0,1201021,0,0,0
14,220,608.415498048998,1,0,675567.008409439,675568.055483802,0,50,10,1,1,2,3,5341160,4120070,3011110,0,0,-4171010,0,0,0,1170150,0,0,0,0,0,0,0,0,0,4120070,0,0,0,0,0,3011110,0,0,0,0,0,0,0,0,0,0,0,0,0,0
14,221,556.738139712252,1,0,675569.67911526,675570.72611802,0,50,10,0,1,9,7,5140201,2191191,2061150,9464352,0,3120010,0,0,0,0,0,0,-2020191,0,0,0,0,0,2191191,0,0,0,0,0,0,2061150,0,0,0,0,0,2121070,1031011,0,0,4181161,2131110,0,0,0
14,222,478.561506606638,0,0,675572.408491667,675573.45556295,0,50,10,0,0,28,3,1111011,4131010,4070110,2050160,0,0,0,0,0,1111011,0,0,0,0,0,0,4131010,0,0,0,0,0,0,0,0,4070110,0,0,0,0,0,-2050160,0,0,0,0,0,0,0,0
14,223,924.525098409504,0,0,675575.067362588,675576.114424632,0,50,10,0,0,24,7,2201191,3161071,1041170,8423262,0,0,0,0,2201191,0,0,0,0,0,2070020,1091051,0,0,0,0,0,0,0,0,0,0,0,-1041170,0,0,0,0,0,0,0,2140111,0,1161060,4101041,1021050
14,224,669.356207596138,1,0,675578.208574896,675579.255651184,0,50,10,1,1,3,7,8172372,11272142,3111070,2120110,0,0,-2040031,3071170,0,0,0,0,3061171,4061021,0,0,0,0,0,3200041,0,4011080,0,0,0,0,0,0,0,3111070,0,0,2120110,0,0,0,0,0,0,0
14,225,652.527189464308,0,0,675581.079215197,675582.12627801,0,50,10,0,0,34,7,5100111,7180171,8171102,5121201,0,0,2080050,0,0,0,0,0,3020061,0,0,3120031,4060140,0,0,0,0,0,0,4051091,0,0,4120011,0,0,0,0,0,0,0,0,2011020,0,-3110181,0,0
14,226,558.522055740468,0,0,675583.926298105,675584.973376317,0,50,10,1,0,30,3,1141140,4181221,0,4150181,0,0,0,0,1141140,0,0,0,0,0,0,0,0,0,3100121,0,0,1081100,0,0,0,0,0,0,0,0,0,0,0,-4150181,0,0,0,0,0,0
14,227,701.328493421897,1,0,675586.620470467,675587.667539825,0,50,10,0,1,25,3,1110010,0,2271401,4011151,1110010,0,0,0,0,0,0,0,0,0,0,0,0,0,0,0,0,0,0,0,0,0,0,1151200,-1120201,0,0,0,0,0,0,4011151,0,0,0,0
14,228,455.728999106213,1,0,675589.549909161,675590.597025099,0,50,10,0,1,22,3,1050171,2130081,1161041,4061091,1050171,0,0,0,0,0,0,0,0,0,0,0,0,0,0,0,0,2130081,0,0,0,-1161041,0,0,0,0,0,4061091,0,0,0,0,0,0,0,0
14,229,623.83555364795,0,0,675592.244118864,675593.291155115,0,50,10,0,0,33,7,0,9433330,2201110,9662502,0,0,0,0,0,0,0,0,0,0,3131180,0,2151100,0,4151050,0,0,0,0,0,2201110,0,0,0,0,0,0,3180160,0,1081140,3200131,0,-2201071,0,0,0
14,230,810.932690510526,0,0,675595.114714893,675596.16179811,0,50,10,1,0,19,7,2181090,2190100,12402363,3212182,0,0,0,0,0,0,0,0,2181090,0,2190100,0,0,0,0,0,0,0,-4121010,4040111,0,0,3091201,0,1150041,0,0,0,0,0,2041161,1171021,0,0,0,0
14,231,684.155318886042,0,0,675598.067702125,675599.114762629,0,50,10,0,0,1,3,8342182,0,4171140,0,-3181121,0,0,0,4120030,1041031,0,0,0,0,0,0,0,0,0,0,0,0,0,0,0,0,0,0,0,4171140,0,0,0,0,0,0,0,0,0,0
14,232,804.527685279027,0,0,675600.844237201,675601.891279997,0,50,10,1,0,36,7,1090121,4261052,7421151,3161241,0,0,0,0,0,0,0,0,1090121,0,0,0,0,1191031,0,3070021,0,0,0,0,2070050,0,0,3181051,0,2170050,0,0,2061150,0,0,0,0,0,0,-1100091
14,233,877.401460777037,1,0,675603.844056109,675604.891322343,0,50,10,0,1,17,7,0,4122361,4110272,7401213,0,0,0,0,0,0,0,0,0,0,0,0,1051121,0,0,0,-2040080,1031160,0,0,2100151,0,0,0,2010121,0,0,1100041,0,0,0,0,2170131,4131041,0,0
14,234,625.89856737759,1,0,675606.962013381,675608.009026919,0,50,10,1,1,32,3,0,4070120,7211252,4200161,0,0,0,0,0,0,0,0,0,0,0,0,4070120,0,0,0,0,0,4020171,0,0,0,0,0,0,0,3191081,0,0,0,0,-4200161,0,0,0,0
14,235,714.580825529993,0,0,675609.703167714,675610.750233992,0,50,10,1,0,20,7,6211250,4342132,8310313,3110100,0,0,3080050,0,0,0,0,0,3131200,0,0,0,0,0,0,2161021,2181111,0,0,-2170201,4050041,0,0,2090071,0,0,0,0,0,0,0,0,0,3110100,0,0
14,236,462.868127622642,1,0,675612.467917165,675613.514983058,0,50,10,1,1,14,3,0,4010190,1061061,6092242,0,0,0,0,0,0,0,0,0,0,0,0,0,-4010190,0,0,0,0,0,1061061,0,0,0,0,0,0,0,0,0,2071051,0,0,0,0,4021191,0
14,237,585.528325871564,1,0,675615.056191363,675616.103260336,0,50,10,1,1,7,7,5211240,6322470,3110071,5311180,1181190,0,0,0,0,0,-4030050,0,0,0,0,0,0,0,0,2141180,1080100,3101190,0,0,0,0,0,0,0,3110071,0,0,0,4191160,0,0,0,0,1120020,0
14,238,373.83593863342,0,0,675617.726835205,675618.773939979,0,50,10,0,0,16,3,2010100,4050200,3081111,4071010,0,0,0,2010100,0,0,0,0,0,0,0,0,0,0,0,-4050200,0,0,0,0,0,0,0,0,0,3081111,0,0,0,4071010,0,0,0,0,0,0
14,239,574.543422553688,1,0,675620.162148041,675621.209214704,0,50,10,0,1,4,3,3111111,3040191,2170160,3111180,0,0,0,-3111111,0,0,0,0,0,0,0,3040191,0,0,0,0,0,0,0,2170160,0,0,0,0,0,0,0,0,0,0,0,3111180,0,0,0,0
14,240,425.333134597167,0,0,675622.950418312,675623.99749075,0,50,10,1,0,15,7,1161170,7391241,1180201,7272461,0,1161170,0,0,0,0,0,0,0,0,1190080,0,0,4090100,-2111061,0,0,0,0,0,0,0,0,0,0,1180201,0,3050150,0,1131190,3091121,0,0,0,0,0
14,241,746.006464702077,1,0,675637.562402732,675638.609460541,0,50,11,1,1,12,3,0,2270061,3040191,1201021,0,0,0,0,0,0,0,0,0,0,0,-1130041,0,0,1140020,0,0,0,0,0,0,0,3040191,0,0,0,0,0,0,0,0,0,1201021,0,0,0
14,242,396.205721190199,0,0,675640.562451622,675641.609508661,0,50,11,0,0,9,3,3101150,2080151,1110140,1161171,0,0,0,0,0,0,0,0,-3101150,0,2080151,0,0,0,0,0,0,0,0,0,0,0,0,0,0,0,1110140,0,1161171,0,0,0,0,0,0,0
14,243,1005.51388214808,1,0,675643.15072197,675644.198142029,0,50,11,1,1,19,7,2181090,2190100,12402363,3212182,0,0,0,0,0,0,0,0,2181090,0,2190100,0,0,0,0,0,0,0,-4121010,4040111,0,0,3091201,0,1150041,0,0,0,0,0,2041161,1171021,0,0,0,0
14,244,748.762795701623,1,0,675646.409650789,675647.456660863,0,50,11,0,1,34,3,6302211,4101131,0,1161020,0,0,2171091,0,4131120,0,0,0,0,0,0,0,4101131,0,0,0,0,0,0,0,0,0,0,0,0,0,0,0,0,0,0,0,0,-1161020,0,0
14,245,1034.53004127368,0,0,675649.397869014,675650.444941836,0,50,11,0,0,24,7,4300261,8461401,5311260,2051111,0,3190081,0,0,0,1110180,0,0,0,0,1091190,0,0,0,4190121,3180090,0,0,0,0,0,0,0,-2181090,0,0,3130170,0,0,0,0,0,0,0,0,2051111
14,246,869.732623919845,0,0,675652.668507235,675653.715627793,0,50,11,0,0,25,7,5242241,0,12552542,7230182,0,0,0,0,0,0,0,3161180,2081061,0,0,0,0,0,0,0,0,0,0,0,0,0,2201190,4101071,-3120160,3130121,0,0,0,3190101,0,0,0,0,4040081,0
14,247,503.445093985647,1,0,675655.797964716,675656.845032919,0,50,11,0,1,22,7,3041130,6281252,3150190,8382341,0,0,0,0,0,3041130,0,0,0,1061111,0,4110070,1110071,0,0,0,0,0,0,0,0,-3150190,0,0,0,0,0,4201071,0,0,0,1071180,0,0,3110090,0
14,248,576.29500166513,1,0,675658.539176023,675659.586240376,0,50,11,1,1,20,7,6211250,4342132,8310313,3110100,0,0,3080050,0,0,0,0,0,3131200,0,0,0,0,0,0,2161021,2181111,0,0,-2170201,4050041,0,0,2090071,0,0,0,0,0,0,0,0,0,3110100,0,0
14,249,465.294545865618,0,0,675661.245108987,675662.292172571,0,50,11,1,0,14,3,0,4010190,1061061,6092242,0,0,0,0,0,0,0,0,0,0,0,0,0,-4010190,0,0,0,0,0,1061061,0,0,0,0,0,0,0,0,0,2071051,0,0,0,0,4021191,0
14,250,587.609817855991,1,0,675663.868719273,675664.915757449,0,50,11,0,1,4,3,4160140,0,3140061,3340191,0,0,0,-4160140,0,0,0,0,0,0,0,0,0,0,0,0,0,0,0,0,0,0,0,0,0,0,3140061,2200030,0,0,0,1140161,0,0,0,0
14,251,988.541273050942,0,0,675666.609892084,675667.656971451,0,50,11,1,0,36,7,1090121,4261052,7421151,3161241,0,0,0,0,0,0,0,0,1090121,0,0,0,0,1191031,0,3070021,0,0,0,0,2070050,0,0,3181051,0,2170050,0,0,2061150,0,0,0,0,0,0,-1100091
14,252,762.542526354082,0,0,675669.715808726,675670.762877699,0,50,11,1,0,7,7,5211240,6322470,3110071,5311180,1181190,0,0,0,0,0,-4030050,0,0,0,0,0,0,0,0,2141180,1080100,3101190,0,0,0,0,0,0,0,3110071,0,0,0,4191160,0,0,0,0,1120020,0
14,253,463.453270611353,1,0,675672.704098553,675673.751171761,0,50,11,1,1,15,7,1161170,7391241,1180201,7272461,0,1161170,0,0,0,0,0,0,0,0,1190080,0,0,4090100,-2111061,0,0,0,0,0,0,0,0,0,0,1180201,0,3050150,0,1131190,3091121,0,0,0,0,0
14,254,495.572227053344,0,0,675675.280614073,675676.327674577,0,50,11,1,0,3,7,8172372,11272142,3111070,2120110,0,0,-2040031,3071170,0,0,0,0,3061171,4061021,0,0,0,0,0,3200041,0,4011080,0,0,0,0,0,0,0,3111070,0,0,2120110,0,0,0,0,0,0,0
14,255,465.87699407246,1,0,675677.93947075,675678.986570905,0,50,11,1,1,10,3,0,4321381,0,5260230,0,0,0,0,0,0,0,0,0,-1131181,0,3190200,0,0,0,0,0,0,0,0,0,0,0,0,0,0,0,0,0,0,0,3080170,0,0,2180060,0
14,256,603.795563685708,0,0,675680.633626943,675681.680697456,0,50,11,0,0,28,7,4180161,4101191,6302372,4172112,0,4180161,0,0,0,0,0,0,0,1081010,0,0,0,3020181,0,0,0,0,3050180,1181051,0,0,2071141,0,0,0,0,-1101101,3071011,0,0,0,0,0,0,0
14,257,621.580828679726,0,0,675683.48072833,675684.527803077,0,50,11,0,0,8,3,5231131,6281270,0,0,0,0,0,0,0,0,1040061,-4191070,0,2150100,4131170,0,0,0,0,0,0,0,0,0,0,0,0,0,0,0,0,0,0,0,0,0,0,0,0,0
14,258,532.159827533178,0,0,675686.21017788,675687.257245698,0,50,11,1,0,30,3,1141140,4181221,0,4150181,0,0,0,0,1141140,0,0,0,0,0,0,0,0,0,3100121,0,0,1081100,0,0,0,0,0,0,0,0,0,0,0,-4150181,0,0,0,0,0,0
14,259,521.184933255427,1,0,675688.963162494,675690.010231082,0,50,11,1,1,2,3,5341160,4120070,3011110,0,0,-4171010,0,0,0,1170150,0,0,0,0,0,0,0,0,0,4120070,0,0,0,0,0,3011110,0,0,0,0,0,0,0,0,0,0,0,0,0,0
14,260,569.371452205814,0,0,675691.586728124,675692.633789782,0,50,11,0,0,33,3,0,3041031,2091010,3232141,0,0,0,0,0,0,0,0,0,0,0,0,0,0,0,3041031,0,0,0,2091010,0,0,0,0,0,0,0,0,0,0,0,0,-2131011,1101130,0,0
14,261,571.118411724456,0,0,675694.327950595,675695.375018798,0,50,11,0,0,16,3,0,11412232,0,1060051,0,0,0,0,0,0,0,0,0,3091081,0,0,0,4171121,0,-4150030,0,0,0,0,0,0,0,0,0,0,0,0,0,0,0,0,1060051,0,0,0
14,262,1614.73504151218,1,0,675697.104458339,675698.151534241,0,50,11,0,1,1,7,1101201,10393271,4170171,8120181,-1101201,0,0,0,0,0,0,0,0,1010051,3121170,0,0,0,4131020,0,2131030,0,0,4170171,0,0,0,0,0,0,0,0,0,4050130,0,0,0,4070051,0,0
14,263,439.211415592581,0,0,675700.9280416,675701.975114423,0,50,11,0,0,17,7,0,7351271,12383352,4191170,0,0,0,0,0,0,0,0,0,0,0,2190010,0,0,0,0,-2151100,3010161,0,0,3021090,2080141,0,3161051,0,4121070,0,0,0,0,4191170,0,0,0,0,0
14,264,754.325118148699,1,0,675703.492788049,675704.539856252,0,50,11,1,1,32,3,0,4070120,7211252,4200161,0,0,0,0,0,0,0,0,0,0,0,0,4070120,0,0,0,0,0,4020171,0,0,0,0,0,0,0,3191081,0,0,0,0,-4200161,0,0,0,0
14,265,437.898693606257,1,0,675719.245971688,675720.293058369,0,50,12,0,1,16,7,5121181,8350363,4180050,6321321,1070150,0,0,0,0,0,0,4051031,0,0,3160121,0,1100101,0,0,-4090141,0,0,0,0,4180050,0,0,0,0,0,0,0,2131130,0,4190191,0,0,0,0,0
14,266,567.797725670971,1,0,675721.940124801,675722.98719185,0,50,12,0,1,9,7,2201112,3191092,8162130,7171150,0,0,1120051,0,0,0,0,0,-1081061,0,0,0,2121061,0,0,0,1070031,0,0,0,0,4121040,0,0,4041090,0,0,0,0,0,0,4111010,0,0,3060140,0
14,267,1037.48039354105,1,0,675724.728383909,675725.775464816,0,50,12,0,1,24,7,8310401,2091121,2191080,9252143,0,0,0,0,3060101,4150150,0,1100150,0,0,0,0,0,0,2091121,0,0,0,0,0,0,0,0,-2191080,0,0,0,0,3061011,0,0,4140021,0,2051111,0,0
14,268,625.947842607275,1,0,675727.904918061,675728.951983184,0,50,12,0,1,17,3,2111161,9292190,0,0,0,0,0,0,2111161,0,0,0,0,2101120,3080040,0,0,0,0,0,-4111030,0,0,0,0,0,0,0,0,0,0,0,0,0,0,0,0,0,0,0
14,269,377.127752522938,1,0,675730.704952015,675731.752021758,0,50,12,1,1,15,7,1161170,7391241,1180201,7272461,0,1161170,0,0,0,0,0,0,0,0,1190080,0,0,4090100,-2111061,0,0,0,0,0,0,0,0,0,0,1180201,0,3050150,0,1131190,3091121,0,0,0,0,0
14,270,527.077938313596,1,0,675733.210874662,675734.25794325,0,50,12,1,1,2,3,5341160,4120070,3011110,0,0,-4171010,0,0,0,1170150,0,0,0,0,0,0,0,0,0,4120070,0,0,0,0,0,3011110,0,0,0,0,0,0,0,0,0,0,0,0,0,0
14,271,905.406323610805,0,0,675735.88129739,675736.928580163,0,50,12,1,0,19,7,2181090,2190100,12402363,3212182,0,0,0,0,0,0,0,0,2181090,0,2190100,0,0,0,0,0,0,0,-4121010,4040111,0,0,3091201,0,1150041,0,0,0,0,0,2041161,1171021,0,0,0,0
14,272,957.979104598053,0,0,675738.869576519,675739.916853052,0,50,12,1,0,36,7,1090121,4261052,7421151,3161241,0,0,0,0,0,0,0,0,1090121,0,0,0,0,1191031,0,3070021,0,0,0,0,2070050,0,0,3181051,0,2170050,0,0,2061150,0,0,0,0,0,0,-1100091
14,273,560.418380540796,1,0,675741.893368033,675742.940423532,0,50,12,0,1,8,7,7091221,4181111,0,14512612,0,0,0,0,0,0,0,-4041041,3050180,0,0,0,0,0,0,0,0,4181111,0,0,0,0,0,0,0,0,0,0,2150191,0,0,4100160,0,2071091,4010040,2181130
14,274,360.881567467004,0,0,675744.669874622,675745.716935126,0,50,12,0,0,28,3,2101140,0,1201030,5212202,0,0,0,0,2101140,0,0,0,0,0,0,0,0,0,0,0,0,0,0,0,0,0,0,0,0,1201030,0,-4151161,0,0,0,0,0,1061041,0,0
14,275,355.686884257011,0,0,675747.19931578,675748.246388602,0,50,12,0,0,22,3,2181180,3201030,2131182,0,0,0,0,0,0,2181180,0,0,0,0,0,0,0,0,0,0,0,3201030,1021121,0,0,-1110061,0,0,0,0,0,0,0,0,0,0,0,0,0,0
14,276,573.632216430269,1,0,675749.611128198,675750.658194477,0,50,12,1,1,3,7,8172372,11272142,3111070,2120110,0,0,-2040031,3071170,0,0,0,0,3061171,4061021,0,0,0,0,0,3200041,0,4011080,0,0,0,0,0,0,0,3111070,0,0,2120110,0,0,0,0,0,0,0
14,277,710.73967020493,0,0,675752.317040759,675753.364107808,0,50,12,1,0,7,7,5211240,6322470,3110071,5311180,1181190,0,0,0,0,0,-4030050,0,0,0,0,0,0,0,0,2141180,1080100,3101190,0,0,0,0,0,0,0,3110071,0,0,0,4191160,0,0,0,0,1120020,0
14,278,1052.02196480241,0,0,675755.23472886,675756.281801297,0,50,12,0,0,4,3,8320343,0,3170180,0,1170101,0,0,-3110171,0,4040071,0,0,0,0,0,0,0,0,0,0,0,0,0,0,0,3170180,0,0,0,0,0,0,0,0,0,0,0,0,0,0
14,279,392.34570285771,0,0,675758.458306578,675759.505375165,0,50,12,1,0,10,3,0,4321381,0,5260230,0,0,0,0,0,0,0,0,0,-1131181,0,3190200,0,0,0,0,0,0,0,0,0,0,0,0,0,0,0,0,0,0,0,3080170,0,0,2180060,0
14,280,803.804340888746,0,0,675761.023102686,675762.070123924,0,50,12,0,0,1,7,10221421,4341220,8271363,0,-2120101,4050170,4051150,0,0,0,0,0,0,0,0,1181180,3160040,0,0,0,0,0,0,0,0,0,0,4200061,1020121,3051181,0,0,0,0,0,0,0,0,0,0
14,281,634.572541108355,0,0,675764.070167039,675765.117221384,0,50,12,0,0,25,3,3291171,2080081,1151080,0,0,0,0,2090111,0,0,0,1201060,0,0,2080081,0,0,0,0,0,0,0,0,0,0,0,0,0,-1151080,0,0,0,0,0,0,0,0,0,0,0
14,282,541.195665951818,0,0,675766.846670549,675767.893737212,0,50,12,0,0,33,3,2191141,0,1190021,6221101,0,0,2191141,0,0,0,0,0,0,0,0,0,0,0,0,0,0,0,0,0,0,0,1190021,0,0,0,0,0,0,0,0,0,-4180021,0,2041080,0
14,283,702.900680131279,1,0,675769.646703733,675770.69377771,0,50,12,1,1,20,7,6211250,4342132,8310313,3110100,0,0,3080050,0,0,0,0,0,3131200,0,0,0,0,0,0,2161021,2181111,0,0,-2170201,4050041,0,0,2090071,0,0,0,0,0,0,0,0,0,3110100,0,0
14,284,828.570899670012,1,0,675772.57616283,675773.623233342,0,50,12,1,1,12,3,0,2270061,3040191,1201021,0,0,0,0,0,0,0,0,0,0,0,-1130041,0,0,1140020,0,0,0,0,0,0,0,3040191,0,0,0,0,0,0,0,0,0,1201021,0,0,0
14,285,700.116631691344,0,0,675775.611503537,675776.658569815,0,50,12,1,0,32,3,0,4070120,7211252,4200161,0,0,0,0,0,0,0,0,0,0,0,0,4070120,0,0,0,0,0,4020171,0,0,0,0,0,0,0,3191081,0,0,0,0,-4200161,0,0,0,0
14,286,595.252477214672,0,0,675778.564484994,675779.611550502,0,50,12,1,0,30,3,1141140,4181221,0,4150181,0,0,0,0,1141140,0,0,0,0,0,0,0,0,0,3100121,0,0,1081100,0,0,0,0,0,0,0,0,0,0,0,-4150181,0,0,0,0,0,0
14,287,497.229105443694,1,0,675781.376292254,675782.423364691,0,50,12,1,1,14,3,0,4010190,1061061,6092242,0,0,0,0,0,0,0,0,0,0,0,0,0,-4010190,0,0,0,0,0,1061061,0,0,0,0,0,0,0,0,0,2071051,0,0,0,0,4021191,0
14,288,644.973071408458,1,0,675783.952840881,675784.999878672,0,50,12,0,1,34,7,3141021,9143501,0,12603313,0,0,0,0,0,3141021,0,0,0,0,1011171,0,0,0,4101140,4031190,0,0,0,0,0,0,0,0,0,0,0,4171030,2191061,0,0,4081111,0,-2160111,0,0
14,289,471.615629270673,0,0,675799.753037674,675800.800108571,0,50,13,0,0,17,3,0,6332302,1031200,1150090,0,0,0,0,0,0,0,0,0,0,0,0,0,0,3131171,0,-3201131,0,0,0,0,0,1031200,0,0,0,0,0,0,1150090,0,0,0,0,0,0
14,290,699.25200601574,0,0,675802.294254447,675803.341321881,0,50,13,0,0,1,7,7171161,5162381,5160180,3141381,-4111010,0,0,0,0,0,0,3060151,0,0,0,0,0,3131190,0,2031191,0,0,0,0,2040020,0,0,0,0,0,3120160,0,0,1041190,0,0,0,0,2100191,0
14,291,535.383888054639,1,0,675805.106055933,675806.153127601,0,50,13,0,1,8,7,7270180,6302341,3131110,4341171,0,0,0,0,3080040,0,0,-4190140,0,0,1141150,0,0,0,1031101,4130090,0,0,0,0,3131110,0,0,0,0,0,0,0,3190061,0,0,1151110,0,0,0,0
14,292,820.802357513458,1,0,675807.870812699,675808.917871662,0,50,13,1,1,32,3,0,4070120,7211252,4200161,0,0,0,0,0,0,0,0,0,0,0,0,4070120,0,0,0,0,0,4020171,0,0,0,0,0,0,0,3191081,0,0,0,0,-4200161,0,0,0,0
14,293,454.785071196966,1,0,675810.823782607,675811.870862359,0,50,13,1,1,2,3,5341160,4120070,3011110,0,0,-4171010,0,0,0,1170150,0,0,0,0,0,0,0,0,0,4120070,0,0,0,0,0,3011110,0,0,0,0,0,0,0,0,0,0,0,0,0,0
14,294,654.910876997747,1,0,675813.435595718,675814.482658532,0,50,13,1,1,30,3,1141140,4181221,0,4150181,0,0,0,0,1141140,0,0,0,0,0,0,0,0,0,3100121,0,0,1081100,0,0,0,0,0,0,0,0,0,0,0,-4150181,0,0,0,0,0,0
14,295,434.598025633022,1,0,675816.176813185,675817.223879463,0,50,13,1,1,14,3,0,4010190,1061061,6092242,0,0,0,0,0,0,0,0,0,0,0,0,0,-4010190,0,0,0,0,0,1061061,0,0,0,0,0,0,0,0,0,2071051,0,0,0,0,4021191,0
14,296,695.322694373317,0,0,675818.718021875,675819.765092003,0,50,13,0,0,4,7,8413402,4070050,2200040,3332241,1161180,0,0,-1091121,3010050,0,0,3151051,0,0,0,4070050,0,0,0,0,0,0,0,0,0,0,0,0,2200040,0,0,0,2151100,0,0,0,0,0,1181141,0
14,297,713.084476534277,1,0,675821.612175296,675822.659255433,0,50,13,1,1,12,3,0,2270061,3040191,1201021,0,0,0,0,0,0,0,0,0,0,0,-1130041,0,0,1140020,0,0,0,0,0,0,0,3040191,0,0,0,0,0,0,0,0,0,1201021,0,0,0
14,298,440.380161511712,1,0,675824.529875715,675825.576951233,0,50,13,0,1,9,7,2211141,1050031,9091281,5332242,0,1051071,0,0,0,0,0,0,-1160070,0,0,0,0,0,0,0,0,1050031,4030131,4020100,0,0,0,1041050,0,0,0,0,0,1141121,0,0,0,0,4191121,0
14,299,419.802379095927,1,0,675827.047574364,675828.094681833,0,50,13,1,1,3,7,8172372,11272142,3111070,2120110,0,0,-2040031,3071170,0,0,0,0,3061171,4061021,0,0,0,0,0,3200041,0,4011080,0,0,0,0,0,0,0,3111070,0,0,2120110,0,0,0,0,0,0,0
14,300,976.60628228914,0,0,675829.635820459,675830.682889432,0,50,13,0,0,33,7,6342240,8242442,0,5221282,0,2110050,0,1031010,0,0,0,0,3201180,0,3031201,3100161,0,2111080,0,0,0,0,0,0,0,0,0,0,0,0,0,0,0,0,0,0,-3050181,0,2171101,0
14,301,535.093626356684,0,0,675832.765285639,675833.812355767,0,50,13,1,0,20,7,6211250,4342132,8310313,3110100,0,0,3080050,0,0,0,0,0,3131200,0,0,0,0,0,0,2161021,2181111,0,0,-2170201,4050041,0,0,2090071,0,0,0,0,0,0,0,0,0,3110100,0,0
14,302,422.975624562241,0,0,675835.518274102,675836.565339225,0,50,13,0,0,16,3,2121030,4070101,4130031,3011011,0,0,0,0,0,2121030,0,0,0,0,0,0,0,0,0,-4070101,0,0,4130031,0,0,0,0,0,0,0,0,0,0,0,3011011,0,0,0,0,0
14,303,1486.49866215419,0,0,675838.047722189,675839.094795012,0,50,13,0,0,24,7,4260342,5100242,6161120,5192101,0,1170181,0,0,0,0,3090161,0,0,0,0,4080151,0,1020091,0,0,0,0,0,4091060,0,0,0,-2070060,0,0,0,0,2161070,0,0,0,0,0,0,3031031
14,304,424.854241195135,0,0,675841.61248904,675842.659598435,0,50,13,0,0,22,3,5260231,0,2100110,1011121,0,0,1070180,0,4190051,0,0,0,0,0,0,0,0,0,0,0,0,0,0,0,0,-2100110,0,0,0,0,0,0,0,1011121,0,0,0,0,0,0
14,305,575.518532539718,1,0,675844.153679637,675845.200755154,0,50,13,1,1,10,3,0,4321381,0,5260230,0,0,0,0,0,0,0,0,0,-1131181,0,3190200,0,0,0,0,0,0,0,0,0,0,0,0,0,0,0,0,0,0,0,3080170,0,0,2180060,0
14,306,730.120219523087,0,0,675846.930197005,675847.977278297,0,50,13,1,0,36,7,1090121,4261052,7421151,3161241,0,0,0,0,0,0,0,0,1090121,0,0,0,0,1191031,0,3070021,0,0,0,0,2070050,0,0,3181051,0,2170050,0,0,2061150,0,0,0,0,0,0,-1100091
14,307,936.697225901298,1,0,675849.918476053,675850.96555927,0,50,13,0,1,25,3,0,2030011,2101110,5261131,0,0,0,0,0,0,0,0,0,0,0,0,0,0,0,0,2030011,0,0,0,0,0,0,0,-2101110,0,0,1191051,0,0,0,4070080,0,0,0,0
14,308,436.465093516745,0,0,675853.012681368,675854.059722238,0,50,13,1,0,15,7,1161170,7391241,1180201,7272461,0,1161170,0,0,0,0,0,0,0,0,1190080,0,0,4090100,-2111061,0,0,0,0,0,0,0,0,0,0,1180201,0,3050150,0,1131190,3091121,0,0,0,0,0
14,309,501.441364525817,0,0,675855.659752035,675856.706815618,0,50,13,0,0,34,3,0,2011040,4202190,1171111,0,0,0,0,0,0,0,0,0,0,0,2011040,0,0,0,0,0,0,0,0,1081040,0,0,3121150,0,0,0,0,0,0,0,0,0,-1171111,0,0
14,310,613.19981131237,1,0,675858.248026232,675859.295088276,0,50,13,1,1,7,7,5211240,6322470,3110071,5311180,1181190,0,0,0,0,0,-4030050,0,0,0,0,0,0,0,0,2141180,1080100,3101190,0,0,0,0,0,0,0,3110071,0,0,0,4191160,0,0,0,0,1120020,0
14,311,851.398787694052,0,0,675860.96570902,675862.012778763,0,50,13,1,0,19,7,2181090,2190100,12402363,3212182,0,0,0,0,0,0,0,0,2181090,0,2190100,0,0,0,0,0,0,0,-4121010,4040111,0,0,3091201,0,1150041,0,0,0,0,0,2041161,1171021,0,0,0,0
14,312,449.667380540632,0,0,675863.93045724,675864.977527752,0,50,13,0,0,28,3,6221172,1091080,0,1170151,0,0,4100081,2121091,0,0,0,0,0,0,0,0,1091080,0,0,0,0,0,0,0,0,0,0,0,0,0,0,-1170151,0,0,0,0,0,0,0,0
14,313,409.576236736029,0,0,675881.495417342,675882.54249055,0,50,14,0,0,17,7,8291391,5322262,0,7092202,2110070,0,3121130,0,0,0,0,0,3060191,1181051,0,2121030,0,0,0,0,-2020181,0,0,0,0,0,0,0,0,0,0,0,0,0,0,0,0,4021041,3071161,0
14,314,424.418848706409,0,0,675884.130750889,675885.177823327,0,50,14,0,0,8,3,2311190,4010110,0,2031020,0,0,1121070,0,0,0,0,-1190120,0,0,0,0,0,0,0,0,4010110,0,0,0,0,0,0,0,0,0,0,0,2031020,0,0,0,0,0,0,0
14,315,416.767720133066,0,0,675886.801388956,675887.84845562,0,50,14,0,0,9,7,4190110,2041031,8311341,12433282,0,0,0,0,0,0,0,0,-4190110,0,0,2041031,0,0,0,0,0,0,3100170,0,3200040,0,0,0,0,2011131,0,0,0,4141120,4141121,0,0,0,4151041,0
14,316,588.096795254387,1,0,675889.28377115,675890.330845513,0,50,14,1,1,3,7,8172372,11272142,3111070,2120110,0,0,-2040031,3071170,0,0,0,0,3061171,4061021,0,0,0,0,0,3200041,0,4011080,0,0,0,0,0,0,0,3111070,0,0,2120110,0,0,0,0,0,0,0
14,317,759.388144128025,0,1,675892.048524451,675893.09557995,0,50,14,1,1,19,7,2181090,2190100,12402363,3212182,0,0,0,0,0,0,0,0,2181090,0,2190100,0,0,0,0,0,0,0,-4121010,4040111,0,0,3091201,0,1150041,0,0,0,0,0,2041161,1171021,0,0,0,0
14,318,518.422442721203,0,0,675894.895624683,675895.942694811,0,50,14,1,0,30,3,1141140,4181221,0,4150181,0,0,0,0,1141140,0,0,0,0,0,0,0,0,0,3100121,0,0,1081100,0,0,0,0,0,0,0,0,0,0,0,-4150181,0,0,0,0,0,0
14,319,409.045373555273,0,0,675897.589780491,675898.636848309,0,50,14,1,0,10,3,0,4321381,0,5260230,0,0,0,0,0,0,0,0,0,-1131181,0,3190200,0,0,0,0,0,0,0,0,0,0,0,0,0,0,0,0,0,0,0,3080170,0,0,2180060,0
14,320,835.999134927988,0,0,675900.083939071,675901.130997265,0,50,14,1,0,12,3,0,2270061,3040191,1201021,0,0,0,0,0,0,0,0,0,0,0,-1130041,0,0,1140020,0,0,0,0,0,0,0,3040191,0,0,0,0,0,0,0,0,0,1201021,0,0,0
14,321,776.271442067809,0,0,675903.107506087,675904.154579679,0,50,14,1,0,36,7,1090121,4261052,7421151,3161241,0,0,0,0,0,0,0,0,1090121,0,0,0,0,1191031,0,3070021,0,0,0,0,2070050,0,0,3181051,0,2170050,0,0,2061150,0,0,0,0,0,0,-1100091
14,322,686.764209298417,1,0,675906.131087731,675907.178208289,0,50,14,0,1,33,3,4101070,3030091,2031180,4040171,0,0,0,0,0,0,0,4101070,0,0,3030091,0,0,0,0,0,0,0,0,0,0,0,0,0,2031180,0,0,0,0,0,0,0,-4040171,0,0,0
14,323,482.078908476979,1,0,675908.989947411,675910.037017923,0,50,14,0,1,28,3,0,3201201,4101110,5312191,0,0,0,0,0,0,0,0,0,0,0,0,0,0,0,0,0,3201201,0,0,0,0,0,0,4101110,0,0,-2181021,0,0,0,0,0,0,3131170,0
14,324,392.403447185643,0,0,675911.566456001,675912.613530749,0,50,14,0,0,22,3,1131101,0,3162221,4120140,0,1131101,0,0,0,0,0,0,0,0,0,0,0,0,0,0,0,0,0,0,0,-1051200,0,0,0,0,2111021,0,0,0,0,0,0,0,0,4120140
14,325,650.279393885285,0,0,675914.154729815,675915.201794168,0,50,14,1,0,20,7,6211250,4342132,8310313,3110100,0,0,3080050,0,0,0,0,0,3131200,0,0,0,0,0,0,2161021,2181111,0,0,-2170201,4050041,0,0,2090071,0,0,0,0,0,0,0,0,0,3110100,0,0
14,326,649.760849424638,1,0,675917.04889594,675918.096013803,0,50,14,0,1,34,7,4100010,1101050,6181432,11441422,0,0,0,0,0,0,0,4100010,0,0,0,1101050,0,0,0,0,0,0,0,0,2060160,0,0,0,2110141,2011131,0,0,3181170,0,0,0,0,-4090101,0,4170151
14,327,573.462448082864,1,0,675919.872458413,675920.919537395,0,50,14,1,1,32,3,0,4070120,7211252,4200161,0,0,0,0,0,0,0,0,0,0,0,0,4070120,0,0,0,0,0,4020171,0,0,0,0,0,0,0,3191081,0,0,0,0,-4200161,0,0,0,0
14,328,542.891040677205,1,0,675922.601906423,675923.648990024,0,50,14,1,1,2,3,5341160,4120070,3011110,0,0,-4171010,0,0,0,1170150,0,0,0,0,0,0,0,0,0,4120070,0,0,0,0,0,3011110,0,0,0,0,0,0,0,0,0,0,0,0,0,0
14,329,1449.37981350813,1,0,675925.331373296,675926.378436495,0,50,14,0,1,4,7,5263310,6200172,6371232,0,0,2121170,0,-1101080,0,0,0,0,2041060,0,0,0,0,0,4060021,0,2140151,0,0,1170071,0,0,0,2120031,0,3081130,0,0,0,0,0,0,0,0,0,0
14,330,689.032023074105,1,0,675928.966713387,675930.0137839,0,50,14,0,1,1,3,4330270,0,0,4110190,-3150070,0,0,0,0,0,1180200,0,0,0,0,0,0,0,0,0,0,0,0,0,0,0,0,0,0,0,0,0,2020060,0,0,0,0,0,2090130,0
14,331,764.498520642519,0,0,675931.837350608,675932.884415731,0,50,14,0,0,25,7,4361251,4010121,8372221,5141331,0,0,1180180,0,0,0,0,3181071,0,0,0,0,0,4010121,0,0,0,0,0,0,0,4101101,0,1100030,-3171090,0,0,2081181,0,0,0,0,0,0,0,3060150
14,332,488.883504527621,1,0,675934.719739192,675935.76680855,0,50,14,1,1,14,3,0,4010190,1061061,6092242,0,0,0,0,0,0,0,0,0,0,0,0,0,-4010190,0,0,0,0,0,1061061,0,0,0,0,0,0,0,0,0,2071051,0,0,0,0,4021191,0
14,333,434.11181808915,0,0,675937.28448641,675938.331560773,0,50,14,1,0,15,7,1161170,7391241,1180201,7272461,0,1161170,0,0,0,0,0,0,0,0,1190080,0,0,4090100,-2111061,0,0,0,0,0,0,0,0,0,0,1180201,0,3050150,0,1131190,3091121,0,0,0,0,0
14,334,1043.65480609704,1,0,675939.966873147,675941.013954823,0,50,14,0,1,24,7,9302322,10252493,4192252,0,0,0,0,0,4051150,2160041,0,0,3091131,0,0,0,2150201,0,0,4061101,4041191,0,0,0,0,0,0,-2031191,2161061,0,0,0,0,0,0,0,0,0,0,0
14,335,413.308062707074,1,0,675943.096324083,675944.143398445,0,50,14,0,1,16,3,2050030,5161151,0,1161140,0,0,2050030,0,0,0,0,0,0,0,0,0,0,2111011,0,-3050140,0,0,0,0,0,0,0,0,0,0,0,0,1161140,0,0,0,0,0,0,0
14,336,740.147336269729,1,0,675945.743426316,675946.790509148,0,50,14,1,1,7,7,5211240,6322470,3110071,5311180,1181190,0,0,0,0,0,-4030050,0,0,0,0,0,0,0,0,2141180,1080100,3101190,0,0,0,0,0,0,0,3110071,0,0,0,4191160,0,0,0,0,1120020,0
14,337,612.125381128863,0,0,675959.449522505,675960.496585703,0,50,15,0,0,25,7,0,5412161,7231091,7301221,0,0,0,0,0,0,0,0,0,0,3180071,1061070,0,0,0,0,0,1171020,0,0,3051011,0,0,0,-4180080,0,0,1140150,0,0,0,0,0,3031040,3130031,0
14,338,611.571805085987,1,0,675962.284886386,675963.331923792,0,50,15,1,1,30,3,1141140,4181221,0,4150181,0,0,0,0,1141140,0,0,0,0,0,0,0,0,0,3100121,0,0,1081100,0,0,0,0,0,0,0,0,0,0,0,-4150181,0,0,0,0,0,0
14,339,476.273289765231,1,0,675964.967252335,675966.014329777,0,50,15,1,1,14,3,0,4010190,1061061,6092242,0,0,0,0,0,0,0,0,0,0,0,0,0,-4010190,0,0,0,0,0,1061061,0,0,0,0,0,0,0,0,0,2071051,0,0,0,0,4021191,0
14,340,393.321582698263,1,0,675967.520225092,675968.567311773,0,50,15,1,1,2,3,5341160,4120070,3011110,0,0,-4171010,0,0,0,1170150,0,0,0,0,0,0,0,0,0,4120070,0,0,0,0,0,3011110,0,0,0,0,0,0,0,0,0,0,0,0,0,0
14,341,614.753134665079,0,0,675970.04971514,675971.096752931,0,50,15,1,0,12,3,0,2270061,3040191,1201021,0,0,0,0,0,0,0,0,0,0,0,-1130041,0,0,1140020,0,0,0,0,0,0,0,3040191,0,0,0,0,0,0,0,0,0,1201021,0,0,0
14,342,520.579387317412,1,0,675972.89678573,675973.943851623,0,50,15,1,1,20,7,6211250,4342132,8310313,3110100,0,0,3080050,0,0,0,0,0,3131200,0,0,0,0,0,0,2161021,2181111,0,0,-2170201,4050041,0,0,2090071,0,0,0,0,0,0,0,0,0,3110100,0,0
14,343,365.965381381102,0,0,675975.661522092,675976.70859222,0,50,15,1,0,10,3,0,4321381,0,5260230,0,0,0,0,0,0,0,0,0,-1131181,0,3190200,0,0,0,0,0,0,0,0,0,0,0,0,0,0,0,0,0,0,0,3080170,0,0,2180060,0
14,344,684.225382050499,0,0,675978.285089647,675979.332168244,0,50,15,1,0,7,7,5211240,6322470,3110071,5311180,1181190,0,0,0,0,0,-4030050,0,0,0,0,0,0,0,0,2141180,1080100,3101190,0,0,0,0,0,0,0,3110071,0,0,0,4191160,0,0,0,0,1120020,0
14,345,872.791535453871,0,0,675981.108659434,675982.155734182,0,50,15,0,0,24,3,0,4150140,4201181,4141091,0,0,0,0,0,0,0,0,0,4150140,0,0,0,0,0,0,0,0,0,0,0,0,0,-4201181,0,0,0,0,0,0,0,0,0,0,2041060,2100031
14,346,666.238011792302,0,0,675984.0851748,675985.132247238,0,50,15,1,0,32,3,0,4070120,7211252,4200161,0,0,0,0,0,0,0,0,0,0,0,0,4070120,0,0,0,0,0,4020171,0,0,0,0,0,0,0,3191081,0,0,0,0,-4200161,0,0,0,0
14,347,387.105979025364,0,0,675986.932277727,675987.979353629,0,50,15,1,0,15,7,1161170,7391241,1180201,7272461,0,1161170,0,0,0,0,0,0,0,0,1190080,0,0,4090100,-2111061,0,0,0,0,0,0,0,0,0,0,1180201,0,3050150,0,1131190,3091121,0,0,0,0,0
14,348,705.090346513316,0,0,675989.532396449,675990.579384965,0,50,15,0,0,28,7,0,12392493,3232321,3110172,0,0,0,0,0,0,0,0,0,3101141,0,1060100,4190131,4041121,0,0,0,0,0,1171161,0,0,2061160,0,0,0,0,-2100071,0,0,0,0,0,1010101,0,0
14,349,329.42628627643,0,0,675992.308832205,675993.355902718,0,50,15,0,0,16,7,9231301,7162290,4101141,1141200,3080151,4141090,0,0,0,2010060,0,0,0,0,0,4021200,0,0,0,-3141090,0,0,2011011,0,0,0,2090130,0,0,0,0,0,0,0,1141200,0,0,0,0,0
14,350,413.107497268356,0,1,675994.732392138,675995.779463036,0,50,15,0,1,8,3,7210161,2060090,3151180,0,0,0,0,4060111,0,0,0,-3150050,0,0,0,0,0,0,0,2060090,0,0,0,0,0,0,0,0,0,3151180,0,0,0,0,0,0,0,0,0,0
14,351,816.667475970462,1,0,675997.320658637,675998.367748397,0,50,15,0,1,4,3,2211140,3181120,4051161,0,0,0,0,-1020010,0,0,0,1191130,0,0,0,0,0,0,0,0,0,3181120,0,0,0,0,0,0,0,0,4051161,0,0,0,0,0,0,0,0,0
14,352,687.26235080976,1,0,676000.356012817,676001.403072936,0,50,15,1,1,36,7,1090121,4261052,7421151,3161241,0,0,0,0,0,0,0,0,1090121,0,0,0,0,1191031,0,3070021,0,0,0,0,2070050,0,0,3181051,0,2170050,0,0,2061150,0,0,0,0,0,0,-1100091
14,353,436.891246936284,0,0,676003.144285014,676004.191349367,0,50,15,0,0,22,7,0,11362480,4181141,4351231,0,0,0,0,0,0,0,0,0,3041160,4201080,0,0,2090090,0,0,0,2030150,0,0,0,-4181141,0,0,0,0,0,1170180,1051020,2130031,0,0,0,0,0,0
14,354,755.250567803159,1,0,676005.814909222,676006.861984355,0,50,15,1,1,3,7,8172372,11272142,3111070,2120110,0,0,-2040031,3071170,0,0,0,0,3061171,4061021,0,0,0,0,0,3200041,0,4011080,0,0,0,0,0,0,0,3111070,0,0,2120110,0,0,0,0,0,0,0
14,355,563.896901207045,1,0,676008.650244617,676009.697320904,0,50,15,0,1,9,3,4191310,3120090,0,1051111,1040170,0,0,0,0,0,0,0,-3151140,0,0,0,3120090,0,0,0,0,0,0,0,0,0,0,0,0,0,0,0,0,1051111,0,0,0,0,0,0
14,356,716.0294392379,0,0,676011.450278571,676012.497358708,0,50,15,0,0,33,3,4210272,0,4101020,3110041,0,0,0,0,0,0,0,2070101,2140171,0,0,0,0,0,0,0,0,0,0,0,0,0,0,0,0,0,4101020,0,0,0,0,0,-3110041,0,0,0
14,357,660.977500141598,1,0,676014.309153649,676015.356218772,0,50,15,0,1,34,7,10413513,0,3120100,6432411,2161121,0,1171081,0,4051161,0,0,0,3030150,0,0,0,0,0,0,0,0,0,0,0,0,0,0,0,0,3120100,0,0,0,0,2160120,0,3081120,-1191171,0,0
14,358,913.043208536692,1,0,676017.215078452,676018.26215089,0,50,15,1,1,19,7,2181090,2190100,12402363,3212182,0,0,0,0,0,0,0,0,2181090,0,2190100,0,0,0,0,0,0,0,-4121010,4040111,0,0,3091201,0,1150041,0,0,0,0,0,2041161,1171021,0,0,0,0
14,359,694.071181467734,0,0,676020.321000098,676021.368072151,0,50,15,0,0,1,3,2071070,4201011,0,5070221,-2071070,0,0,0,0,0,0,0,0,0,0,0,0,4201011,0,0,0,0,0,0,0,0,0,0,0,0,0,0,0,0,0,2010030,3060191,0,0,0
14,360,501.454068114981,0,0,676023.179875946,676024.226949154,0,50,15,0,0,17,7,5351211,2041131,5353431,2211152,0,0,0,0,0,0,4190180,1161031,0,0,0,0,0,0,0,0,-2041131,0,0,0,0,1151110,0,2081121,0,2121200,0,1081131,0,0,0,0,0,0,0,1130021
14,361,516.807140316814,1,0,676039.015416911,676040.062475105,0,50,16,0,1,16,7,5171141,10491551,2151041,4041041,0,0,0,0,0,0,4150020,1021121,0,2200081,0,0,0,4111150,0,-1090200,0,3090120,0,0,0,0,0,2151041,0,0,0,0,0,0,0,0,0,0,0,4041041
14,362,392.751068342477,0,0,676041.674275898,676042.721389526,0,50,16,1,0,10,3,0,4321381,0,5260230,0,0,0,0,0,0,0,0,0,-1131181,0,3190200,0,0,0,0,0,0,0,0,0,0,0,0,0,0,0,0,0,0,0,3080170,0,0,2180060,0
14,363,747.221791069023,0,0,676044.191948753,676045.239021191,0,50,16,1,0,7,7,5211240,6322470,3110071,5311180,1181190,0,0,0,0,0,-4030050,0,0,0,0,0,0,0,0,2141180,1080100,3101190,0,0,0,0,0,0,0,3110071,0,0,0,4191160,0,0,0,0,1120020,0
14,364,584.338792017661,1,0,676047.156698513,676048.20377018,0,50,16,1,1,30,3,1141140,4181221,0,4150181,0,0,0,0,1141140,0,0,0,0,0,0,0,0,0,3100121,0,0,1081100,0,0,0,0,0,0,0,0,0,0,0,-4150181,0,0,0,0,0,0
14,365,653.285950422287,0,0,676049.95674363,676051.003802209,0,50,16,1,0,2,3,5341160,4120070,3011110,0,0,-4171010,0,0,0,1170150,0,0,0,0,0,0,0,0,0,4120070,0,0,0,0,0,3011110,0,0,0,0,0,0,0,0,0,0,0,0,0,0
14,366,509.004336548969,0,0,676052.697952628,676053.745033534,0,50,16,1,0,12,3,0,2270061,3040191,1201021,0,0,0,0,0,0,0,0,0,0,0,-1130041,0,0,1140020,0,0,0,0,0,0,0,3040191,0,0,0,0,0,0,0,0,0,1201021,0,0,0
14,367,650.155820883811,0,0,676055.356826243,676056.403894446,0,50,16,0,0,33,3,0,4061011,0,4191492,0,0,0,0,0,0,0,0,0,0,4061011,0,0,0,0,0,0,0,0,0,0,0,0,0,0,0,0,0,2011191,0,0,1090160,-1090141,0,0,0
14,368,1104.48926617391,0,0,676058.12156915,676059.168641202,0,50,16,1,0,19,7,2181090,2190100,12402363,3212182,0,0,0,0,0,0,0,0,2181090,0,2190100,0,0,0,0,0,0,0,-4121010,4040111,0,0,3091201,0,1150041,0,0,0,0,0,2041161,1171021,0,0,0,0
14,369,513.375970069319,1,0,676061.474558152,676062.521634824,0,50,16,0,1,22,3,1170061,0,5090240,4051021,0,0,0,0,0,0,0,1170061,0,0,0,0,0,0,0,0,0,0,0,0,0,-3080050,0,2010190,0,0,0,0,0,0,0,0,0,0,0,4051021
14,370,505.89499482885,1,0,676064.145195065,676065.192255184,0,50,16,1,1,20,7,6211250,4342132,8310313,3110100,0,0,3080050,0,0,0,0,0,3131200,0,0,0,0,0,0,2161021,2181111,0,0,-2170201,4050041,0,0,2090071,0,0,0,0,0,0,0,0,0,3110100,0,0
14,371,427.129754214548,0,0,676066.768741832,676067.815833902,0,50,16,1,0,15,7,1161170,7391241,1180201,7272461,0,1161170,0,0,0,0,0,0,0,0,1190080,0,0,4090100,-2111061,0,0,0,0,0,0,0,0,0,0,1180201,0,3050150,0,1131190,3091121,0,0,0,0,0
14,372,689.724185504019,1,0,676069.298212246,676070.34527506,0,50,16,1,1,32,3,0,4070120,7211252,4200161,0,0,0,0,0,0,0,0,0,0,0,0,4070120,0,0,0,0,0,4020171,0,0,0,0,0,0,0,3191081,0,0,0,0,-4200161,0,0,0,0
14,373,883.660565130413,0,0,676072.157093484,676073.204198258,0,50,16,0,0,25,7,3020181,3261171,9422312,5271202,3020181,0,0,0,0,0,0,0,0,0,0,0,1181040,0,0,0,2080131,0,0,3170191,0,0,0,4061090,-2191031,0,0,0,4140081,0,0,0,0,0,1131121,0
14,374,660.982889588922,1,0,676075.274764184,676076.321832002,0,50,16,1,1,3,7,8172372,11272142,3111070,2120110,0,0,-2040031,3071170,0,0,0,0,3061171,4061021,0,0,0,0,0,3200041,0,4011080,0,0,0,0,0,0,0,3111070,0,0,2120110,0,0,0,0,0,0,0
14,375,590.843887301162,1,0,676078.063057553,676079.110171182,0,50,16,0,1,9,7,3052352,3131150,11141441,2080161,0,0,2031161,0,0,0,0,0,-1021191,0,0,0,2040080,0,1091070,0,0,0,0,3010100,0,4031190,0,0,0,0,4100151,0,0,0,0,2080161,0,0,0,0
14,376,705.05646977108,0,0,676080.733667518,676081.780734567,0,50,16,0,0,24,3,0,5322251,4261350,0,0,0,0,0,0,0,0,0,0,4201181,0,0,0,0,1121070,0,0,0,0,0,0,1191150,0,-3070200,0,0,0,0,0,0,0,0,0,0,0,0
14,377,441.023818799295,0,0,676083.627827484,676084.674890683,0,50,16,1,0,14,3,0,4010190,1061061,6092242,0,0,0,0,0,0,0,0,0,0,0,0,0,-4010190,0,0,0,0,0,1061061,0,0,0,0,0,0,0,0,0,2071051,0,0,0,0,4021191,0
14,378,523.769956082106,1,0,676086.169048108,676087.216128629,0,50,16,0,1,1,3,7191292,2171080,0,2011201,-3180121,0,0,4011171,0,0,0,0,0,0,2171080,0,0,0,0,0,0,0,0,0,0,0,0,0,0,0,0,0,0,0,0,2011201,0,0,0,0
14,379,372.453153599054,1,0,676088.863200836,676089.910272119,0,50,16,0,1,17,3,4111090,2041050,3091091,0,3031060,0,0,0,0,0,1080030,0,0,0,0,0,0,0,0,0,-2041050,0,0,0,0,0,3091091,0,0,0,0,0,0,0,0,0,0,0,0,0
14,380,503.963638329878,0,0,676091.380887166,676092.427963453,0,50,16,0,0,34,3,3140191,3050190,0,8080171,0,0,0,3140191,0,0,0,0,0,3050190,0,0,0,0,0,0,0,0,0,0,0,0,0,0,0,0,0,0,0,4040140,0,0,0,-4040031,0,0
14,381,597.253896994516,1,0,676093.957389597,676095.004455105,0,50,16,0,1,4,7,5271261,7152241,6231210,7211171,0,0,0,-3081060,0,0,0,2190201,0,0,0,3091080,0,0,4061161,0,0,0,0,0,3040020,0,0,3191190,0,0,0,0,0,0,0,0,4110040,0,0,3101131
14,382,667.026799870655,1,0,676096.698610144,676097.745677962,0,50,16,0,1,8,7,11463282,3211151,5160101,0,3031061,0,0,0,0,3191150,1071011,-4170060,0,0,1200061,0,0,2011090,0,0,0,0,0,0,0,4150061,0,0,0,1010040,0,0,0,0,0,0,0,0,0,0
14,383,864.061357220635,0,0,676099.498645252,676100.54571153,0,50,16,1,0,36,7,1090121,4261052,7421151,3161241,0,0,0,0,0,0,0,0,1090121,0,0,0,0,1191031,0,3070021,0,0,0,0,2070050,0,0,3181051,0,2170050,0,0,2061150,0,0,0,0,0,0,-1100091
14,384,410.554041387513,0,0,676102.475170242,676103.522236906,0,50,16,0,0,28,7,9381253,4060181,5151340,6200382,0,0,0,4121181,4160061,1100011,0,0,0,0,0,0,4060181,0,0,0,0,0,3100180,2051160,0,0,0,0,0,0,0,-2100191,0,0,0,4100191,0,0,0,0
14,385,475.924128899351,0,0,676122.21663601,676123.263707678,0,50,17,1,0,20,7,6211250,4342132,8310313,3110100,0,0,3080050,0,0,0,0,0,3131200,0,0,0,0,0,0,2161021,2181111,0,0,-2170201,4050041,0,0,2090071,0,0,0,0,0,0,0,0,0,3110100,0,0
14,386,519.127634470351,0,0,676124.922554346,676125.969421273,0,50,17,0,0,4,7,5391200,3222261,4171061,8230331,0,0,0,-2191020,0,0,0,0,3200180,0,0,2121121,0,0,0,1101140,0,0,0,0,0,0,0,0,0,0,4171061,0,4080011,0,0,0,0,0,1080180,3070140
14,387,773.826545570046,1,0,676127.522595306,676128.569665433,0,50,17,0,1,24,7,2111151,5271302,8212262,7171232,0,0,0,2111151,0,0,0,0,0,0,0,0,4181161,0,1090141,0,0,0,0,0,0,0,1161030,-3010131,0,4041101,0,0,4071051,0,0,0,0,0,3100181,0
14,388,431.604942656122,1,0,676130.416757196,676131.463862741,0,50,17,1,1,14,3,0,4010190,1061061,6092242,0,0,0,0,0,0,0,0,0,0,0,0,0,-4010190,0,0,0,0,0,1061061,0,0,0,0,0,0,0,0,0,2071051,0,0,0,0,4021191,0
14,389,382.516841753386,1,0,676132.910910386,676133.957979359,0,50,17,0,1,17,3,5100350,3270320,0,0,4070150,0,0,0,0,0,0,0,1030200,0,0,0,0,0,1150170,0,-2120150,0,0,0,0,0,0,0,0,0,0,0,0,0,0,0,0,0,0,0
14,390,435.801033396274,1,0,676135.369830659,676136.416838808,0,50,17,1,1,15,7,1161170,7391241,1180201,7272461,0,1161170,0,0,0,0,0,0,0,0,1190080,0,0,4090100,-2111061,0,0,0,0,0,0,0,0,0,0,1180201,0,3050150,0,1131190,3091121,0,0,0,0,0
14,391,648.754557594657,0,0,676137.969847367,676139.016868604,0,50,17,0,0,8,3,4130191,1120051,1140121,1061031,0,0,0,0,0,0,0,-4130191,0,0,0,0,0,0,1120051,0,0,0,0,0,0,0,0,0,1140121,0,0,0,0,0,0,0,1061031,0,0,0
14,392,574.915296398103,0,0,676140.828684718,676141.875749072,0,50,17,1,0,2,3,5341160,4120070,3011110,0,0,-4171010,0,0,0,1170150,0,0,0,0,0,0,0,0,0,4120070,0,0,0,0,0,3011110,0,0,0,0,0,0,0,0,0,0,0,0,0,0
14,393,653.753679827787,0,0,676143.475772324,676144.522845531,0,50,17,1,0,36,7,1090121,4261052,7421151,3161241,0,0,0,0,0,0,0,0,1090121,0,0,0,0,1191031,0,3070021,0,0,0,0,2070050,0,0,3181051,0,2170050,0,0,2061150,0,0,0,0,0,0,-1100091
14,394,455.928409704939,0,0,676146.193465505,676147.240533708,0,50,17,0,0,34,7,6221281,1141061,5271191,8192520,3071090,0,0,0,0,3150191,0,0,0,0,0,0,0,0,0,0,0,1141061,0,0,0,0,0,0,4071130,0,1200061,0,0,3061170,0,0,2020150,-3111200,0,0
14,395,868.9961907221,1,0,676148.793497611,676149.840571204,0,50,17,1,1,7,7,5211240,6322470,3110071,5311180,1181190,0,0,0,0,0,-4030050,0,0,0,0,0,0,0,0,2141180,1080100,3101190,0,0,0,0,0,0,0,3110071,0,0,0,4191160,0,0,0,0,1120020,0
14,396,678.927143919282,1,0,676151.734714231,676152.781788209,0,50,17,1,1,3,7,8172372,11272142,3111070,2120110,0,0,-2040031,3071170,0,0,0,0,3061171,4061021,0,0,0,0,0,3200041,0,4011080,0,0,0,0,0,0,0,3111070,0,0,2120110,0,0,0,0,0,0,0
14,397,829.159122309648,1,0,676154.664177563,676155.711239606,0,50,17,0,1,16,3,0,4561260,2031111,0,0,0,0,0,0,0,0,0,0,0,0,0,0,1171200,0,-2200020,0,1190040,0,0,0,2031111,0,0,0,0,0,0,0,0,0,0,0,0,0,0
14,398,628.436239785515,0,0,676157.734807392,676158.78187829,0,50,17,1,0,10,3,0,4321381,0,5260230,0,0,0,0,0,0,0,0,0,-1131181,0,3190200,0,0,0,0,0,0,0,0,0,0,0,0,0,0,0,0,0,0,0,3080170,0,0,2180060,0
14,399,482.204791158438,0,0,676160.464260407,676161.51133015,0,50,17,1,0,12,3,0,2270061,3040191,1201021,0,0,0,0,0,0,0,0,0,0,0,-1130041,0,0,1140020,0,0,0,0,0,0,0,3040191,0,0,0,0,0,0,0,0,0,1201021,0,0,0
14,400,648.918936494738,1,0,676163.111357251,676164.158431613,0,50,17,0,1,28,3,0,7091280,4161170,2181020,0,0,0,0,0,0,0,0,0,4011150,0,0,0,0,0,3080130,0,0,0,0,0,0,0,0,0,4161170,0,-2181020,0,0,0,0,0,0,0,0
14,401,821.767073473893,1,0,676165.958517537,676167.00552915,0,50,17,1,1,30,3,1141140,4181221,0,4150181,0,0,0,0,1141140,0,0,0,0,0,0,0,0,0,3100121,0,0,1081100,0,0,0,0,0,0,0,0,0,0,0,-4150181,0,0,0,0,0,0
14,402,834.088951349258,0,0,676169.01732286,676170.064393373,0,50,17,0,0,1,3,2030021,5191061,4110110,0,-2030021,0,0,0,0,0,0,0,0,0,0,2101021,0,0,0,3090040,0,0,0,0,0,0,0,0,0,4110110,0,0,0,0,0,0,0,0,0,0
14,403,533.914486295544,0,0,676172.01737483,676173.064440338,0,50,17,0,0,22,3,3271231,0,5190071,0,0,0,0,0,0,0,2111031,0,1160200,0,0,0,0,0,0,0,0,0,2020031,0,0,-3170040,0,0,0,0,0,0,0,0,0,0,0,0,0,0
14,404,1180.24756514933,0,0,676174.735066857,676175.782129285,0,50,17,0,0,33,7,4302112,4111061,6181131,9371283,0,0,0,2141061,2161051,0,0,0,0,0,0,0,0,0,4111061,0,0,0,0,4061040,0,0,0,0,0,0,2120091,0,4020131,0,4150011,0,-1201141,0,0,0
14,405,1056.77702091634,0,0,676178.017464911,676179.064583544,0,50,17,0,0,25,7,8663443,0,9232351,0,0,0,2131051,3111150,1140140,0,1141011,1140091,0,0,0,0,0,0,0,0,0,0,0,0,2081190,0,0,4131031,-3020130,0,0,0,0,0,0,0,0,0,0,0
14,406,792.849464691244,1,0,676181.229281641,676182.276340605,0,50,17,1,1,19,7,2181090,2190100,12402363,3212182,0,0,0,0,0,0,0,0,2181090,0,2190100,0,0,0,0,0,0,0,-4121010,4040111,0,0,3091201,0,1150041,0,0,0,0,0,2041161,1171021,0,0,0,0
14,407,584.00926401373,0,0,676184.241081125,676185.288156257,0,50,17,0,0,9,7,4120160,10442543,4041121,4170220,0,0,0,0,0,0,0,0,-4120160,2070171,4181151,0,0,0,0,1161131,0,3030090,0,4041121,0,0,0,0,0,0,0,0,0,0,0,0,0,1120160,0,3050060
14,408,783.414035104215,1,0,676186.958769302,676188.005843665,0,50,17,1,1,32,3,0,4070120,7211252,4200161,0,0,0,0,0,0,0,0,0,0,0,0,4070120,0,0,0,0,0,4020171,0,0,0,0,0,0,0,3191081,0,0,0,0,-4200161,0,0,0,0
14,409,547.020147670992,1,0,676208.512027701,676209.559100139,0,50,18,1,1,7,7,5211240,6322470,3110071,5311180,1181190,0,0,0,0,0,-4030050,0,0,0,0,0,0,0,0,2141180,1080100,3101190,0,0,0,0,0,0,0,3110071,0,0,0,4191160,0,0,0,0,1120020,0
14,410,576.564090442844,0,0,676211.147405904,676212.194439845,0,50,18,0,0,34,7,8471471,3251211,8160040,3100071,0,3200181,1170150,0,0,0,0,0,4101140,1131151,0,0,0,2120060,0,0,0,0,0,0,0,4130020,0,4030020,0,0,0,0,0,0,0,0,0,-3100071,0,0
14,411,993.355613318272,0,0,676213.876815418,676214.923887086,0,50,18,0,0,8,7,5171301,2021131,9401222,2221292,0,0,0,0,0,0,1081150,-4090151,0,0,0,0,0,0,0,0,0,2021131,4130030,0,1081111,0,0,0,0,0,4190081,0,0,1080161,0,0,1141131,0,0,0
14,412,656.087322160602,1,0,676217.029800263,676218.076873085,0,50,18,0,1,25,3,1060041,4120140,5251301,0,1060041,0,0,0,0,0,0,0,0,0,0,4120140,0,0,0,0,0,0,0,3091191,0,0,0,0,-2160110,0,0,0,0,0,0,0,0,0,0,0
14,413,715.302245109342,1,0,676219.735728992,676220.78280143,0,50,18,0,1,4,7,13233223,1150130,8180340,4091081,3031041,0,0,-3060051,0,3021121,0,4121010,0,0,0,0,0,0,1150130,0,0,0,4170140,0,0,0,0,0,0,4010200,0,0,0,4091081,0,0,0,0,0,0
14,414,461.227802676149,0,0,676222.582831149,676223.629898582,0,50,18,0,0,17,7,3260061,9462223,0,6172141,0,0,0,0,0,0,1060050,2200011,0,0,4161031,0,0,0,1080041,0,-2100070,2121081,0,0,0,0,0,0,0,0,0,3041051,0,0,0,3131090,0,0,0,0
14,415,392.30374188628,0,0,676225.288757954,676226.335817303,0,50,18,0,0,9,3,5230180,4131190,3061151,0,0,0,0,0,0,2180030,0,0,-3050150,0,0,0,0,0,0,0,4131190,0,0,0,3061151,0,0,0,0,0,0,0,0,0,0,0,0,0,0,0
14,416,462.019285419956,0,0,676227.877022528,676228.924143086,0,50,18,1,0,15,7,1161170,7391241,1180201,7272461,0,1161170,0,0,0,0,0,0,0,0,1190080,0,0,4090100,-2111061,0,0,0,0,0,0,0,0,0,0,1180201,0,3050150,0,1131190,3091121,0,0,0,0,0
14,417,758.936583180912,0,0,676230.524135925,676231.571192194,0,50,18,1,0,32,3,0,4070120,7211252,4200161,0,0,0,0,0,0,0,0,0,0,0,0,4070120,0,0,0,0,0,4020171,0,0,0,0,0,0,0,3191081,0,0,0,0,-4200161,0,0,0,0
14,418,733.994481503032,0,0,676233.48887452,676234.535945033,0,50,18,1,0,36,7,1090121,4261052,7421151,3161241,0,0,0,0,0,0,0,0,1090121,0,0,0,0,1191031,0,3070021,0,0,0,0,2070050,0,0,3181051,0,2170050,0,0,2061150,0,0,0,0,0,0,-1100091
14,419,773.918936494738,0,0,676236.288913863,676237.335981682,0,50,18,0,0,1,7,14372612,0,4050061,9301211,-3110181,4090151,3101100,0,0,0,0,0,4071180,0,0,0,0,0,0,0,0,0,0,4050061,0,0,0,0,0,0,0,0,4151041,3010120,0,0,0,0,2140050,0
14,420,576.930574723519,0,0,676239.183082298,676240.230149347,0,50,18,1,0,2,3,5341160,4120070,3011110,0,0,-4171010,0,0,0,1170150,0,0,0,0,0,0,0,0,0,4120070,0,0,0,0,0,3011110,0,0,0,0,0,0,0,0,0,0,0,0,0,0
14,421,499.322146177292,1,0,676241.983106243,676243.030735336,0,50,18,1,1,20,7,6211250,4342132,8310313,3110100,0,0,3080050,0,0,0,0,0,3131200,0,0,0,0,0,0,2161021,2181111,0,0,-2170201,4050041,0,0,2090071,0,0,0,0,0,0,0,0,0,3110100,0,0
14,422,717.854161164723,1,0,676244.642038758,676245.689056531,0,50,18,1,1,19,7,2181090,2190100,12402363,3212182,0,0,0,0,0,0,0,0,2181090,0,2190100,0,0,0,0,0,0,0,-4121010,4040111,0,0,3091201,0,1150041,0,0,0,0,0,2041161,1171021,0,0,0,0
14,423,665.751419262961,1,0,676247.583213802,676248.630256212,0,50,18,1,1,30,3,1141140,4181221,0,4150181,0,0,0,0,1141140,0,0,0,0,0,0,0,0,0,3100121,0,0,1081100,0,0,0,0,0,0,0,0,0,0,0,-4150181,0,0,0,0,0,0
14,424,666.823154781014,1,0,676250.347950164,676251.395013747,0,50,18,0,1,24,3,0,0,4062310,5211271,0,0,0,0,0,0,0,0,0,0,0,0,0,0,0,0,0,0,2031190,0,0,0,0,-2031120,0,0,0,0,0,3011170,0,0,2200101,0,0,0
14,425,422.57757333573,0,0,676253.230339518,676254.277398867,0,50,18,1,0,14,3,0,4010190,1061061,6092242,0,0,0,0,0,0,0,0,0,0,0,0,0,-4010190,0,0,0,0,0,1061061,0,0,0,0,0,0,0,0,0,2071051,0,0,0,0,4021191,0
14,426,575.108162476681,0,0,676255.759787605,676256.806863507,0,50,18,1,0,12,3,0,2270061,3040191,1201021,0,0,0,0,0,0,0,0,0,0,0,-1130041,0,0,1140020,0,0,0,0,0,0,0,3040191,0,0,0,0,0,0,0,0,0,1201021,0,0,0
14,427,380.502718267962,0,0,676258.583358932,676259.63043214,0,50,18,1,0,10,3,0,4321381,0,5260230,0,0,0,0,0,0,0,0,0,-1131181,0,3190200,0,0,0,0,0,0,0,0,0,0,0,0,0,0,0,0,0,0,0,3080170,0,0,2180060,0
14,428,547.722704242915,0,0,676261.054004391,676262.101076059,0,50,18,0,0,22,3,0,4181140,3241091,3171190,0,0,0,0,0,0,0,0,0,0,0,0,0,0,0,0,0,4181140,0,2151010,0,-1090081,0,0,0,0,0,3171190,0,0,0,0,0,0,0,0
14,429,636.373395565897,1,0,676263.830499816,676264.877572639,0,50,18,0,1,33,3,0,2021101,3352201,2151030,0,0,0,0,0,0,0,0,0,2021101,0,0,0,0,0,0,0,0,0,0,2171141,0,0,0,1181060,0,0,0,0,0,0,0,-2151030,0,0,0
14,430,629.032546654344,1,0,676266.571712279,676267.618783561,0,50,18,1,1,3,7,8172372,11272142,3111070,2120110,0,0,-2040031,3071170,0,0,0,0,3061171,4061021,0,0,0,0,0,3200041,0,4011080,0,0,0,0,0,0,0,3111070,0,0,2120110,0,0,0,0,0,0,0
14,431,429.76251244545,1,0,676269.418815205,676270.465895727,0,50,18,0,1,16,3,4031081,2061150,4301231,0,0,0,0,4031081,0,0,0,0,0,0,0,0,0,0,0,-2061150,0,0,0,0,0,3170161,1131070,0,0,0,0,0,0,0,0,0,0,0,0,0
14,432,823.722297674976,1,0,676271.960029669,676273.007094408,0,50,18,0,1,28,7,4281182,4130201,8172182,8332422,0,0,0,0,0,0,3101141,1180041,0,0,0,4130201,0,0,0,0,0,0,0,0,4051131,0,0,0,0,4121051,0,-1200081,0,0,0,3021160,0,0,4111181,0
14,433,603.075299062766,1,0,676282.948423822,676283.995486635,0,50,19,1,1,32,3,0,4070120,7211252,4200161,0,0,0,0,0,0,0,0,0,0,0,0,4070120,0,0,0,0,0,4020171,0,0,0,0,0,0,0,3191081,0,0,0,0,-4200161,0,0,0,0
14,434,437.911782413721,1,0,676285.677926881,676286.724948119,0,50,19,1,1,15,7,1161170,7391241,1180201,7272461,0,1161170,0,0,0,0,0,0,0,0,1190080,0,0,4090100,-2111061,0,0,0,0,0,0,0,0,0,0,1180201,0,3050150,0,1131190,3091121,0,0,0,0,0
14,435,421.369176241569,0,0,676288.360279741,676289.407331776,0,50,19,0,0,22,7,3291232,4021070,6131181,8301192,0,0,2091041,0,1200191,0,0,0,0,0,0,0,0,0,0,0,0,4021070,0,0,0,-3101041,0,0,0,3030140,0,0,0,0,2161060,2080121,0,4060011,0,0
14,436,575.957389664836,1,0,676290.948545855,676291.995611748,0,50,19,1,1,20,7,6211250,4342132,8310313,3110100,0,0,3080050,0,0,0,0,0,3131200,0,0,0,0,0,0,2161021,2181111,0,0,-2170201,4050041,0,0,2090071,0,0,0,0,0,0,0,0,0,3110100,0,0
14,437,984.272809349932,1,0,676293.619170834,676294.666244811,0,50,19,1,1,7,7,5211240,6322470,3110071,5311180,1181190,0,0,0,0,0,-4030050,0,0,0,0,0,0,0,0,2141180,1080100,3101190,0,0,0,0,0,0,0,3110071,0,0,0,4191160,0,0,0,0,1120020,0
14,438,828.055049991235,0,0,676296.760395461,676297.807461739,0,50,19,1,0,12,3,0,2270061,3040191,1201021,0,0,0,0,0,0,0,0,0,0,0,-1130041,0,0,1140020,0,0,0,0,0,0,0,3040191,0,0,0,0,0,0,0,0,0,1201021,0,0,0
14,439,572.863831417635,1,0,676299.654556196,676300.701627479,0,50,19,0,1,1,3,5242031,3060181,3180191,0,-4181021,0,1061010,0,0,0,0,0,0,0,0,0,0,3060181,0,0,0,0,0,0,0,0,0,3180191,0,0,0,0,0,0,0,0,0,0,0,0
14,440,592.118497937918,0,0,676302.372247838,676303.419319121,0,50,19,1,0,30,3,1141140,4181221,0,4150181,0,0,0,0,1141140,0,0,0,0,0,0,0,0,0,3100121,0,0,1081100,0,0,0,0,0,0,0,0,0,0,0,-4150181,0,0,0,0,0,0
14,441,419.633765588515,0,0,676305.136996135,676306.184067032,0,50,19,0,0,8,3,4060180,2161140,2180021,3201110,0,0,0,0,0,0,0,-4060180,0,0,2161140,0,0,0,0,0,0,0,0,0,2180021,0,0,0,0,0,0,0,0,3201110,0,0,0,0,0,0
14,442,500.311884679832,0,0,676307.737023621,676308.784100293,0,50,19,1,0,2,3,5341160,4120070,3011110,0,0,-4171010,0,0,0,1170150,0,0,0,0,0,0,0,0,0,4120070,0,0,0,0,0,3011110,0,0,0,0,0,0,0,0,0,0,0,0,0,0
14,443,627.138146432117,1,0,676310.325299744,676311.372370641,0,50,19,0,1,24,7,4181271,5210231,6392251,2190140,0,0,2061141,0,2120130,0,0,0,0,0,0,0,0,0,0,2170190,3040041,0,3201111,0,0,1120110,0,-2071030,0,0,0,0,2190140,0,0,0,0,0,0,0
14,444,381.81582512334,0,0,676313.054748909,676314.101824041,0,50,19,1,0,10,3,0,4321381,0,5260230,0,0,0,0,0,0,0,0,0,-1131181,0,3190200,0,0,0,0,0,0,0,0,0,0,0,0,0,0,0,0,0,0,0,3080170,0,0,2180060,0
14,445,880.351812927984,1,0,676315.643029266,676316.690094774,0,50,19,1,1,36,7,1090121,4261052,7421151,3161241,0,0,0,0,0,0,0,0,1090121,0,0,0,0,1191031,0,3070021,0,0,0,0,2070050,0,0,3181051,0,2170050,0,0,2061150,0,0,0,0,0,0,-1100091
14,446,897.923808544874,0,0,676318.725425472,676319.772498295,0,50,19,0,0,25,3,4220091,0,6170331,0,0,0,0,0,3150020,1070071,0,0,0,0,0,0,0,0,0,0,0,0,0,4130150,0,0,0,0,-2040181,0,0,0,0,0,0,0,0,0,0,0
14,447,537.240176810883,1,0,676321.84312466,676322.890189783,0,50,19,1,1,14,3,0,4010190,1061061,6092242,0,0,0,0,0,0,0,0,0,0,0,0,0,-4010190,0,0,0,0,0,1061061,0,0,0,0,0,0,0,0,0,2071051,0,0,0,0,4021191,0
14,448,788.395834155381,0,0,676324.607869106,676325.654937694,0,50,19,0,0,33,7,4101071,6171222,4201230,7421340,0,0,4101071,0,0,0,0,0,0,0,0,0,0,0,0,2131041,0,4040181,0,0,1071080,0,0,0,0,3130150,0,0,2110130,0,0,0,-4171180,1140030,0,0
14,449,919.840490329079,1,0,676327.584386397,676328.631449211,0,50,19,1,1,19,7,2181090,2190100,12402363,3212182,0,0,0,0,0,0,0,0,2181090,0,2190100,0,0,0,0,0,0,0,-4121010,4040111,0,0,3091201,0,1150041,0,0,0,0,0,2041161,1171021,0,0,0,0
14,450,656.443027546629,0,0,676330.655020461,676331.70208443,0,50,19,0,0,34,7,4101041,5391351,6140141,5270261,0,0,0,0,0,4101041,0,0,0,0,0,0,0,0,0,1160160,3160051,1071140,0,2060021,0,0,0,0,4080120,0,0,0,4080150,0,0,0,0,-1190111,0,0
14,451,444.104288239032,1,1,676333.490340457,676334.537412895,0,50,19,0,0,28,3,0,6253390,0,3021091,0,0,0,0,0,0,0,0,0,0,4121130,0,1111070,0,0,1021190,0,0,0,0,0,0,0,0,0,0,0,-3021091,0,0,0,0,0,0,0,0
14,452,822.436908143573,1,0,676336.019809332,676337.066870221,0,50,19,0,1,4,3,3020221,0,3171131,2041050,0,0,0,-2010150,0,0,0,1010071,0,0,0,0,0,0,0,0,0,0,0,0,0,0,3171131,0,0,0,0,0,0,2041050,0,0,0,0,0,0
14,453,399.840536643751,1,0,676338.937482419,676339.984562171,0,50,19,0,1,16,3,1141021,3161071,3040020,2120171,0,0,0,0,0,1141021,0,0,0,0,0,0,0,0,0,-3161071,0,0,0,0,0,0,0,0,0,3040020,0,2120171,0,0,0,0,0,0,0,0
14,454,577.081864932552,0,0,676341.549294761,676342.596364889,0,50,19,1,0,3,7,8172372,11272142,3111070,2120110,0,0,-2040031,3071170,0,0,0,0,3061171,4061021,0,0,0,0,0,3200041,0,4011080,0,0,0,0,0,0,0,3111070,0,0,2120110,0,0,0,0,0,0,0
14,455,392.731435247697,0,0,676344.384650558,676345.431710677,0,50,19,0,0,17,7,4200110,4170140,4213372,5392401,0,0,0,0,0,4200110,0,0,0,0,0,0,0,0,0,0,-4170140,0,1111151,1081190,0,0,0,0,0,2021031,0,0,0,0,1200151,0,0,3031100,1161150,0
14,456,482.515455805697,0,0,676346.831725152,676347.878802209,0,50,19,0,0,9,7,1160180,2211232,4282472,2271200,0,0,0,0,0,0,0,0,-1160180,0,0,0,1191161,0,1020071,0,0,0,0,1121161,1091110,0,0,2070201,0,0,0,0,0,0,0,1111100,0,0,0,1160100
14,457,794.0305294469,1,0,676363.620211387,676364.667279205,0,50,20,0,1,25,7,4121161,2110091,16422443,4060100,0,1020081,0,0,0,3101080,0,0,0,0,0,2110091,0,0,0,0,0,0,0,4141081,0,0,4180151,0,-4090041,0,4011170,0,0,0,0,0,0,4060100,0,0
14,458,707.117558573373,0,0,676366.537884474,676367.584964226,0,50,20,1,0,7,7,5211240,6322470,3110071,5311180,1181190,0,0,0,0,0,-4030050,0,0,0,0,0,0,0,0,2141180,1080100,3101190,0,0,0,0,0,0,0,3110071,0,0,0,4191160,0,0,0,0,1120020,0
14,459,568.152276100591,1,0,676369.432062533,676370.479127271,0,50,20,0,1,24,7,3040091,0,4171111,11663441,0,0,0,0,3040091,0,0,0,0,0,0,0,0,0,0,0,0,0,0,0,0,0,0,-3100060,1071051,0,0,3060061,0,0,0,0,2201090,3051010,2200140,1151140
14,460,606.20196396485,0,0,676372.19680159,676373.243884037,0,50,20,1,0,30,3,1141140,4181221,0,4150181,0,0,0,0,1141140,0,0,0,0,0,0,0,0,0,3100121,0,0,1081100,0,0,0,0,0,0,0,0,0,0,0,-4150181,0,0,0,0,0,0
14,461,850.264303269796,1,0,676374.996849402,676376.04391876,0,50,20,1,1,36,7,1090121,4261052,7421151,3161241,0,0,0,0,0,0,0,0,1090121,0,0,0,0,1191031,0,3070021,0,0,0,0,2070050,0,0,3181051,0,2170050,0,0,2061150,0,0,0,0,0,0,-1100091
14,462,742.045971099287,1,0,676377.938068332,676378.98513461,0,50,20,0,1,1,3,3211292,3161110,2131040,0,-2190091,1021201,0,0,0,0,0,0,0,0,0,0,0,0,0,3161110,0,0,0,0,0,0,0,0,0,0,2131040,0,0,0,0,0,0,0,0,0
14,463,739.375486504287,1,0,676380.902812317,676381.949885909,0,50,20,0,1,33,7,10421300,1021110,4160061,7192300,0,3091070,0,0,0,4010140,0,2130040,1190050,1021110,0,0,0,0,0,0,0,0,0,0,0,0,0,0,4160061,0,0,0,0,0,0,0,-3061190,4131110,0,0
