sub_id,Trial,RT,Resp,Error,Fix_onset,Disp_onset,q1,q2,block,repeat,tid,tloc,d_setsize,quad1,quad2,quad3,quad4,loc1,loc2,loc3,loc4,loc5,loc6,loc7,loc8,loc9,loc10,loc11,loc12,loc13,loc14,loc15,loc16,loc17,loc18,loc19,loc20,loc21,loc22,loc23,loc24,loc25,loc26,loc27,loc28,loc29,loc30,loc31,loc32,loc33,loc34,loc35,loc36
17,1,682.203407399356,0,0,506557.827016023,506558.874045933,0,40,1,0,0,27,7,11312472,6320300,6222342,0,4201191,0,0,0,0,0,0,3031181,4080100,0,0,0,0,0,2170130,0,0,4150170,0,2071051,0,3050181,0,0,0,0,-1101110,0,0,0,0,0,0,0,0,0
17,2,1241.59441451775,1,0,506560.697541333,506561.744558155,0,40,1,0,1,13,7,6431410,7391102,2020051,2021020,0,0,2150110,2171120,2110180,0,0,0,0,4010020,0,1181021,-2200061,0,0,0,0,0,0,0,0,0,0,0,0,0,2020051,0,0,0,0,0,0,0,0,2021020
17,3,489.687125489581,0,0,506564.097442629,506565.1444633,0,40,1,1,0,21,7,7200061,5220131,2360191,4220170,4060010,0,0,3140051,0,0,0,0,0,0,2030091,0,0,0,0,0,0,3190040,0,0,-1170131,0,0,0,0,0,1190060,0,0,0,0,0,3110040,1110130,0,0
17,4,963.963264133781,1,0,506566.709129428,506567.756150484,0,40,1,1,1,10,7,0,4490112,4161381,12352312,0,0,0,0,0,0,0,0,0,-1190040,0,1140011,0,2160061,0,0,0,0,0,0,0,0,0,0,0,3091180,1070201,4131081,4091181,0,0,0,0,0,4130050,0
17,5,546.031936537474,0,0,506569.909043889,506570.956058786,0,40,1,0,0,24,3,3070040,0,5210290,2061061,0,0,0,0,0,3070040,0,0,0,0,0,0,0,0,0,0,0,0,1010130,0,0,0,0,-4200160,0,0,0,2061061,0,0,0,0,0,0,0,0
17,6,592.567172425333,1,0,506572.673664129,506573.720691345,0,40,1,0,1,19,3,2151190,0,6241221,0,0,0,0,0,2151190,0,0,0,0,0,0,0,0,0,0,0,0,0,-2051090,0,0,0,2180120,0,2010011,0,0,0,0,0,0,0,0,0,0,0
17,7,484.425094153266,1,0,506575.320694579,506576.36767175,0,40,1,0,1,17,3,4191181,5161051,0,1111111,0,0,0,0,0,0,0,0,4191181,0,0,0,0,0,0,0,-2041020,3120031,0,0,0,0,0,0,0,0,0,0,0,0,0,0,0,0,0,1111111
17,8,506.942615611479,1,0,506577.897045811,506578.944068407,0,40,1,0,1,15,7,4161201,4241250,8362461,3181030,0,4161201,0,0,0,0,0,0,0,2111200,0,0,0,0,-2130050,0,0,0,1081070,0,3071190,0,2140021,0,0,0,2070180,0,0,0,0,0,0,0,3181030,0
17,9,781.693488068413,1,0,506580.532289911,506581.57928864,0,40,1,0,1,5,7,9422402,8331381,0,6091361,0,0,2111151,0,-4150141,0,3161110,0,0,2110190,0,2100021,0,0,4121170,0,0,0,0,0,0,0,0,0,0,0,0,0,0,4060171,2031190,0,0,0,0,0
17,10,643.206862034276,1,0,506583.449832428,506584.496854639,0,40,1,1,1,32,7,6200200,9392432,1090091,2021180,0,0,2090140,0,0,0,4110060,0,0,0,2200031,0,0,0,2071151,4011110,1110140,0,0,0,0,0,0,0,0,1090091,0,0,0,0,0,-2021180,0,0,0,0
17,11,745.493299211375,0,0,506586.308579857,506587.355602069,0,40,1,1,0,4,3,4160080,1051200,3130040,2120170,0,0,0,-4160080,0,0,0,0,0,0,0,0,0,0,0,0,1051200,0,3130040,0,0,0,0,0,0,0,0,0,2120170,0,0,0,0,0,0,0
17,12,564.184770628344,1,0,506589.249668896,506590.296694958,0,40,1,0,1,23,7,4081040,11382312,2152171,3031150,4081040,0,0,0,0,0,0,0,0,0,0,1041161,0,2031100,0,4170020,4140031,0,0,0,0,0,-1051040,0,1101131,0,0,0,0,0,0,0,0,3031150,0,0
17,13,594.606310594827,0,0,506591.967247677,506593.014286827,0,40,1,1,0,25,3,7080292,2111081,2070190,0,0,0,3030201,0,4050091,0,0,0,0,0,2111081,0,0,0,0,0,0,0,0,0,0,0,0,0,-2070190,0,0,0,0,0,0,0,0,0,0,0
17,14,672.270259761717,0,0,506594.743627704,506595.79065646,0,40,1,0,0,7,3,4332081,5232121,0,0,0,0,0,3161010,0,0,-1171071,0,0,0,0,0,0,2031031,0,0,0,3201090,0,0,0,0,0,0,0,0,0,0,0,0,0,0,0,0,0,0
17,15,623.33710200619,1,0,506597.637668739,506598.684692876,0,40,1,0,1,34,3,0,0,1191171,7351262,0,0,0,0,0,0,0,0,0,0,0,0,0,0,0,0,0,0,0,0,0,1191171,0,0,0,0,0,0,0,3170180,0,0,1010041,-3171041,0,0
17,16,388.855455850717,0,0,506600.472884275,506601.519903022,0,40,1,1,0,22,7,5281222,4322231,5271300,5310280,0,2111101,0,0,0,0,3170121,0,0,0,0,0,0,0,0,1181150,3141081,0,3101170,0,0,-2170130,0,0,0,0,0,4200180,0,0,0,0,0,0,0,1110100
17,17,400.770767475478,1,0,506603.014048151,506604.061063818,0,40,1,1,1,20,3,0,2060130,3191370,3050071,0,0,0,0,0,0,0,0,0,0,2060130,0,0,0,0,0,0,0,0,-1141170,0,0,2050200,0,0,0,0,0,0,0,3050071,0,0,0,0,0
17,18,536.664296523668,0,1,506605.649208329,506606.696229001,0,40,1,1,1,29,3,0,2070040,2160160,6081162,0,0,0,0,0,0,0,0,0,2070040,0,0,0,0,0,0,0,0,0,0,0,2160160,0,0,0,0,0,0,-2050091,0,4031071,0,0,0,0,0
17,19,503.98380565457,0,0,506608.366776331,506609.413798927,0,40,1,1,0,28,7,5220312,5321151,7191261,3182120,0,0,0,0,0,0,0,4050141,1170171,0,0,0,0,0,0,4151041,0,1170110,0,3011141,0,0,0,0,0,0,4180120,-2111020,0,0,1071100,0,0,0,0,0
17,20,509.421379189007,1,0,506611.037294788,506612.08431546,0,40,1,1,1,26,3,4160090,3131011,2150071,0,0,0,0,0,0,0,0,4160090,0,0,0,0,0,0,0,0,3131011,0,0,0,0,0,0,0,0,-1090060,1060011,0,0,0,0,0,0,0,0,0
17,21,535.72807146702,0,0,506613.648985052,506614.696013423,0,40,1,1,0,9,7,12564513,2130031,7190302,3120091,0,3151141,0,2191100,0,0,4061161,0,-3161111,2130031,0,0,0,0,0,0,0,0,3050141,0,0,4140161,0,0,0,0,0,0,0,0,3120091,0,0,0,0,0
17,22,886.724696902093,1,0,506616.295975081,506617.342996137,0,40,1,0,1,31,3,3180140,3080141,4180041,1150190,0,0,0,0,0,0,0,3180140,0,0,0,0,3080141,0,0,0,0,0,0,0,0,0,4180041,0,0,0,0,0,0,0,-1150190,0,0,0,0,0
17,23,966.880113293882,0,0,506619.354739371,506620.401720777,0,40,1,1,0,6,3,4141241,6352191,0,0,0,0,1090041,0,0,-3051200,0,0,0,0,3191100,0,0,3161091,0,0,0,0,0,0,0,0,0,0,0,0,0,0,0,0,0,0,0,0,0,0
17,24,1356.0356090311,1,1,506622.507638551,506623.55458531,0,40,1,0,0,2,7,6130330,4271290,5222211,5211341,0,-2050190,0,0,0,0,4080140,0,0,0,0,3140120,0,1131170,0,0,0,0,4021151,0,0,0,0,0,1201060,0,0,0,0,0,2161151,0,0,3050190,0,0
17,25,678.453887696378,1,0,506634.518975266,506635.566008641,0,40,2,1,1,4,3,4160080,1051200,3130040,2120170,0,0,0,-4160080,0,0,0,0,0,0,0,0,0,0,0,0,1051200,0,3130040,0,0,0,0,0,0,0,0,0,2120170,0,0,0,0,0,0,0
17,26,640.38432831876,1,0,506637.26008902,506638.307104302,0,40,2,0,1,34,3,3080040,3200091,2140090,4190170,0,0,0,3080040,0,0,0,0,0,0,0,0,0,0,3200091,0,0,0,0,0,0,0,0,0,2140090,0,0,0,0,0,0,0,0,-4190170,0,0
17,27,930.592538265046,0,0,506640.012949087,506641.059966679,0,40,2,1,0,6,3,4141241,6352191,0,0,0,0,1090041,0,0,-3051200,0,0,0,0,3191100,0,0,3161091,0,0,0,0,0,0,0,0,0,0,0,0,0,0,0,0,0,0,0,0,0,0
17,28,1068.44012910733,0,0,506643.201090673,506644.248114809,0,40,2,0,0,13,7,5141051,10242442,4021110,5302081,0,0,0,0,4130021,1011030,0,0,0,2160171,4031170,0,-4051101,0,0,0,0,0,0,0,0,0,0,4021110,0,0,0,0,0,1111060,0,0,4191021,0,0,0
17,29,748.26886766823,1,0,506646.389222634,506647.436257165,0,40,2,0,1,23,7,12321372,0,10484310,0,3070120,0,1080181,4150060,0,0,4021011,0,0,0,0,0,0,0,0,0,0,0,0,0,0,3171050,-4041040,2201120,0,0,1071100,0,0,0,0,0,0,0,0,0
17,30,882.276857970282,1,0,506649.295037316,506650.342061067,0,40,2,1,1,32,7,6200200,9392432,1090091,2021180,0,0,2090140,0,0,0,4110060,0,0,0,2200031,0,0,0,2071151,4011110,1110140,0,0,0,0,0,0,0,0,1090091,0,0,0,0,0,-2021180,0,0,0,0
17,31,904.621147026774,1,0,506652.306720111,506653.353738088,0,40,2,1,1,10,7,0,4490112,4161381,12352312,0,0,0,0,0,0,0,0,0,-1190040,0,1140011,0,2160061,0,0,0,0,0,0,0,0,0,0,0,3091180,1070201,4131081,4091181,0,0,0,0,0,4130050,0
17,32,1614.07301650615,1,0,506655.28311007,506656.330127277,0,40,2,0,1,5,7,5162150,9231271,2191140,7162161,4111030,0,0,0,-1051120,0,0,0,0,0,0,2021060,0,0,0,3080060,4130151,0,2191140,0,0,0,0,0,0,0,0,0,0,0,0,0,4061031,3101130,0,0
17,33,590.46682540793,0,0,506659.03594319,506660.082965017,0,40,2,0,0,27,7,0,7464482,10482541,2111181,0,0,0,0,0,0,0,0,0,0,0,0,0,1041200,0,2091161,3151110,1181011,0,3201180,0,0,0,4140201,0,0,-3141160,0,0,0,0,0,0,2111181,0,0
17,34,1003.10878938762,0,0,506661.765278293,506662.812292806,0,40,2,0,0,24,7,0,5272122,9421373,8271091,0,0,0,0,0,0,0,0,0,0,0,0,1081061,0,0,4191061,0,0,0,1081171,0,0,2100011,-3140030,0,0,3100161,4140031,0,0,0,0,4131060,0,0,0
17,35,685.701932641678,1,0,506664.906365331,506665.953436432,0,40,2,1,1,25,3,7080292,2111081,2070190,0,0,0,3030201,0,4050091,0,0,0,0,0,2111081,0,0,0,0,0,0,0,0,0,0,0,0,0,-2070190,0,0,0,0,0,0,0,0,0,0,0
17,36,520.39199671708,0,0,506667.835694968,506668.882713329,0,40,2,1,0,29,3,0,2070040,2160160,6081162,0,0,0,0,0,0,0,0,0,2070040,0,0,0,0,0,0,0,0,0,0,0,2160160,0,0,0,0,0,0,-2050091,0,4031071,0,0,0,0,0
17,37,851.95694770664,1,0,506670.506209961,506671.553227168,0,40,2,0,1,19,3,0,1040160,7211030,2180160,0,0,0,0,0,0,0,0,0,0,0,0,0,1040160,0,0,0,0,-4101010,0,0,3110020,0,0,0,0,0,0,0,0,0,0,2180160,0,0,0
17,38,946.545320504811,1,0,506673.576705937,506674.623729303,0,40,2,0,1,17,7,2151260,8411483,4191090,3311151,1011060,0,0,0,0,0,0,0,1140200,3201201,0,0,0,0,0,0,-3080151,2130131,0,0,0,0,0,0,4191090,0,0,0,0,0,1160141,0,2151010,0,0,0
17,39,566.068384679966,0,0,506676.600152369,506677.647173425,0,40,2,1,0,28,7,5220312,5321151,7191261,3182120,0,0,0,0,0,0,0,4050141,1170171,0,0,0,0,0,0,4151041,0,1170110,0,3011141,0,0,0,0,0,0,4180120,-2111020,0,0,1071100,0,0,0,0,0
17,40,759.871976042632,0,0,506679.247133159,506680.294151905,0,40,2,0,0,7,3,1190041,9492222,0,0,0,0,0,0,0,0,-1190041,0,0,2200081,0,0,0,0,4121031,3171110,0,0,0,0,0,0,0,0,0,0,0,0,0,0,0,0,0,0,0,0
17,41,508.730374334846,1,0,506682.141172269,506683.188255304,0,40,2,0,1,15,3,3141191,3150200,1160140,1041110,0,0,0,0,0,0,0,3141191,0,0,0,0,0,0,-3150200,0,0,0,0,0,1160140,0,0,0,0,0,0,0,0,1041110,0,0,0,0,0,0
17,42,1147.74478186155,0,1,506684.835256497,506685.882237903,0,40,2,0,1,2,3,5221160,0,8142241,0,0,-3191020,0,0,2030140,0,0,0,0,0,0,0,0,0,0,0,0,0,0,4131201,0,0,0,4011040,0,0,0,0,0,0,0,0,0,0,0,0
17,43,552.408044983167,0,0,506688.164527466,506689.211558146,0,40,2,1,0,21,7,7200061,5220131,2360191,4220170,4060010,0,0,3140051,0,0,0,0,0,0,2030091,0,0,0,0,0,0,3190040,0,0,-1170131,0,0,0,0,0,1190060,0,0,0,0,0,3110040,1110130,0,0
17,44,475.921306468081,0,0,506690.940973706,506691.987940868,0,40,2,1,0,20,3,0,2060130,3191370,3050071,0,0,0,0,0,0,0,0,0,0,2060130,0,0,0,0,0,0,0,0,-1141170,0,0,2050200,0,0,0,0,0,0,0,3050071,0,0,0,0,0
17,45,550.613741914276,0,0,506693.470296953,506694.517293372,0,40,2,1,0,9,7,12564513,2130031,7190302,3120091,0,3151141,0,2191100,0,0,4061161,0,-3161111,2130031,0,0,0,0,0,0,0,0,3050141,0,0,4140161,0,0,0,0,0,0,0,0,3120091,0,0,0,0,0
17,46,795.282609993592,1,0,506696.152547096,506697.199563148,0,40,2,0,1,31,3,0,0,8311261,2191090,0,0,0,0,0,0,0,0,0,0,0,0,0,0,0,0,0,0,3140100,0,0,0,1150051,0,0,4021110,0,0,0,0,-2191090,0,0,0,0,0
17,47,562.167575233616,1,0,506699.140695687,506700.187717514,0,40,2,1,1,22,7,5281222,4322231,5271300,5310280,0,2111101,0,0,0,0,3170121,0,0,0,0,0,0,0,0,1181150,3141081,0,3101170,0,0,-2170130,0,0,0,0,0,4200180,0,0,0,0,0,0,0,1110100
17,48,568.301158200484,0,0,506701.799442809,506702.84646425,0,40,2,1,0,26,3,4160090,3131011,2150071,0,0,0,0,0,0,0,0,4160090,0,0,0,0,0,0,0,0,3131011,0,0,0,0,0,0,0,0,-1090060,1060011,0,0,0,0,0,0,0,0,0
17,49,543.493119010236,0,0,506713.387352109,506714.434376245,0,40,3,1,0,26,3,4160090,3131011,2150071,0,0,0,0,0,0,0,0,4160090,0,0,0,0,0,0,0,0,3131011,0,0,0,0,0,0,0,0,-1090060,1060011,0,0,0,0,0,0,0,0,0
17,50,1171.95998120587,0,0,506716.116690677,506717.163710193,0,40,3,0,0,2,7,5061222,3192211,8221201,5141180,0,-3010161,0,0,2051061,0,0,0,0,0,1031061,0,0,0,2161150,0,0,0,0,0,4111180,0,4110021,0,0,0,0,0,0,0,0,0,3030110,0,0,2111070
17,51,786.505500145722,1,0,506719.493065469,506720.540084985,0,40,3,0,1,34,3,0,2100021,2090180,2112231,0,0,0,0,0,0,0,0,0,2100021,0,0,0,0,0,0,0,0,0,0,0,0,0,0,2090180,0,0,0,0,0,1041110,0,0,-1071121,0,0
17,52,627.259084256366,1,0,506722.516541543,506723.563529878,0,40,3,1,1,28,7,5220312,5321151,7191261,3182120,0,0,0,0,0,0,0,4050141,1170171,0,0,0,0,0,0,4151041,0,1170110,0,3011141,0,0,0,0,0,0,4180120,-2111020,0,0,1071100,0,0,0,0,0
17,53,1050.7211459917,0,0,506725.198784757,506726.245857398,0,40,3,0,0,5,3,5122331,1011170,3181111,0,0,0,0,0,-3081131,0,0,0,2041200,0,0,0,0,1011170,0,0,0,0,0,3181111,0,0,0,0,0,0,0,0,0,0,0,0,0,0,0,0
17,54,687.915843096562,1,0,506728.445753766,506729.492824483,0,40,3,1,1,25,3,7080292,2111081,2070190,0,0,0,3030201,0,4050091,0,0,0,0,0,2111081,0,0,0,0,0,0,0,0,0,0,0,0,0,-2070190,0,0,0,0,0,0,0,0,0,0,0
17,55,611.918389971834,1,0,506731.245671462,506732.292694058,0,40,3,1,1,22,7,5281222,4322231,5271300,5310280,0,2111101,0,0,0,0,3170121,0,0,0,0,0,0,0,0,1181150,3141081,0,3101170,0,0,-2170130,0,0,0,0,0,4200180,0,0,0,0,0,0,0,1110100
17,56,527.557660010643,1,0,506733.927945857,506734.974974613,0,40,3,0,1,27,7,1180120,7362341,6171201,2211181,0,1180120,0,0,0,0,0,0,0,0,0,0,2111040,2201120,0,3050181,0,0,2130130,0,0,0,0,0,0,0,-4041071,0,1121171,1090010,0,0,0,0,0,0
17,57,535.099815169815,0,0,506736.551406302,506737.598425434,0,40,3,0,0,13,3,1081141,8292131,0,1191091,0,0,1081141,0,0,0,0,0,0,0,4091041,0,-4201090,0,0,0,0,0,0,0,0,0,0,0,0,0,0,0,0,0,0,0,0,0,1191091,0
17,58,473.778228799347,0,0,506739.186623455,506740.233651826,0,40,3,1,0,21,7,7200061,5220131,2360191,4220170,4060010,0,0,3140051,0,0,0,0,0,0,2030091,0,0,0,0,0,0,3190040,0,0,-1170131,0,0,0,0,0,1190060,0,0,0,0,0,3110040,1110130,0,0
17,59,426.004573528189,1,0,506741.892428974,506742.939450031,0,40,3,1,1,10,7,0,4490112,4161381,12352312,0,0,0,0,0,0,0,0,0,-1190040,0,1140011,0,2160061,0,0,0,0,0,0,0,0,0,0,0,3091180,1070201,4131081,4091181,0,0,0,0,0,4130050,0
17,60,606.693314912263,0,0,506744.480596198,506745.527666915,0,40,3,1,0,29,3,0,2070040,2160160,6081162,0,0,0,0,0,0,0,0,0,2070040,0,0,0,0,0,0,0,0,0,0,0,2160160,0,0,0,0,0,0,-2050091,0,4031071,0,0,0,0,0
17,61,893.351029953919,1,0,506747.209930916,506748.256950048,0,40,3,1,1,32,7,6200200,9392432,1090091,2021180,0,0,2090140,0,0,0,4110060,0,0,0,2200031,0,0,0,2071151,4011110,1110140,0,0,0,0,0,0,0,0,1090091,0,0,0,0,0,-2021180,0,0,0,0
17,62,502.427408471704,0,0,506750.303962636,506751.350984462,0,40,3,1,0,9,7,12564513,2130031,7190302,3120091,0,3151141,0,2191100,0,0,4061161,0,-3161111,2130031,0,0,0,0,0,0,0,0,3050141,0,0,4140161,0,0,0,0,0,0,0,0,3120091,0,0,0,0,0
17,63,814.225384034216,1,0,506753.045062531,506754.092079353,0,40,3,0,1,19,3,0,0,5252161,4151142,0,0,0,0,0,0,0,0,0,0,0,0,0,0,0,0,0,0,-4091120,0,0,0,0,1161041,0,0,0,2020101,0,0,2131041,0,0,0,0,0
17,64,809.22089156229,0,0,506756.092037392,506757.139049594,0,40,3,1,0,4,3,4160080,1051200,3130040,2120170,0,0,0,-4160080,0,0,0,0,0,0,0,0,0,0,0,0,1051200,0,3130040,0,0,0,0,0,0,0,0,0,2120170,0,0,0,0,0,0,0
17,65,457.731901085936,1,0,506759.11552848,506760.162504111,0,40,3,0,1,23,7,10252332,4190041,7261202,4220310,0,0,0,0,4080121,0,4061090,0,2111121,0,0,4190041,0,0,0,0,0,0,0,0,0,0,-4180181,0,0,0,3081021,0,0,0,0,0,0,3070170,1150140,0
17,66,441.336413729005,0,0,506761.691878172,506762.738893069,0,40,3,0,0,17,3,4201192,1131170,1060180,0,3090011,1111181,0,0,0,0,0,0,0,0,0,0,0,0,0,0,-1131170,0,0,0,0,0,0,1060180,0,0,0,0,0,0,0,0,0,0,0,0
17,67,1374.99031692278,1,0,506764.374149488,506765.421177089,0,40,3,0,1,7,7,2061190,3090040,15512363,1070101,0,0,0,0,0,0,-2061190,0,0,0,0,0,0,3090040,0,0,0,0,3071020,0,1170081,4100061,0,3110070,0,4061131,0,0,0,0,0,0,0,1070101,0,0
17,68,795.753802231047,0,0,506767.997576056,506769.044599038,0,40,3,0,0,24,3,3090070,3030131,3100080,3121151,0,0,3090070,0,0,0,0,0,0,3030131,0,0,0,0,0,0,0,0,0,0,0,0,0,-3100080,0,0,0,0,0,0,0,0,3121151,0,0,0
17,69,421.491291257553,1,0,506770.891615552,506771.938634683,0,40,3,1,1,20,3,0,2060130,3191370,3050071,0,0,0,0,0,0,0,0,0,0,2060130,0,0,0,0,0,0,0,0,-1141170,0,0,2050200,0,0,0,0,0,0,0,3050071,0,0,0,0,0
17,70,1347.81207307242,0,0,506773.456245493,506774.503265394,0,40,3,0,0,31,7,3170360,0,5261221,10423312,0,0,0,0,0,0,0,2140170,1030190,0,0,0,0,0,0,0,0,0,0,4191140,1070081,0,0,0,0,0,0,4081050,0,0,-1180111,0,2061121,0,3101030,0
17,71,419.233110209461,0,0,506776.973797788,506778.020820384,0,40,3,0,0,15,7,2150061,5222231,4061170,13422261,2150061,0,0,0,0,0,0,0,0,0,3151121,0,0,0,-2071110,0,0,0,0,0,0,0,0,0,0,0,4061170,3050050,3101020,0,4070101,3201090,0,0,0,0
17,72,834.540543903131,0,0,506779.632546064,506780.679569815,0,40,3,1,0,6,3,4141241,6352191,0,0,0,0,1090041,0,0,-3051200,0,0,0,0,3191100,0,0,3161091,0,0,0,0,0,0,0,0,0,0,0,0,0,0,0,0,0,0,0,0,0,0
17,73,433.621411095373,0,0,506794.667410823,506795.71443496,0,40,4,1,0,20,3,0,2060130,3191370,3050071,0,0,0,0,0,0,0,0,0,0,2060130,0,0,0,0,0,0,0,0,-1141170,0,0,2050200,0,0,0,0,0,0,0,3050071,0,0,0,0,0
17,74,1169.15169096319,0,0,506797.30263991,506798.349660581,0,40,4,0,0,31,7,1091120,4040111,8412341,8362432,0,0,0,0,0,0,0,1091120,0,0,0,0,0,0,0,0,4040111,0,0,0,0,4191090,0,1101071,3120180,0,0,0,0,0,-1040100,0,0,4151131,3171201,0
17,75,460.48052230617,1,0,506800.714299453,506801.761329749,0,40,4,1,1,28,7,5220312,5321151,7191261,3182120,0,0,0,0,0,0,0,4050141,1170171,0,0,0,0,0,0,4151041,0,1170110,0,3011141,0,0,0,0,0,0,4180120,-2111020,0,0,1071100,0,0,0,0,0
17,76,374.179974023718,1,0,506803.396585398,506804.443606454,0,40,4,0,1,15,7,5170202,9462432,4342392,0,0,0,0,3050091,2120111,0,0,0,0,0,0,0,0,2091171,-4181060,3190201,0,0,2101170,1191071,0,1050151,0,0,0,0,0,0,0,0,0,0,0,0,0,0
17,77,390.376821509562,1,0,506805.996510099,506807.043531156,0,40,4,1,1,22,7,5281222,4322231,5271300,5310280,0,2111101,0,0,0,0,3170121,0,0,0,0,0,0,0,0,1181150,3141081,0,3101170,0,0,-2170130,0,0,0,0,0,4200180,0,0,0,0,0,0,0,1110100
17,78,567.177842196543,1,0,506808.584669624,506809.63169607,0,40,4,0,1,34,7,3201010,0,8301173,10562582,0,3201010,0,0,0,0,0,0,0,0,0,0,0,0,0,0,0,0,0,0,0,0,3111041,4060041,0,0,1130091,0,0,1110161,0,4140160,0,-3121091,0,2191170
17,79,823.365127202123,1,0,506811.24341713,506812.290443576,0,40,4,1,1,25,3,7080292,2111081,2070190,0,0,0,3030201,0,4050091,0,0,0,0,0,2111081,0,0,0,0,0,0,0,0,0,0,0,0,0,-2070190,0,0,0,0,0,0,0,0,0,0,0
17,80,833.348319807556,1,0,506814.13746163,506815.184485767,0,40,4,1,1,4,3,4160080,1051200,3130040,2120170,0,0,0,-4160080,0,0,0,0,0,0,0,0,0,0,0,0,1051200,0,3130040,0,0,0,0,0,0,0,0,0,2120170,0,0,0,0,0,0,0
17,81,429.670556739438,1,0,506817.207964921,506818.254984822,0,40,4,1,1,10,7,0,4490112,4161381,12352312,0,0,0,0,0,0,0,0,0,-1190040,0,1140011,0,2160061,0,0,0,0,0,0,0,0,0,0,0,3091180,1070201,4131081,4091181,0,0,0,0,0,4130050,0
17,82,425.161509017926,0,0,506819.87847029,506820.925493271,0,40,4,1,0,21,7,7200061,5220131,2360191,4220170,4060010,0,0,3140051,0,0,0,0,0,0,2030091,0,0,0,0,0,0,3190040,0,0,-1170131,0,0,0,0,0,1190060,0,0,0,0,0,3110040,1110130,0,0
17,83,782.159290916752,1,0,506822.478398456,506823.525422207,0,40,4,1,1,6,3,4141241,6352191,0,0,0,0,1090041,0,0,-3051200,0,0,0,0,3191100,0,0,3161091,0,0,0,0,0,0,0,0,0,0,0,0,0,0,0,0,0,0,0,0,0,0
17,84,933.087085315492,0,0,506825.372437951,506826.419465937,0,40,4,0,0,17,7,4101130,14364653,4031140,2150292,0,0,0,0,4101130,0,0,0,0,4061090,0,3101201,0,4011171,0,0,-3191191,0,0,0,0,0,0,0,4031140,0,0,0,0,0,0,0,0,0,1010151,1140141
17,85,810.797306708992,1,0,506828.454704879,506829.501814861,0,40,4,0,1,2,3,1150061,0,7060251,4170180,0,-1150061,0,0,0,0,0,0,0,0,0,0,0,0,0,0,0,0,0,4010120,0,0,0,0,0,0,3050131,0,0,4170180,0,0,0,0,0,0
17,86,1028.60821847571,0,0,506831.489906864,506832.53693562,0,40,4,0,0,7,7,6150270,2030111,12371503,4090201,0,0,0,0,0,0,-4040130,0,2110140,0,0,0,0,2030111,0,0,0,0,3040081,4071101,0,0,0,0,4120151,0,1140170,0,0,0,0,0,0,4090201,0,0
17,87,855.264532321598,1,0,506834.619239888,506835.66625825,0,40,4,0,1,19,3,0,0,7413511,2181040,0,0,0,0,0,0,0,0,0,0,0,0,0,0,0,0,0,0,-2191190,0,0,3071131,0,0,0,0,2151190,2181040,0,0,0,0,0,0,0,0
17,88,566.919533361215,1,0,506837.701501426,506838.748524792,0,40,4,0,1,27,7,3040030,4070031,9481552,8231171,0,0,0,3040030,0,0,0,0,0,0,0,0,0,0,0,0,4070031,0,0,0,2130171,0,0,1050160,3151031,0,-3150190,0,0,0,0,4160110,0,0,4071061,0
17,89,981.396991177462,0,0,506840.372013339,506841.419037861,0,40,4,0,0,5,3,7241250,3101041,3100051,0,0,0,0,3070170,-4171080,0,0,0,0,0,0,0,0,0,0,0,0,3101041,0,0,0,0,0,0,0,3100051,0,0,0,0,0,0,0,0,0,0
17,90,731.854132318404,0,0,506843.442518555,506844.489538456,0,40,4,1,0,29,3,0,2070040,2160160,6081162,0,0,0,0,0,0,0,0,0,2070040,0,0,0,0,0,0,0,0,0,0,0,2160160,0,0,0,0,0,0,-2050091,0,4031071,0,0,0,0,0
17,91,705.766867846251,0,0,506846.277739095,506847.324778245,0,40,4,0,0,13,3,0,1081171,1081010,4262250,0,0,0,0,0,0,0,0,0,0,0,0,-1081171,0,0,0,0,0,0,0,0,0,0,1081010,0,0,0,0,0,0,1111180,0,0,3151070,0,0
17,92,659.339036094025,0,0,506849.112948856,506850.159963368,0,40,4,1,0,26,3,4160090,3131011,2150071,0,0,0,0,0,0,0,0,4160090,0,0,0,0,0,0,0,0,3131011,0,0,0,0,0,0,0,0,-1090060,1060011,0,0,0,0,0,0,0,0,0
17,93,568.65917192772,1,0,506851.924628649,506852.971653555,0,40,4,0,1,23,3,0,2071010,1121010,6221102,0,0,0,0,0,0,0,0,0,2071010,0,0,0,0,0,0,0,0,0,0,0,0,-1121010,0,0,0,0,3161081,0,0,3060021,0,0,0,0,0
17,94,521.351319446694,0,0,506854.653961827,506855.700988658,0,40,4,1,0,9,7,12564513,2130031,7190302,3120091,0,3151141,0,2191100,0,0,4061161,0,-3161111,2130031,0,0,0,0,0,0,0,0,3050141,0,0,4140161,0,0,0,0,0,0,0,0,3120091,0,0,0,0,0
17,95,908.115822647233,1,0,506857.38330001,506858.430314137,0,40,4,1,1,32,7,6200200,9392432,1090091,2021180,0,0,2090140,0,0,0,4110060,0,0,0,2200031,0,0,0,2071151,4011110,1110140,0,0,0,0,0,0,0,0,1090091,0,0,0,0,0,-2021180,0,0,0,0
17,96,793.531807605177,0,0,506860.547916631,506861.594938843,0,40,4,0,0,24,3,3120121,0,4060050,5242181,0,0,0,0,0,0,3120121,0,0,0,0,0,0,0,0,0,0,0,0,0,0,0,0,-4060050,0,0,0,0,4141150,0,0,0,0,0,0,1101031
17,97,607.528680178802,1,0,506876.641580328,506877.688606004,0,40,5,1,1,28,7,5220312,5321151,7191261,3182120,0,0,0,0,0,0,0,4050141,1170171,0,0,0,0,0,0,4151041,0,1170110,0,3011141,0,0,0,0,0,0,4180120,-2111020,0,0,1071100,0,0,0,0,0
17,98,755.033786699642,0,0,506879.417971134,506880.465002199,0,40,5,0,0,5,3,7300101,4101110,0,0,0,0,3170060,0,-4130041,0,0,0,0,3050100,0,0,0,0,1051010,0,0,0,0,0,0,0,0,0,0,0,0,0,0,0,0,0,0,0,0,0
17,99,487.368120695464,1,0,506882.37082458,506883.417849101,0,40,5,1,1,9,7,12564513,2130031,7190302,3120091,0,3151141,0,2191100,0,0,4061161,0,-3161111,2130031,0,0,0,0,0,0,0,0,3050141,0,0,4140161,0,0,0,0,0,0,0,0,3120091,0,0,0,0,0
17,100,515.209267265163,1,0,506884.91194072,506885.958963317,0,40,5,0,1,34,3,3191110,0,1141151,7231232,0,0,0,0,0,0,3191110,0,0,0,0,0,0,0,0,0,0,0,0,1141151,0,0,0,0,0,0,0,0,0,4181031,0,0,0,-3050201,0,0
17,101,405.689798644744,0,0,506887.641270434,506888.688354239,0,40,5,1,0,21,7,7200061,5220131,2360191,4220170,4060010,0,0,3140051,0,0,0,0,0,0,2030091,0,0,0,0,0,0,3190040,0,0,-1170131,0,0,0,0,0,1190060,0,0,0,0,0,3110040,1110130,0,0
17,102,1148.16631405847,1,0,506890.264731264,506891.311746931,0,40,5,0,1,2,7,11432493,1130120,0,6331363,2050161,-4171140,0,0,0,0,2181141,0,3030051,0,0,0,1130120,0,0,0,0,0,0,0,0,0,0,0,0,0,0,2010121,0,0,0,2181201,0,0,2140041,0
17,103,820.19343378488,0,0,506893.558747123,506894.605776649,0,40,5,1,0,32,7,6200200,9392432,1090091,2021180,0,0,2090140,0,0,0,4110060,0,0,0,2200031,0,0,0,2071151,4011110,1110140,0,0,0,0,0,0,0,0,1090091,0,0,0,0,0,-2021180,0,0,0,0
17,104,615.811500232667,1,0,506896.582200484,506897.629225776,0,40,5,1,1,29,3,0,2070040,2160160,6081162,0,0,0,0,0,0,0,0,0,2070040,0,0,0,0,0,0,0,0,0,0,0,2160160,0,0,0,0,0,0,-2050091,0,4031071,0,0,0,0,0
17,105,892.767814046238,0,0,506899.335062092,506900.382077759,0,40,5,0,0,13,7,5320371,6251161,7382371,1051131,0,0,0,0,0,1160201,0,4160170,0,0,0,0,-3070071,0,3181090,0,0,0,0,0,0,0,3181120,3030051,0,1171200,0,1051131,0,0,0,0,0,0,0,0
17,106,697.178388829343,1,1,506902.29967725,506903.346702541,0,40,5,1,0,6,3,4141241,6352191,0,0,0,0,1090041,0,0,-3051200,0,0,0,0,3191100,0,0,3161091,0,0,0,0,0,0,0,0,0,0,0,0,0,0,0,0,0,0,0,0,0,0
17,107,446.170753508341,1,0,506905.099599565,506906.146627551,0,40,5,1,1,22,7,5281222,4322231,5271300,5310280,0,2111101,0,0,0,0,3170121,0,0,0,0,0,0,0,0,1181150,3141081,0,3101170,0,0,-2170130,0,0,0,0,0,4200180,0,0,0,0,0,0,0,1110100
17,108,547.748092503753,1,0,506907.676043573,506908.723035757,0,40,5,0,1,23,3,0,3050191,6111321,1040070,0,0,0,0,0,0,0,0,0,0,0,0,0,0,0,0,3050191,0,0,0,3081121,0,-3030200,0,0,0,0,0,1040070,0,0,0,0,0,0,0
17,109,629.038758808747,0,0,506910.440613383,506911.487654457,0,40,5,0,0,19,7,6212210,5232211,8131200,4391172,3011170,3201040,0,0,0,0,0,0,0,0,0,0,0,1051180,0,0,0,4181031,-4120190,4011010,0,0,0,0,0,0,0,0,0,0,0,0,0,0,2200161,2191011
17,110,700.892877124716,0,0,506913.322902715,506914.369978821,0,40,5,0,0,7,3,4021060,0,3161092,1061041,0,0,0,0,0,0,-4021060,0,0,0,0,0,0,0,0,0,0,0,0,0,0,0,0,1021021,2140071,0,0,0,0,0,0,1061041,0,0,0,0
17,111,437.05333804246,0,0,506916.134588282,506917.181612803,0,40,5,1,0,26,3,4160090,3131011,2150071,0,0,0,0,0,0,0,0,4160090,0,0,0,0,0,0,0,0,3131011,0,0,0,0,0,0,0,0,-1090060,1060011,0,0,0,0,0,0,0,0,0
17,112,686.678963538725,1,0,506918.758044877,506919.805070938,0,40,5,0,1,31,3,1171020,0,4120050,3201142,0,0,0,0,0,0,0,0,1171020,0,0,0,0,0,0,0,0,0,0,0,0,4120050,0,0,0,0,0,0,1111021,0,-2090121,0,0,0,0,0
17,113,482.494514842983,0,0,506921.699139306,506922.746161902,0,40,5,0,0,15,7,2191152,7392521,3171121,6231341,0,0,1140071,0,0,0,1051081,0,0,2131181,0,0,0,3081160,-2180180,0,0,0,0,0,0,0,0,3171121,0,0,0,0,4100140,2131201,0,0,0,0,0,0
17,114,429.208603629377,0,0,506924.334355688,506925.381381749,0,40,5,1,0,20,3,0,2060130,3191370,3050071,0,0,0,0,0,0,0,0,0,0,2060130,0,0,0,0,0,0,0,0,-1141170,0,0,2050200,0,0,0,0,0,0,0,3050071,0,0,0,0,0
17,115,653.373681008816,0,0,506926.840167059,506927.88719081,0,40,5,1,0,25,3,7080292,2111081,2070190,0,0,0,3030201,0,4050091,0,0,0,0,0,2111081,0,0,0,0,0,0,0,0,0,0,0,0,0,-2070190,0,0,0,0,0,0,0,0,0,0,0
17,116,532.192974933423,1,0,506929.628326507,506930.675346793,0,40,5,0,1,27,7,0,12511422,6021172,5263311,0,0,0,0,0,0,0,0,0,0,0,0,0,0,4180191,4150141,4181090,0,0,0,0,0,0,0,0,2011131,-4010041,0,0,3071111,0,0,0,1181030,0,1011170
17,117,828.143647580873,0,0,506932.263544814,506933.310566641,0,40,5,0,0,24,3,0,3160020,3020020,6021391,0,0,0,0,0,0,0,0,0,0,0,0,0,3160020,0,0,0,0,0,0,0,0,0,-3020020,0,0,0,0,0,0,2010200,0,0,0,0,4011191
17,118,587.739761976991,1,0,506935.298780676,506936.3457744,0,40,5,0,1,17,7,2080131,1011160,7201210,13263603,0,0,0,0,2080131,0,0,0,0,0,0,0,0,0,0,0,-1011160,0,3121190,0,0,0,0,0,0,4080020,0,0,4111171,4081150,0,2021201,0,3050081,0,0
17,119,513.082357938401,1,0,506938.063380898,506939.110401955,0,40,5,1,1,10,7,0,4490112,4161381,12352312,0,0,0,0,0,0,0,0,0,-1190040,0,1140011,0,2160061,0,0,0,0,0,0,0,0,0,0,0,3091180,1070201,4131081,4091181,0,0,0,0,0,4130050,0
17,120,940.958382096142,1,0,506940.651547737,506941.698568793,0,40,5,1,1,4,3,4160080,1051200,3130040,2120170,0,0,0,-4160080,0,0,0,0,0,0,0,0,0,0,0,0,1051200,0,3130040,0,0,0,0,0,0,0,0,0,2120170,0,0,0,0,0,0,0
17,121,505.719594599213,0,0,506953.780590501,506954.827613482,0,40,6,1,0,9,7,12564513,2130031,7190302,3120091,0,3151141,0,2191100,0,0,4061161,0,-3161111,2130031,0,0,0,0,0,0,0,0,3050141,0,0,4140161,0,0,0,0,0,0,0,0,3120091,0,0,0,0,0
17,122,969.589083630126,1,0,506956.474688972,506957.521691166,0,40,6,0,1,24,7,7231092,1171041,8281121,1040041,1090011,0,0,0,0,3071061,3070020,0,0,0,0,0,0,0,0,0,1171041,0,0,0,0,0,0,-1060031,4091060,0,3130030,0,0,0,0,0,0,0,0,1040041
17,123,730.422462511342,1,0,506959.662776663,506960.70980003,0,40,6,1,1,6,3,4141241,6352191,0,0,0,0,1090041,0,0,-3051200,0,0,0,0,3191100,0,0,3161091,0,0,0,0,0,0,0,0,0,0,0,0,0,0,0,0,0,0,0,0,0,0
17,124,486.806077649817,1,0,506962.474463385,506963.521500995,0,40,6,1,1,28,7,5220312,5321151,7191261,3182120,0,0,0,0,0,0,0,4050141,1170171,0,0,0,0,0,0,4151041,0,1170110,0,3011141,0,0,0,0,0,0,4180120,-2111020,0,0,1071100,0,0,0,0,0
17,125,1152.80932828318,1,0,506965.015573751,506966.062588263,0,40,6,1,1,25,3,7080292,2111081,2070190,0,0,0,3030201,0,4050091,0,0,0,0,0,2111081,0,0,0,0,0,0,0,0,0,0,0,0,0,-2070190,0,0,0,0,0,0,0,0,0,0,0
17,126,1159.12230301183,0,0,506968.380181826,506969.427199418,0,40,6,0,0,13,7,5030261,3151120,6362370,3141201,0,0,1020191,0,0,0,4010070,0,0,0,0,0,-3151120,0,0,0,0,0,2140190,0,0,0,2021130,2201050,0,0,0,0,0,0,0,2080011,0,0,1061190,0
17,127,754.570678633172,1,0,506971.662442902,506972.709519393,0,40,6,1,1,10,7,0,4490112,4161381,12352312,0,0,0,0,0,0,0,0,0,-1190040,0,1140011,0,2160061,0,0,0,0,0,0,0,0,0,0,0,3091180,1070201,4131081,4091181,0,0,0,0,0,4130050,0
17,128,688.850528327748,1,0,506974.521183402,506975.568204459,0,40,6,1,1,29,3,0,2070040,2160160,6081162,0,0,0,0,0,0,0,0,0,2070040,0,0,0,0,0,0,0,0,0,0,0,2160160,0,0,0,0,0,0,-2050091,0,4031071,0,0,0,0,0
17,129,513.987401209306,0,0,506977.274043085,506978.321068376,0,40,6,0,0,27,7,4242161,1051090,5280272,9421311,0,3201151,0,0,0,0,0,0,1041010,0,0,0,0,0,0,0,1051090,0,0,0,0,0,0,1140081,0,0,-4140191,4071181,2200090,0,0,3150040,0,0,0,0
17,130,527.915288810618,1,0,506979.909264087,506980.956339038,0,40,6,0,1,17,3,3020011,3030171,3191130,1090020,0,0,0,0,0,3020011,0,0,0,0,0,0,0,0,0,0,-3030171,0,0,3191130,0,0,0,0,0,0,0,0,1090020,0,0,0,0,0,0,0
17,131,364.601375418715,0,0,506982.650422881,506983.697433159,0,40,6,1,0,20,3,0,2060130,3191370,3050071,0,0,0,0,0,0,0,0,0,0,2060130,0,0,0,0,0,0,0,0,-1141170,0,0,2050200,0,0,0,0,0,0,0,3050071,0,0,0,0,0
17,132,971.81916248519,1,0,506985.250290993,506986.297317054,0,40,6,1,1,32,7,6200200,9392432,1090091,2021180,0,0,2090140,0,0,0,4110060,0,0,0,2200031,0,0,0,2071151,4011110,1110140,0,0,0,0,0,0,0,0,1090091,0,0,0,0,0,-2021180,0,0,0,0
17,133,594.647501478903,1,0,506988.39138419,506989.438399857,0,40,6,0,1,34,3,4271142,4111160,0,2110071,0,0,0,0,0,3170071,0,1101071,0,0,4111160,0,0,0,0,0,0,0,0,0,0,0,0,0,0,0,0,0,0,0,0,0,0,-2110071,0,0
17,134,421.649510157295,0,0,506991.19135193,506992.238322557,0,40,6,0,0,15,3,1140130,4191080,7140291,0,0,1140130,0,0,0,0,0,0,0,0,0,0,0,0,-4191080,0,0,0,0,4010110,0,0,3130181,0,0,0,0,0,0,0,0,0,0,0,0,0
17,135,462.367600935977,1,0,506993.826520578,506994.87354048,0,40,6,1,1,21,7,7200061,5220131,2360191,4220170,4060010,0,0,3140051,0,0,0,0,0,0,2030091,0,0,0,0,0,0,3190040,0,0,-1170131,0,0,0,0,0,1190060,0,0,0,0,0,3110040,1110130,0,0
17,136,409.809650853276,0,0,506996.544095894,506997.591161606,0,40,6,1,0,22,7,5281222,4322231,5271300,5310280,0,2111101,0,0,0,0,3170121,0,0,0,0,0,0,0,0,1181150,3141081,0,3101170,0,0,-2170130,0,0,0,0,0,4200180,0,0,0,0,0,0,0,1110100
17,137,619.255360914394,0,0,506999.155785002,507000.202810678,0,40,6,0,0,19,3,2072272,0,4071162,0,1061101,1011171,0,0,0,0,0,0,0,0,0,0,0,0,0,0,0,0,-3021091,0,0,0,0,0,0,1050071,0,0,0,0,0,0,0,0,0,0
17,138,830.547728808597,0,0,507001.96746441,507003.014492396,0,40,6,0,0,31,7,4050110,4361291,5261251,9280501,0,0,0,0,0,0,0,0,4050110,3181140,0,0,0,0,0,1180151,0,0,0,0,4200201,0,0,0,0,0,1061050,0,3060190,0,-4120161,0,0,0,2100150,0
17,139,744.189051445574,1,0,507004.955623011,507006.002641373,0,40,6,1,1,26,3,4160090,3131011,2150071,0,0,0,0,0,0,0,0,4160090,0,0,0,0,0,0,0,0,3131011,0,0,0,0,0,0,0,0,-1090060,1060011,0,0,0,0,0,0,0,0,0
17,140,442.328458128031,0,0,507007.755538396,507008.802560608,0,40,6,1,0,4,3,4160080,1051200,3130040,2120170,0,0,0,-4160080,0,0,0,0,0,0,0,0,0,0,0,0,1051200,0,3130040,0,0,0,0,0,0,0,0,0,2120170,0,0,0,0,0,0,0
17,141,549.534696328919,0,0,507010.367230969,507011.414252796,0,40,6,0,0,23,3,0,3170120,2121171,2081160,0,0,0,0,0,0,0,0,0,0,3170120,0,0,0,0,0,0,0,0,0,0,0,-2121171,0,0,0,0,1060130,0,0,0,0,0,0,1021030,0
17,142,1125.35083282273,0,0,507013.002453512,507014.049475338,0,40,6,0,0,7,7,8432512,4020070,3040201,9241371,0,1090161,4201200,0,0,0,-3141151,0,0,0,0,0,0,0,0,4020070,0,0,0,0,0,3040201,0,0,0,0,0,4050061,0,2171190,0,0,0,0,0,3020120
17,143,1005.52749907365,0,0,507016.214126221,507017.261148047,0,40,6,0,0,2,7,8091321,3140222,3011151,4251211,0,-2021090,4050050,0,0,0,0,0,2020181,1060171,0,0,0,0,0,0,2080051,0,0,3011151,0,0,0,0,0,0,0,1191040,0,0,0,3060171,0,0,0,0
17,144,670.533700846136,0,0,507019.402275891,507020.449295792,0,40,6,0,0,5,3,4131010,7221321,0,3111140,0,0,0,0,-4131010,0,0,0,0,0,0,4150171,0,0,3071150,0,0,0,0,0,0,0,0,0,0,0,0,0,0,0,0,0,0,0,3111140,0
17,145,757.901745848358,1,0,507031.107827336,507032.154849162,0,40,7,1,1,4,3,4160080,1051200,3130040,2120170,0,0,0,-4160080,0,0,0,0,0,0,0,0,0,0,0,0,1051200,0,3130040,0,0,0,0,0,0,0,0,0,2120170,0,0,0,0,0,0,0
17,146,575.571530906018,1,0,507033.990096265,507035.037115781,0,40,7,1,1,20,3,0,2060130,3191370,3050071,0,0,0,0,0,0,0,0,0,0,2060130,0,0,0,0,0,0,0,0,-1141170,0,0,2050200,0,0,0,0,0,0,0,3050071,0,0,0,0,0
17,147,1030.26316565229,0,0,507036.731191155,507037.778221066,0,40,7,0,0,24,3,2040160,0,5131302,0,0,0,0,0,2040160,0,0,0,0,0,0,0,0,0,0,0,0,0,3041031,0,1010121,0,0,-1080150,0,0,0,0,0,0,0,0,0,0,0,0
17,148,538.378912664484,1,0,507039.884053378,507040.931069046,0,40,7,1,1,9,7,12564513,2130031,7190302,3120091,0,3151141,0,2191100,0,0,4061161,0,-3161111,2130031,0,0,0,0,0,0,0,0,3050141,0,0,4140161,0,0,0,0,0,0,0,0,3120091,0,0,0,0,0
17,149,529.818150796928,1,0,507042.601621765,507043.648643591,0,40,7,1,1,28,7,5220312,5321151,7191261,3182120,0,0,0,0,0,0,0,4050141,1170171,0,0,0,0,0,0,4151041,0,1170110,0,3011141,0,0,0,0,0,0,4180120,-2111020,0,0,1071100,0,0,0,0,0
17,150,485.167298815213,1,0,507045.213314338,507046.26033039,0,40,7,1,1,22,7,5281222,4322231,5271300,5310280,0,2111101,0,0,0,0,3170121,0,0,0,0,0,0,0,0,1181150,3141081,0,3101170,0,0,-2170130,0,0,0,0,0,4200180,0,0,0,0,0,0,0,1110100
17,151,876.154823810793,0,0,507047.813237885,507048.860260481,0,40,7,1,0,32,7,6200200,9392432,1090091,2021180,0,0,2090140,0,0,0,4110060,0,0,0,2200031,0,0,0,2071151,4011110,1110140,0,0,0,0,0,0,0,0,1090091,0,0,0,0,0,-2021180,0,0,0,0
17,152,538.168723986018,1,0,507050.813155888,507051.86017733,0,40,7,1,1,29,3,0,2070040,2160160,6081162,0,0,0,0,0,0,0,0,0,2070040,0,0,0,0,0,0,0,0,0,0,0,2160160,0,0,0,0,0,0,-2050091,0,4031071,0,0,0,0,0
17,153,437.202702916693,1,0,507053.460135908,507054.507163124,0,40,7,0,1,27,3,0,3232181,3102341,0,0,0,0,0,0,0,0,0,0,0,0,0,0,1151110,0,0,0,2081071,0,2021180,0,0,0,0,0,0,-1081161,0,0,0,0,0,0,0,0,0
17,154,1293.99953514803,0,0,507056.048301977,507057.095317644,0,40,7,0,0,5,7,1101050,3190051,9474551,6222251,0,0,0,0,-1101050,0,0,0,0,0,0,0,0,0,0,3190051,0,0,0,2061200,0,2161200,0,4201020,0,0,1051131,0,2111131,0,0,4111120,0,0,0,0
17,155,1218.63803756423,1,0,507059.424673304,507060.47169744,0,40,7,1,1,10,7,0,4490112,4161381,12352312,0,0,0,0,0,0,0,0,0,-1190040,0,1140011,0,2160061,0,0,0,0,0,0,0,0,0,0,0,3091180,1070201,4131081,4091181,0,0,0,0,0,4130050,0
17,156,686.874138715211,1,0,507062.777525826,507063.824550733,0,40,7,0,1,15,3,0,5282271,1101121,3101171,0,0,0,0,0,0,0,0,0,0,0,0,0,0,-4171150,0,0,1111121,0,1101121,0,0,0,0,0,0,0,0,0,0,0,3101171,0,0,0,0
17,157,598.756189807318,0,0,507065.577490872,507066.624475357,0,40,7,0,0,7,3,5141251,0,5161211,0,0,0,0,0,0,0,-3110130,2031121,0,0,0,0,0,0,0,0,0,0,0,0,0,3131140,0,0,2030071,0,0,0,0,0,0,0,0,0,0,0
17,158,480.190523550846,0,0,507068.247960055,507069.294974567,0,40,7,1,0,21,7,7200061,5220131,2360191,4220170,4060010,0,0,3140051,0,0,0,0,0,0,2030091,0,0,0,0,0,0,3190040,0,0,-1170131,0,0,0,0,0,1190060,0,0,0,0,0,3110040,1110130,0,0
17,159,573.654040403198,0,0,507070.918473508,507071.965495719,0,40,7,0,0,23,3,0,4110150,4162200,2041031,0,0,0,0,0,0,0,0,0,4110150,0,0,0,0,0,0,0,0,0,2081050,0,0,-2081150,0,0,0,0,2041031,0,0,0,0,0,0,0,0
17,160,612.191712309141,0,0,507073.588980032,507074.636011097,0,40,7,1,0,26,3,4160090,3131011,2150071,0,0,0,0,0,0,0,0,4160090,0,0,0,0,0,0,0,0,3131011,0,0,0,0,0,0,0,0,-1090060,1060011,0,0,0,0,0,0,0,0,0
17,161,957.453189301305,0,0,507076.447731311,507077.494745438,0,40,7,1,0,25,3,7080292,2111081,2070190,0,0,0,3030201,0,4050091,0,0,0,0,0,2111081,0,0,0,0,0,0,0,0,0,0,0,0,0,-2070190,0,0,0,0,0,0,0,0,0,0,0
17,162,917.416479438543,1,0,507079.494694623,507080.541723764,0,40,7,0,1,17,3,3240170,3201060,2120080,0,0,0,0,1100070,0,0,0,2140100,0,0,0,0,0,0,0,0,-3201060,0,2120080,0,0,0,0,0,0,0,0,0,0,0,0,0,0,0,0,0
17,163,761.416054447182,1,0,507082.494613782,507083.541638688,0,40,7,0,1,19,7,4041070,3201242,4111121,8411202,0,0,0,0,4041070,0,0,0,0,1050101,0,0,0,2151141,0,0,0,0,-1040071,0,0,0,3071050,0,0,0,0,0,0,2150070,0,2081041,0,0,4180091,0
17,164,1856.23694362585,0,0,507085.329831627,507086.376849989,0,40,7,0,0,2,7,8532333,5220121,3230291,3101140,0,-3190071,0,0,0,0,2151111,3191151,0,0,0,0,0,0,3130031,0,0,2090090,0,0,0,0,1120110,0,2110181,0,0,0,0,0,0,0,0,0,0,3101140
17,165,644.302460947074,1,0,507089.282656201,507090.329678413,0,40,7,1,1,6,3,4141241,6352191,0,0,0,0,1090041,0,0,-3051200,0,0,0,0,3191100,0,0,3161091,0,0,0,0,0,0,0,0,0,0,0,0,0,0,0,0,0,0,0,0,0,0
17,166,1893.969277211,1,0,507092.10610887,507093.153127617,0,40,7,0,1,31,7,9331493,3191151,3010050,7261312,0,0,2041191,4100111,0,3190191,0,0,0,2080020,0,1111131,0,0,0,0,0,0,0,0,0,0,0,0,0,0,3010050,0,4110131,0,-3151181,0,0,0,0,0
17,167,1033.25585217681,0,0,507096.176585983,507097.223603575,0,40,7,0,0,34,7,7282332,6342141,2180081,7302141,0,0,0,0,1051180,0,2050011,4181141,0,2161011,0,0,0,4181130,0,0,0,0,0,0,0,0,2180081,0,0,0,0,0,0,0,0,0,0,-4141020,3161121,0
17,168,730.599544534925,0,0,507099.388252533,507100.435277824,0,40,7,0,0,13,7,10293423,5311181,5311100,3090070,0,0,3091111,0,0,3071141,0,0,4131171,0,0,0,-1111070,0,0,0,4200111,0,0,0,2150050,0,0,0,3161050,0,0,0,0,0,0,0,0,3090070,0,0
17,169,584.288971906062,1,0,507117.258340142,507118.305367358,0,40,8,1,1,29,3,0,2070040,2160160,6081162,0,0,0,0,0,0,0,0,0,2070040,0,0,0,0,0,0,0,0,0,0,0,2160160,0,0,0,0,0,0,-2050091,0,4031071,0,0,0,0,0
17,170,866.286734526511,1,0,507119.952385104,507120.99941001,0,40,8,1,1,32,7,6200200,9392432,1090091,2021180,0,0,2090140,0,0,0,4110060,0,0,0,2200031,0,0,0,2071151,4011110,1110140,0,0,0,0,0,0,0,0,1090091,0,0,0,0,0,-2021180,0,0,0,0
17,171,731.932279421017,0,0,507123.034649722,507124.081674628,0,40,8,0,0,7,3,6311101,0,0,1070111,0,0,2030020,0,0,3140040,-1141041,0,0,0,0,0,0,0,0,0,0,0,0,0,0,0,0,0,0,0,0,0,0,0,0,0,0,0,1070111,0
17,172,906.201796722598,1,0,507125.893391377,507126.940415513,0,40,8,0,1,31,7,3212180,2041181,6252132,6201362,1151070,0,2061110,0,0,0,0,0,0,0,0,1020100,0,1021081,0,0,0,0,0,4071101,0,0,0,0,0,0,2181031,0,0,0,-3070161,0,0,3131201,0,0
17,173,439.378117327578,0,0,507128.952138729,507129.999154781,0,40,8,1,0,20,3,0,2060130,3191370,3050071,0,0,0,0,0,0,0,0,0,0,2060130,0,0,0,0,0,0,0,0,-1141170,0,0,2050200,0,0,0,0,0,0,0,3050071,0,0,0,0,0
17,174,1123.66970832227,0,0,507131.563841311,507132.610846199,0,40,8,0,0,2,3,3171030,2160070,0,5261192,0,-3171030,0,0,0,0,0,0,0,0,0,0,0,0,0,0,0,2160070,0,0,0,0,0,0,0,0,0,0,2200011,0,0,3061181,0,0,0,0
17,175,986.677885695826,0,0,507134.904934816,507135.95192854,0,40,8,0,0,24,3,4070021,3081061,2181171,2060171,0,0,0,4070021,0,0,0,0,0,0,3081061,0,0,0,0,0,0,0,0,0,0,0,0,-2181171,0,0,0,0,0,0,0,0,0,0,0,2060171
17,176,649.288860266097,1,0,507137.987169406,507139.034190463,0,40,8,0,1,19,7,12373583,3161101,6270271,2021121,4141061,0,0,4011171,0,2021200,0,2200151,0,0,0,0,0,3161101,0,0,0,0,-3070131,0,3200140,0,0,0,0,0,0,0,0,2021121,0,0,0,0,0,0
17,177,767.914580414072,1,0,507140.857738987,507141.904741566,0,40,8,1,1,28,7,5220312,5321151,7191261,3182120,0,0,0,0,0,0,0,4050141,1170171,0,0,0,0,0,0,4151041,0,1170110,0,3011141,0,0,0,0,0,0,4180120,-2111020,0,0,1071100,0,0,0,0,0
17,178,459.671334421728,1,0,507143.751714194,507144.798746799,0,40,8,1,1,26,3,4160090,3131011,2150071,0,0,0,0,0,0,0,0,4160090,0,0,0,0,0,0,0,0,3131011,0,0,0,0,0,0,0,0,-1090060,1060011,0,0,0,0,0,0,0,0,0
17,179,414.73946091719,0,0,507146.292818786,507147.339844847,0,40,8,1,0,21,7,7200061,5220131,2360191,4220170,4060010,0,0,3140051,0,0,0,0,0,0,2030091,0,0,0,0,0,0,3190040,0,0,-1170131,0,0,0,0,0,1190060,0,0,0,0,0,3110040,1110130,0,0
17,180,843.377707758918,0,0,507148.928042098,507149.975063924,0,40,8,0,0,23,7,4100191,4101161,10413503,8240192,0,0,0,0,4100191,0,0,0,0,0,0,0,0,0,0,0,0,4101161,4130161,0,0,0,-4151070,0,1121091,1011181,0,0,0,0,0,0,4060031,4180161,0,0
17,181,858.501284033991,1,0,507151.986783676,507153.033804732,0,40,8,1,1,6,3,4141241,6352191,0,0,0,0,1090041,0,0,-3051200,0,0,0,0,3191100,0,0,3161091,0,0,0,0,0,0,0,0,0,0,0,0,0,0,0,0,0,0,0,0,0,0
17,182,691.52485212544,1,0,507155.033751993,507156.080772279,0,40,8,0,1,13,3,2071111,4121020,1141041,4191131,0,0,0,0,0,0,0,0,2071111,0,0,0,-4121020,0,0,0,0,0,0,0,0,0,0,0,0,1141041,0,0,0,0,0,4191131,0,0,0,0
17,183,464.459093869664,0,0,507157.774854197,507158.821874869,0,40,8,0,0,15,7,0,16575622,4161190,2011030,0,0,0,0,0,0,0,0,0,2040110,4051080,0,1191141,0,-4061160,0,1161110,4071021,0,0,0,0,0,0,0,0,4161190,0,0,0,0,0,0,2011030,0,0
17,184,1082.18785497593,0,0,507160.410074815,507161.457094716,0,40,8,0,0,34,7,0,3282272,6241350,7382211,0,0,0,0,0,0,0,0,0,0,1051061,1191151,0,1040060,0,0,0,0,3060200,0,0,0,0,3181150,0,0,0,0,0,4050020,1191181,0,0,-2141010,0,0
17,185,511.229925847147,0,0,507163.65703882,507164.704065651,0,40,8,0,0,27,3,3191120,4201101,1090101,1121171,0,0,3191120,0,0,0,0,0,0,0,4201101,0,0,0,0,0,0,0,0,0,0,0,0,0,0,0,-1090101,0,0,0,0,0,1121171,0,0,0
17,186,908.279431052506,0,0,507166.409901967,507167.456926488,0,40,8,1,0,4,3,4160080,1051200,3130040,2120170,0,0,0,-4160080,0,0,0,0,0,0,0,0,0,0,0,0,1051200,0,3130040,0,0,0,0,0,0,0,0,0,2120170,0,0,0,0,0,0,0
17,187,477.211695630103,1,0,507169.503930607,507170.550955128,0,40,8,1,1,22,7,5281222,4322231,5271300,5310280,0,2111101,0,0,0,0,3170121,0,0,0,0,0,0,0,0,1181150,3141081,0,3101170,0,0,-2170130,0,0,0,0,0,4200180,0,0,0,0,0,0,0,1110100
17,188,507.68135569524,1,0,507172.174451374,507173.221472816,0,40,8,0,1,17,7,3351070,6300262,7220300,1050040,1150040,2201030,0,0,0,0,0,0,0,0,0,0,3030031,1120050,0,0,-2150181,0,0,0,0,0,3020110,4200190,0,0,0,0,0,0,0,0,1050040,0,0,0
17,189,470.408665481955,0,0,507174.903776853,507175.950802914,0,40,8,1,0,9,7,12564513,2130031,7190302,3120091,0,3151141,0,2191100,0,0,4061161,0,-3161111,2130031,0,0,0,0,0,0,0,0,3050141,0,0,4140161,0,0,0,0,0,0,0,0,3120091,0,0,0,0,0
17,190,962.791827914771,0,0,507177.574298006,507178.621372572,0,40,8,1,0,25,3,7080292,2111081,2070190,0,0,0,3030201,0,4050091,0,0,0,0,0,2111081,0,0,0,0,0,0,0,0,0,0,0,0,0,-2070190,0,0,0,0,0,0,0,0,0,0,0
17,191,1203.28348467592,1,0,507180.738914627,507181.785936454,0,40,8,0,1,5,3,2071351,2160061,0,4121050,0,0,0,0,-1020180,0,1051171,0,0,0,0,0,0,2160061,0,0,0,0,0,0,0,0,0,0,0,0,0,0,0,0,4121050,0,0,0,0,0
17,192,587.27742388146,1,0,507184.044699897,507185.091727883,0,40,8,1,1,10,7,0,4490112,4161381,12352312,0,0,0,0,0,0,0,0,0,-1190040,0,1140011,0,2160061,0,0,0,0,0,0,0,0,0,0,0,3091180,1070201,4131081,4091181,0,0,0,0,0,4130050,0
17,193,783.125542919151,1,0,507198.314884363,507199.361908884,0,40,9,0,1,5,3,4172341,5201211,0,0,0,0,0,0,-1041190,0,0,3131151,0,0,0,0,0,4150111,0,1051100,0,0,0,0,0,0,0,0,0,0,0,0,0,0,0,0,0,0,0,0
17,194,1018.22697627358,1,0,507201.22069481,507202.267715866,0,40,9,0,1,34,7,0,15624631,2020111,6282300,0,0,0,0,0,0,0,0,0,4021200,0,1130111,0,0,2101160,4181070,0,4191090,0,0,0,0,0,2020111,0,0,0,0,0,0,0,0,4181180,-2101120,0,0
17,195,1216.31441323552,1,0,507204.326483622,507205.373504293,0,40,9,0,1,19,3,0,3051020,1021011,5291290,0,0,0,0,0,0,0,0,0,0,0,0,0,0,0,0,0,3051020,-1021011,0,0,0,0,0,0,0,0,0,0,0,0,0,0,3111190,0,2180100
17,196,456.912704161368,1,0,507207.596980291,507208.644064096,0,40,9,1,1,22,7,5281222,4322231,5271300,5310280,0,2111101,0,0,0,0,3170121,0,0,0,0,0,0,0,0,1181150,3141081,0,3101170,0,0,-2170130,0,0,0,0,0,4200180,0,0,0,0,0,0,0,1110100
17,197,1066.07762374915,1,0,507210.30278273,507211.349811871,0,40,9,0,1,7,3,3131201,1071021,0,6201220,0,0,0,0,0,0,-3131201,0,0,0,0,0,0,0,1071021,0,0,0,0,0,0,0,0,0,0,0,0,0,0,0,4061020,0,0,0,2140200,0
17,198,918.949009035714,0,0,507213.54975174,507214.596779341,0,40,9,1,0,6,3,4141241,6352191,0,0,0,0,1090041,0,0,-3051200,0,0,0,0,3191100,0,0,3161091,0,0,0,0,0,0,0,0,0,0,0,0,0,0,0,0,0,0,0,0,0,0
17,199,555.814564460889,0,0,507216.537903027,507217.584981827,0,40,9,1,0,4,3,4160080,1051200,3130040,2120170,0,0,0,-4160080,0,0,0,0,0,0,0,0,0,0,0,0,1051200,0,3130040,0,0,0,0,0,0,0,0,0,2120170,0,0,0,0,0,0,0
17,200,704.17774899397,0,0,507219.196651688,507220.243678904,0,40,9,1,0,29,3,0,2070040,2160160,6081162,0,0,0,0,0,0,0,0,0,2070040,0,0,0,0,0,0,0,0,0,0,0,2160160,0,0,0,0,0,0,-2050091,0,4031071,0,0,0,0,0
17,201,753.594802576117,1,0,507221.973044804,507223.020084339,0,40,9,0,1,13,7,6152151,6171251,6201221,3231241,4111091,0,0,0,0,0,2041060,0,0,0,0,0,-2130071,4041180,0,0,0,0,0,0,2070101,0,0,0,0,0,4131120,0,0,2101071,0,0,0,0,1130170,0
17,202,476.594218227547,0,0,507224.972970506,507226.020052772,0,40,9,1,0,20,3,0,2060130,3191370,3050071,0,0,0,0,0,0,0,0,0,0,2060130,0,0,0,0,0,0,0,0,-1141170,0,0,2050200,0,0,0,0,0,0,0,3050071,0,0,0,0,0
17,203,829.196130856872,0,0,507227.549364084,507228.596387451,0,40,9,1,0,28,7,5220312,5321151,7191261,3182120,0,0,0,0,0,0,0,4050141,1170171,0,0,0,0,0,0,4151041,0,1170110,0,3011141,0,0,0,0,0,0,4180120,-2111020,0,0,1071100,0,0,0,0,0
17,204,576.444237492979,0,0,507230.502215991,507231.549243207,0,40,9,0,0,17,3,0,2041180,6270270,1030171,0,0,0,0,0,0,0,0,0,0,0,0,0,0,0,0,-2041180,0,0,3170200,3100070,0,0,0,0,0,0,0,0,0,0,0,1030171,0,0,0
17,205,1292.48317389283,0,0,507233.255080678,507234.302105584,0,40,9,0,0,31,7,4191021,8592292,3131120,7250142,0,0,0,0,0,0,0,0,4191021,0,1100020,3161141,0,0,0,2181010,2150121,0,0,0,0,0,0,3131120,0,0,0,0,3090091,0,-4160051,0,0,0,0,0
17,206,1615.71718478808,0,0,507236.607928195,507237.654959646,0,40,9,0,0,2,7,2171200,10330372,3180191,6151222,0,-2171200,0,0,0,0,0,0,0,0,2060110,4150070,0,0,0,0,1090121,3030071,0,0,3180191,0,0,0,0,0,0,4140171,0,0,2011051,0,0,0,0,0
17,207,560.941089643165,1,0,507240.419663037,507241.466604792,0,40,9,0,1,24,3,3131190,2061171,6231122,0,0,3131190,0,0,0,0,0,0,0,0,0,0,2061171,0,0,0,0,0,0,4060091,0,0,0,-2171031,0,0,0,0,0,0,0,0,0,0,0,0
17,208,712.195330939721,1,0,507243.231269687,507244.278297288,0,40,9,1,1,25,3,7080292,2111081,2070190,0,0,0,3030201,0,4050091,0,0,0,0,0,2111081,0,0,0,0,0,0,0,0,0,0,0,0,0,-2070190,0,0,0,0,0,0,0,0,0,0,0
17,209,682.96062562149,1,0,507246.01942798,507247.066450577,0,40,9,0,1,23,7,4291181,9381241,8161231,3010051,0,0,3180160,0,1111021,0,0,0,0,0,0,3101170,4100060,0,0,0,2180011,0,0,0,0,4121141,-4040090,0,0,0,0,0,0,0,0,0,0,3010051,0,0
17,210,876.267617335543,0,0,507248.87817387,507249.925199546,0,40,9,1,0,32,7,6200200,9392432,1090091,2021180,0,0,2090140,0,0,0,4110060,0,0,0,2200031,0,0,0,2071151,4011110,1110140,0,0,0,0,0,0,0,0,1090091,0,0,0,0,0,-2021180,0,0,0,0
17,211,532.583325402811,1,0,507251.889847426,507252.936880416,0,40,9,0,1,15,7,7171231,1070201,14290381,2141030,3020160,0,0,0,0,0,0,4151071,0,0,0,0,0,0,-1070201,0,0,0,0,4070030,3040201,0,3130130,0,0,4050020,0,0,0,2141030,0,0,0,0,0,0
17,212,496.938250144012,1,0,507254.607428131,507255.654452267,0,40,9,1,1,26,3,4160090,3131011,2150071,0,0,0,0,0,0,0,0,4160090,0,0,0,0,0,0,0,0,3131011,0,0,0,0,0,0,0,0,-1090060,1060011,0,0,0,0,0,0,0,0,0
17,213,404.740484897047,0,0,507257.242667611,507258.289742563,0,40,9,1,0,21,7,7200061,5220131,2360191,4220170,4060010,0,0,3140051,0,0,0,0,0,0,2030091,0,0,0,0,0,0,3190040,0,0,-1170131,0,0,0,0,0,1190060,0,0,0,0,0,3110040,1110130,0,0
17,214,473.656966118142,1,0,507259.842577685,507260.889590272,0,40,9,1,1,9,7,12564513,2130031,7190302,3120091,0,3151141,0,2191100,0,0,4061161,0,-3161111,2130031,0,0,0,0,0,0,0,0,3050141,0,0,4140161,0,0,0,0,0,0,0,0,3120091,0,0,0,0,0
17,215,487.224145268556,0,0,507262.418967413,507263.465990009,0,40,9,1,0,10,7,0,4490112,4161381,12352312,0,0,0,0,0,0,0,0,0,-1190040,0,1140011,0,2160061,0,0,0,0,0,0,0,0,0,0,0,3091180,1070201,4131081,4091181,0,0,0,0,0,4130050,0
17,216,500.627716013696,0,0,507265.030657676,507266.077684122,0,40,9,0,0,27,3,4010061,3020121,5280210,0,0,0,0,0,0,0,0,0,4010061,0,0,0,3020121,0,0,0,0,0,0,0,0,0,2160040,0,0,0,-3120170,0,0,0,0,0,0,0,0,0
17,217,1101.38046869542,0,0,507271.006953705,507272.053985926,0,40,10,0,0,13,7,4040111,8403312,6211281,2081091,0,0,4040111,0,0,0,0,0,0,0,4121200,0,-1111091,0,0,0,3171021,0,4060110,0,0,0,0,0,0,2151171,0,0,0,0,0,1010060,1071031,0,0,0
17,218,644.956124655437,0,0,507274.28922864,507275.336242382,0,40,10,0,0,2,3,5090241,2200131,0,0,0,-2060170,0,0,3030071,0,0,0,0,0,1140081,0,0,0,0,1060050,0,0,0,0,0,0,0,0,0,0,0,0,0,0,0,0,0,0,0,0
17,219,447.043844964355,1,0,507277.042089092,507278.089112843,0,40,10,1,1,22,7,5281222,4322231,5271300,5310280,0,2111101,0,0,0,0,3170121,0,0,0,0,0,0,0,0,1181150,3141081,0,3101170,0,0,-2170130,0,0,0,0,0,4200180,0,0,0,0,0,0,0,1110100
17,220,638.666632468812,0,0,507279.712598696,507280.759626297,0,40,10,0,0,15,7,2010131,3040071,8243251,10401271,0,2010131,0,0,0,0,0,0,0,0,0,0,0,0,-3040071,0,0,0,0,0,1051021,0,0,3181030,0,4011200,0,3180011,0,0,0,0,0,4180150,0,3041110
17,221,521.395204938017,1,0,507282.606637806,507283.653661558,0,40,10,0,1,7,3,6232221,0,1181020,0,1040050,3051051,0,0,0,0,-2141120,0,0,0,0,0,0,0,0,0,0,0,0,0,0,0,1181020,0,0,0,0,0,0,0,0,0,0,0,0,0
17,222,792.552851897199,1,0,507285.359497874,507286.40652201,0,40,10,0,1,23,7,4121050,12241371,2161302,2120111,0,0,0,0,0,4121050,0,0,0,1130090,0,0,0,3020100,4020061,4071120,0,0,0,0,0,0,-1041201,0,0,0,1120101,0,0,0,2120111,0,0,0,0,0
17,223,413.637317658868,0,0,507288.312413683,507289.359378921,0,40,10,1,0,21,7,7200061,5220131,2360191,4220170,4060010,0,0,3140051,0,0,0,0,0,0,2030091,0,0,0,0,0,0,3190040,0,0,-1170131,0,0,0,0,0,1190060,0,0,0,0,0,3110040,1110130,0,0
17,224,538.191821658984,1,0,507290.888753367,507291.935779428,0,40,10,0,1,17,3,6211151,4030181,0,4110060,0,0,0,0,3190030,0,3021121,0,0,0,0,0,0,0,0,0,-4030181,0,0,0,0,0,0,0,0,0,0,0,0,0,0,0,4110060,0,0,0
17,225,769.969887041952,1,0,507293.618091935,507294.665116456,0,40,10,1,1,28,7,5220312,5321151,7191261,3182120,0,0,0,0,0,0,0,4050141,1170171,0,0,0,0,0,0,4151041,0,1170110,0,3011141,0,0,0,0,0,0,4180120,-2111020,0,0,1071100,0,0,0,0,0
17,226,806.667830504011,1,0,507296.559217545,507297.606209345,0,40,10,0,1,34,7,3022312,7400321,2200081,7303442,0,0,0,0,0,1011111,2011201,0,0,0,0,0,0,0,0,4200201,3200120,0,0,0,0,0,0,2200081,0,0,0,0,2061170,0,1191081,0,0,-4051191,0,0
17,227,1111.21083173202,0,0,507299.570872623,507300.61789368,0,40,10,0,0,5,3,2140010,1021100,2191040,1010140,0,0,0,0,-2140010,0,0,0,0,0,0,0,1021100,0,0,0,0,0,0,0,0,0,0,0,0,2191040,0,0,0,0,0,0,0,0,0,1010140
17,228,1270.08114074124,0,0,507302.770771686,507303.817799672,0,40,10,0,0,19,7,5191131,4150041,6351362,3241121,0,0,0,0,2090040,3101091,0,0,0,0,4150041,0,0,0,0,0,0,0,-2110161,0,0,3100090,0,0,0,0,1141111,0,0,1130030,0,0,0,0,0,2111091
17,229,897.234516101889,0,0,507306.123621129,507307.170646035,0,40,10,0,0,31,7,7272223,2292210,0,7351382,0,0,0,3041091,0,0,0,3101061,1130071,1201050,1091160,0,0,0,0,0,0,0,0,0,0,0,0,0,0,0,0,1060141,0,0,-2120101,0,0,0,4171140,0
17,230,643.292708322406,1,0,507309.276476038,507310.3234944,0,40,10,1,1,25,3,7080292,2111081,2070190,0,0,0,3030201,0,4050091,0,0,0,0,0,2111081,0,0,0,0,0,0,0,0,0,0,0,0,0,-2070190,0,0,0,0,0,0,0,0,0,0,0
17,231,495.441136998124,1,0,507312.123452516,507313.170479732,0,40,10,1,1,29,3,0,2070040,2160160,6081162,0,0,0,0,0,0,0,0,0,2070040,0,0,0,0,0,0,0,0,0,0,0,2160160,0,0,0,0,0,0,-2050091,0,4031071,0,0,0,0,0
17,232,450.035376590677,1,0,507314.758675443,507315.805701119,0,40,10,1,1,20,3,0,2060130,3191370,3050071,0,0,0,0,0,0,0,0,0,0,2060130,0,0,0,0,0,0,0,0,-1141170,0,0,2050200,0,0,0,0,0,0,0,3050071,0,0,0,0,0
17,233,903.114024840761,0,0,507317.358597065,507318.405620046,0,40,10,1,0,32,7,6200200,9392432,1090091,2021180,0,0,2090140,0,0,0,4110060,0,0,0,2200031,0,0,0,2071151,4011110,1110140,0,0,0,0,0,0,0,0,1090091,0,0,0,0,0,-2021180,0,0,0,0
17,234,432.196670619305,0,0,507320.511458518,507321.55848227,0,40,10,1,0,10,7,0,4490112,4161381,12352312,0,0,0,0,0,0,0,0,0,-1190040,0,1140011,0,2160061,0,0,0,0,0,0,0,0,0,0,0,3091180,1070201,4131081,4091181,0,0,0,0,0,4130050,0
17,235,803.063441009726,0,0,507323.05256003,507324.099581857,0,40,10,0,0,24,3,2041051,4081121,4071150,2110041,0,0,0,0,0,0,0,2041051,0,0,0,0,4081121,0,0,0,0,0,0,0,0,0,0,-4071150,0,0,0,0,0,0,0,0,0,0,0,2110041
17,236,534.967388608493,0,0,507325.993656384,507327.040677825,0,40,10,1,0,26,3,4160090,3131011,2150071,0,0,0,0,0,0,0,0,4160090,0,0,0,0,0,0,0,0,3131011,0,0,0,0,0,0,0,0,-1090060,1060011,0,0,0,0,0,0,0,0,0
17,237,435.995080391876,1,0,507328.640640638,507329.687657845,0,40,10,0,1,27,3,2051161,6141221,4080121,0,0,0,0,0,0,0,0,2051161,0,0,0,0,0,0,0,3051190,3090031,0,0,0,0,0,0,0,0,0,-4080121,0,0,0,0,0,0,0,0,0
17,238,865.18690106459,0,0,507331.29938622,507332.346410356,0,40,10,1,0,4,3,4160080,1051200,3130040,2120170,0,0,0,-4160080,0,0,0,0,0,0,0,0,0,0,0,0,1051200,0,3130040,0,0,0,0,0,0,0,0,0,2120170,0,0,0,0,0,0,0
17,239,503.334761480801,1,0,507334.405184271,507335.452208022,0,40,10,1,1,9,7,12564513,2130031,7190302,3120091,0,3151141,0,2191100,0,0,4061161,0,-3161111,2130031,0,0,0,0,0,0,0,0,3050141,0,0,4140161,0,0,0,0,0,0,0,0,3120091,0,0,0,0,0
17,240,881.209361250512,0,0,507336.993343795,507338.040371781,0,40,10,1,0,6,3,4141241,6352191,0,0,0,0,1090041,0,0,-3051200,0,0,0,0,3191100,0,0,3161091,0,0,0,0,0,0,0,0,0,0,0,0,0,0,0,0,0,0,0,0,0,0
17,241,505.431258876342,0,0,507343.451980895,507344.499006571,0,40,11,1,0,26,3,4160090,3131011,2150071,0,0,0,0,0,0,0,0,4160090,0,0,0,0,0,0,0,0,3131011,0,0,0,0,0,0,0,0,-1090060,1060011,0,0,0,0,0,0,0,0,0
17,242,850.722377886996,0,0,507346.216609219,507347.263694179,0,40,11,1,0,25,3,7080292,2111081,2070190,0,0,0,3030201,0,4050091,0,0,0,0,0,2111081,0,0,0,0,0,0,0,0,0,0,0,0,0,-2070190,0,0,0,0,0,0,0,0,0,0,0
17,243,526.150627760217,0,0,507349.181231692,507350.228261987,0,40,11,0,0,19,3,0,6412232,2150201,0,0,0,0,0,0,0,0,0,0,0,1141171,3150021,0,2121040,0,0,0,0,-2150201,0,0,0,0,0,0,0,0,0,0,0,0,0,0,0,0,0
17,244,419.505277648568,0,0,507351.898807007,507352.945826524,0,40,11,1,0,20,3,0,2060130,3191370,3050071,0,0,0,0,0,0,0,0,0,0,2060130,0,0,0,0,0,0,0,0,-1141170,0,0,2050200,0,0,0,0,0,0,0,3050071,0,0,0,0,0
17,245,684.258714027237,1,0,507354.522263603,507355.569282734,0,40,11,1,1,28,7,5220312,5321151,7191261,3182120,0,0,0,0,0,0,0,4050141,1170171,0,0,0,0,0,0,4151041,0,1170110,0,3011141,0,0,0,0,0,0,4180120,-2111020,0,0,1071100,0,0,0,0,0
17,246,593.457972106989,1,0,507357.381004873,507358.428025544,0,40,11,1,1,29,3,0,2070040,2160160,6081162,0,0,0,0,0,0,0,0,0,2070040,0,0,0,0,0,0,0,0,0,0,0,2160160,0,0,0,0,0,0,-2050091,0,4031071,0,0,0,0,0
17,247,634.85128438333,1,0,507360.157399144,507361.204419815,0,40,11,1,1,10,7,0,4490112,4161381,12352312,0,0,0,0,0,0,0,0,0,-1190040,0,1140011,0,2160061,0,0,0,0,0,0,0,0,0,0,0,3091180,1070201,4131081,4091181,0,0,0,0,0,4130050,0
17,248,754.662684339564,0,0,507362.992675118,507364.039633041,0,40,11,0,0,31,7,5230151,2120141,10681262,3010150,0,2150060,0,0,0,0,0,0,3080091,0,0,0,0,0,0,2120141,0,0,0,4131010,0,0,1200031,2190130,3160091,0,0,0,0,0,-3010150,0,0,0,0,0
17,249,989.568172546569,1,0,507365.839598472,507366.886642241,0,40,11,0,1,34,7,4131171,2151380,7121232,9222242,0,0,0,0,4131171,0,0,0,0,0,0,0,1030200,0,0,1121180,0,0,0,0,0,0,4030131,3091101,0,0,0,0,0,0,1090071,0,0,-4071131,4061040,0
17,250,447.285985341296,1,0,507369.015971416,507370.062996707,0,40,11,0,1,27,3,0,0,1100031,6231432,0,0,0,0,0,0,0,0,0,0,0,0,0,0,0,0,0,0,0,0,0,0,0,0,0,0,-1100031,2120061,0,0,0,3050171,0,0,1061200,0
17,251,856.353586830664,0,0,507371.521789331,507372.568811927,0,40,11,0,0,17,7,8322253,8251241,4041161,4261231,2111081,0,4140061,2071111,0,0,0,0,0,0,0,0,0,0,4060190,0,-4191051,0,0,0,0,0,4041161,0,0,0,0,0,1140120,0,0,0,0,0,0,3121111
17,252,696.179800084792,1,0,507374.509935613,507375.556966293,0,40,11,0,1,7,3,3020011,5182242,4090041,0,0,0,0,0,0,0,-3020011,0,0,0,0,0,3021121,0,2161121,0,0,0,0,0,0,0,0,4090041,0,0,0,0,0,0,0,0,0,0,0,0
17,253,1121.93738395581,1,0,507377.345154613,507378.392169895,0,40,11,1,1,32,7,6200200,9392432,1090091,2021180,0,0,2090140,0,0,0,4110060,0,0,0,2200031,0,0,0,2071151,4011110,1110140,0,0,0,0,0,0,0,0,1090091,0,0,0,0,0,-2021180,0,0,0,0
17,254,497.633104678243,0,0,507380.627413379,507381.67448833,0,40,11,0,0,13,3,2010081,5162222,4170030,0,0,0,0,2010081,0,0,0,0,0,0,0,0,-1061161,0,0,4101061,0,0,0,0,0,0,0,0,4170030,0,0,0,0,0,0,0,0,0,0,0
17,255,479.280090890825,0,0,507383.356748867,507384.403767999,0,40,11,1,0,22,7,5281222,4322231,5271300,5310280,0,2111101,0,0,0,0,3170121,0,0,0,0,0,0,0,0,1181150,3141081,0,3101170,0,0,-2170130,0,0,0,0,0,4200180,0,0,0,0,0,0,0,1110100
17,256,909.639113117009,1,0,507385.921453491,507386.968402175,0,40,11,0,1,2,3,2201091,2020080,2090060,2101020,0,-2201091,0,0,0,0,0,0,0,0,0,0,2020080,0,0,0,0,0,0,0,0,0,0,0,2090060,0,0,0,0,0,0,0,2101020,0,0,0
17,257,698.249735170975,0,0,507389.050704903,507390.09772673,0,40,11,1,0,4,3,4160080,1051200,3130040,2120170,0,0,0,-4160080,0,0,0,0,0,0,0,0,0,0,0,0,1051200,0,3130040,0,0,0,0,0,0,0,0,0,2120170,0,0,0,0,0,0,0
17,258,956.23478788184,0,0,507391.944744399,507392.991766225,0,40,11,1,0,6,3,4141241,6352191,0,0,0,0,1090041,0,0,-3051200,0,0,0,0,3191100,0,0,3161091,0,0,0,0,0,0,0,0,0,0,0,0,0,0,0,0,0,0,0,0,0,0
17,259,1025.98047500942,1,0,507395.121124272,507396.168141864,0,40,11,0,1,5,7,9362273,6321451,5190312,0,1151071,0,4200011,0,-4011191,0,0,0,0,0,2151140,0,0,3100200,0,0,1070111,0,0,0,0,0,0,1130131,4060181,0,0,0,0,0,0,0,0,0,0,0
17,260,505.05284225801,0,0,507398.379851915,507399.426873356,0,40,11,1,0,21,7,7200061,5220131,2360191,4220170,4060010,0,0,3140051,0,0,0,0,0,0,2030091,0,0,0,0,0,0,3190040,0,0,-1170131,0,0,0,0,0,1190060,0,0,0,0,0,3110040,1110130,0,0
17,261,447.302923654206,1,0,507401.038600576,507402.085622787,0,40,11,0,1,15,7,9371322,3360111,2120161,1151061,0,1051181,0,3090020,0,2200011,0,3030110,0,1160061,0,0,0,0,-2200050,0,0,0,0,0,0,0,0,0,2120161,0,0,0,0,0,0,0,1151061,0,0,0
17,262,472.835074411705,0,0,507403.614995694,507404.662019445,0,40,11,1,0,9,7,12564513,2130031,7190302,3120091,0,3151141,0,2191100,0,0,4061161,0,-3161111,2130031,0,0,0,0,0,0,0,0,3050141,0,0,4140161,0,0,0,0,0,0,0,0,3120091,0,0,0,0,0
17,263,823.534125054721,1,0,507406.344336571,507407.391360707,0,40,11,0,1,23,7,11502363,1060031,3281130,4081101,3060061,3160201,3121091,0,0,0,0,0,2161010,1060031,0,0,0,0,0,0,0,0,0,0,0,0,-1190060,0,2091070,0,0,0,0,4081101,0,0,0,0,0,0
17,264,550.209917884786,1,0,507409.320724221,507410.367747972,0,40,11,0,1,24,3,0,2091171,2101050,5282291,0,0,0,0,0,0,0,0,0,0,2091171,0,0,0,0,0,0,0,0,0,0,0,0,-2101050,0,0,0,0,0,1121130,0,0,4161161,0,0,0
17,265,676.632252405398,0,0,507418.191062055,507419.238084266,0,40,12,1,0,9,7,12564513,2130031,7190302,3120091,0,3151141,0,2191100,0,0,4061161,0,-3161111,2130031,0,0,0,0,0,0,0,0,3050141,0,0,4140161,0,0,0,0,0,0,0,0,3120091,0,0,0,0,0
17,266,628.370081656612,1,1,507421.120393231,507422.167411593,0,40,12,0,0,17,7,4190131,7361381,2171070,9522342,0,0,0,0,0,0,0,4190131,0,0,0,0,2040170,4161030,0,0,-1160181,0,0,0,0,0,0,0,0,2171070,0,0,0,0,2180121,3181080,0,4161141,0,0
17,267,689.964220393449,1,0,507424.002660621,507425.049688221,0,40,12,1,1,26,3,4160090,3131011,2150071,0,0,0,0,0,0,0,0,4160090,0,0,0,0,0,0,0,0,3131011,0,0,0,0,0,0,0,0,-1090060,1060011,0,0,0,0,0,0,0,0,0
17,268,650.710136105772,0,0,507426.837879236,507427.884906067,0,40,12,1,0,4,3,4160080,1051200,3130040,2120170,0,0,0,-4160080,0,0,0,0,0,0,0,0,0,0,0,0,1051200,0,3130040,0,0,0,0,0,0,0,0,0,2120170,0,0,0,0,0,0,0
17,269,792.58056904655,1,0,507429.6260306,507430.673055506,0,40,12,0,1,24,7,1021141,12512282,3231382,6092271,0,0,1021141,0,0,0,0,0,0,4171100,0,0,4141071,0,0,0,4200111,0,0,2051191,0,0,0,-1180191,0,0,0,0,0,0,0,0,3071171,3021100,0,0
17,270,2220.20444372902,1,0,507432.649476262,507433.696500398,0,40,12,0,1,2,7,9302413,5261180,3200081,1071130,0,-3150061,3031111,0,0,0,0,2031050,1090191,0,0,0,0,4080130,0,0,0,1181050,0,0,0,0,0,0,3200081,0,0,0,0,0,0,0,0,0,0,1071130
17,271,615.674069151282,0,0,507437.025824491,507438.072857097,0,40,12,1,0,21,7,7200061,5220131,2360191,4220170,4060010,0,0,3140051,0,0,0,0,0,0,2030091,0,0,0,0,0,0,3190040,0,0,-1170131,0,0,0,0,0,1190060,0,0,0,0,0,3110040,1110130,0,0
17,272,469.283424608875,0,0,507439.802224152,507440.849245593,0,40,12,1,0,22,7,5281222,4322231,5271300,5310280,0,2111101,0,0,0,0,3170121,0,0,0,0,0,0,0,0,1181150,3141081,0,3101170,0,0,-2170130,0,0,0,0,0,4200180,0,0,0,0,0,0,0,1110100
17,273,770.427220617421,0,0,507442.355086991,507443.402111897,0,40,12,1,0,25,3,7080292,2111081,2070190,0,0,0,3030201,0,4050091,0,0,0,0,0,2111081,0,0,0,0,0,0,0,0,0,0,0,0,0,-2070190,0,0,0,0,0,0,0,0,0,0,0
17,274,833.292115537915,1,0,507445.249125332,507446.296145618,0,40,12,0,1,31,3,5051341,0,0,4211332,0,0,1011151,0,4040190,0,0,0,0,0,0,0,0,0,0,0,0,0,0,0,0,0,0,0,0,0,0,0,0,0,-3141201,1070131,0,0,0,0
17,275,633.745676488616,0,0,507448.16670442,507449.213715467,0,40,12,0,0,15,3,0,5250251,6282300,0,0,0,0,0,0,0,0,0,0,0,0,0,0,0,-1120080,0,4130171,0,0,0,0,0,4161130,0,2121170,0,0,0,0,0,0,0,0,0,0,0
17,276,482.14612522861,1,0,507450.93131927,507451.978338402,0,40,12,1,1,20,3,0,2060130,3191370,3050071,0,0,0,0,0,0,0,0,0,0,2060130,0,0,0,0,0,0,0,0,-1141170,0,0,2050200,0,0,0,0,0,0,0,3050071,0,0,0,0,0
17,277,677.50264913775,0,0,507453.495943052,507454.542976812,0,40,12,0,0,23,7,9253441,3221321,4061011,3271272,0,0,3041180,0,0,4011110,0,2201151,0,0,0,0,2110150,0,0,1111171,0,0,0,0,0,0,-4061011,0,0,0,0,0,0,0,0,2151121,0,0,0,1120151
17,278,786.860819091089,1,0,507456.366459508,507457.413475945,0,40,12,0,1,7,7,4231260,0,10543653,3190111,0,0,0,0,0,3190140,-1041120,0,0,0,0,0,0,0,0,0,0,0,0,0,0,0,2150171,0,3191171,1191180,4011131,0,0,0,0,0,2160060,0,1030051,0
17,279,497.374410915654,0,0,507459.38990286,507460.436930076,0,40,12,1,0,28,7,5220312,5321151,7191261,3182120,0,0,0,0,0,0,0,4050141,1170171,0,0,0,0,0,0,4151041,0,1170110,0,3011141,0,0,0,0,0,0,4180120,-2111020,0,0,1071100,0,0,0,0,0
17,280,506.636571604759,0,0,507462.048702721,507463.095676428,0,40,12,1,0,10,7,0,4490112,4161381,12352312,0,0,0,0,0,0,0,0,0,-1190040,0,1140011,0,2160061,0,0,0,0,0,0,0,0,0,0,0,3091180,1070201,4131081,4091181,0,0,0,0,0,4130050,0
17,281,512.091468495782,1,0,507464.719169594,507465.766194501,0,40,12,0,1,34,3,0,0,4081010,9402271,0,0,0,0,0,0,0,0,0,0,0,0,0,0,0,0,0,0,0,0,0,0,0,0,4081010,0,0,0,0,0,0,0,3200010,-4061061,2141200,0
17,282,588.784930994734,0,0,507467.354387517,507468.401406649,0,40,12,1,0,29,3,0,2070040,2160160,6081162,0,0,0,0,0,0,0,0,0,2070040,0,0,0,0,0,0,0,0,0,0,0,2160160,0,0,0,0,0,0,-2050091,0,4031071,0,0,0,0,0
17,283,1170.24651996326,0,0,507470.071955903,507471.118977345,0,40,12,0,0,5,3,6292311,0,0,3282260,3161140,0,0,0,-3131171,0,0,0,0,0,0,0,0,0,0,0,0,0,0,0,0,0,0,0,0,0,0,0,2091080,0,0,0,0,1191180,0,0
17,284,544.929023424629,1,0,507473.401281536,507474.448294124,0,40,12,0,1,13,7,6350060,8341282,5161212,4170090,0,0,3170020,0,0,3180040,0,0,0,0,0,0,-1081011,0,0,3100090,0,4160181,0,3081051,2080161,0,0,0,0,0,0,0,0,0,4170090,0,0,0,0,0
17,285,600.211727200076,0,1,507476.107083206,507477.154101183,0,40,12,0,1,27,3,3030171,1031151,4171050,2160100,0,0,0,0,0,0,0,3030171,0,0,0,0,0,0,1031151,0,0,0,0,0,0,0,0,0,0,0,-4171050,0,2160100,0,0,0,0,0,0,0
17,286,832.992615876719,0,0,507478.954058529,507480.00108613,0,40,12,1,0,32,7,6200200,9392432,1090091,2021180,0,0,2090140,0,0,0,4110060,0,0,0,2200031,0,0,0,2071151,4011110,1110140,0,0,0,0,0,0,0,0,1090091,0,0,0,0,0,-2021180,0,0,0,0
17,287,1008.42856493546,1,0,507481.871622604,507482.91865136,0,40,12,1,1,6,3,4141241,6352191,0,0,0,0,1090041,0,0,-3051200,0,0,0,0,3191100,0,0,3161091,0,0,0,0,0,0,0,0,0,0,0,0,0,0,0,0,0,0,0,0,0,0
17,288,620.282821822912,1,0,507485.012716956,507486.059735703,0,40,12,0,1,19,3,4021060,3210172,1081091,0,4021060,0,0,0,0,0,0,0,0,2160061,0,0,0,1050111,0,0,0,0,-1081091,0,0,0,0,0,0,0,0,0,0,0,0,0,0,0,0,0
17,289,851.400679093786,0,0,507503.388664056,507504.435687422,0,40,13,1,0,4,3,4160080,1051200,3130040,2120170,0,0,0,-4160080,0,0,0,0,0,0,0,0,0,0,0,0,1051200,0,3130040,0,0,0,0,0,0,0,0,0,2120170,0,0,0,0,0,0,0
17,290,852.697997586802,0,0,507506.459179665,507507.506191097,0,40,13,0,0,7,7,9411263,5160092,6282181,0,3080081,0,0,0,1110030,0,-3171141,2050011,0,2070071,0,3090021,0,0,0,0,0,0,0,0,0,0,0,0,2161031,0,4121150,0,0,0,0,0,0,0,0,0
17,291,547.229550138582,0,0,507509.435553071,507510.482590296,0,40,13,1,0,26,3,4160090,3131011,2150071,0,0,0,0,0,0,0,0,4160090,0,0,0,0,0,0,0,0,3131011,0,0,0,0,0,0,0,0,-1090060,1060011,0,0,0,0,0,0,0,0,0
17,292,642.686009872705,0,0,507512.106076533,507513.153092585,0,40,13,0,0,24,7,4341180,9331362,3201040,2220121,3140050,0,0,0,0,1201130,0,0,0,2051151,0,0,0,0,4120090,0,0,3160121,0,0,0,0,0,-3201040,0,0,0,0,1070111,0,1150010,0,0,0,0,0
17,293,871.012130344752,1,0,507514.917756326,507515.964781617,0,40,13,0,1,23,3,6192150,0,5140361,0,0,0,3181130,0,0,0,0,3011020,0,0,0,0,0,0,0,0,0,0,0,4060200,0,0,-1080161,0,0,0,0,0,0,0,0,0,0,0,0,0
17,294,493.589474703185,0,0,507517.894146285,507518.941164262,0,40,13,1,0,9,7,12564513,2130031,7190302,3120091,0,3151141,0,2191100,0,0,4061161,0,-3161111,2130031,0,0,0,0,0,0,0,0,3050141,0,0,4140161,0,0,0,0,0,0,0,0,3120091,0,0,0,0,0
17,295,1357.00378590263,1,0,507520.564703624,507521.611684259,0,40,13,0,1,2,7,7301421,6200232,5240181,3071111,0,-2091200,0,0,4080021,0,0,1130200,0,4170051,0,0,0,0,0,0,0,2030181,0,0,0,0,3140021,2100160,0,0,0,0,0,0,3071111,0,0,0,0,0
17,296,493.657612823881,1,0,507524.141036378,507525.188075913,0,40,13,1,1,10,7,0,4490112,4161381,12352312,0,0,0,0,0,0,0,0,0,-1190040,0,1140011,0,2160061,0,0,0,0,0,0,0,0,0,0,0,3091180,1070201,4131081,4091181,0,0,0,0,0,4130050,0
17,297,606.769152218476,1,0,507526.740953765,507527.788038725,0,40,13,0,1,19,3,1170041,4282252,2111110,0,0,1170041,0,0,0,0,0,0,0,1151121,0,0,0,0,0,3131131,0,0,-2111110,0,0,0,0,0,0,0,0,0,0,0,0,0,0,0,0,0
17,298,834.642558533233,0,0,507529.587942177,507530.634965928,0,40,13,1,0,28,7,5220312,5321151,7191261,3182120,0,0,0,0,0,0,0,4050141,1170171,0,0,0,0,0,0,4151041,0,1170110,0,3011141,0,0,0,0,0,0,4180120,-2111020,0,0,1071100,0,0,0,0,0
17,299,586.344663461205,0,0,507532.670196786,507533.717232471,0,40,13,0,0,13,3,0,6261122,4060160,2091181,0,0,0,0,0,0,0,0,0,3090031,0,0,-3171091,0,0,0,0,0,0,0,0,0,0,0,0,0,4060160,0,0,2091181,0,0,0,0,0,0
17,300,659.540370630566,1,0,507535.376009619,507536.423032986,0,40,13,0,1,34,7,8362182,0,8180212,5321402,0,3181010,1031121,0,0,0,4150051,0,0,0,0,0,0,0,0,0,0,0,0,0,4100031,4080181,0,0,0,0,0,0,0,0,0,0,1090170,-3040191,1191041,0
17,301,1042.78864047956,0,0,507538.234817103,507539.281769251,0,40,13,1,0,25,3,7080292,2111081,2070190,0,0,0,3030201,0,4050091,0,0,0,0,0,2111081,0,0,0,0,0,0,0,0,0,0,0,0,0,-2070190,0,0,0,0,0,0,0,0,0,0,0
17,302,1037.88808744866,0,0,507541.340540086,507542.387567687,0,40,13,0,0,5,3,1030191,4100100,3181011,3150031,0,0,0,0,-1030191,0,0,0,0,0,0,0,0,4100100,0,0,0,0,0,0,0,0,0,0,3181011,0,0,0,0,0,0,3150031,0,0,0,0
17,303,1041.28113336628,1,0,507544.505160557,507545.552183923,0,40,13,1,1,32,7,6200200,9392432,1090091,2021180,0,0,2090140,0,0,0,4110060,0,0,0,2200031,0,0,0,2071151,4011110,1110140,0,0,0,0,0,0,0,0,1090091,0,0,0,0,0,-2021180,0,0,0,0
17,304,797.168918768875,1,0,507547.646252599,507548.693276735,0,40,13,1,1,6,3,4141241,6352191,0,0,0,0,1090041,0,0,-3051200,0,0,0,0,3191100,0,0,3161091,0,0,0,0,0,0,0,0,0,0,0,0,0,0,0,0,0,0,0,0,0,0
17,305,534.581272746436,1,0,507550.563828608,507551.610838885,0,40,13,1,1,29,3,0,2070040,2160160,6081162,0,0,0,0,0,0,0,0,0,2070040,0,0,0,0,0,0,0,0,0,0,0,2160160,0,0,0,0,0,0,-2050091,0,4031071,0,0,0,0,0
17,306,617.822151281871,0,0,507553.175512327,507554.222528379,0,40,13,0,0,27,7,3290111,7452423,5230142,0,0,0,0,1150020,2140091,0,0,0,0,0,1040081,0,0,3131200,2130011,0,1151131,0,0,0,2070041,0,0,0,0,0,-3160101,0,0,0,0,0,0,0,0,0
17,307,1141.3852268015,1,0,507555.940138726,507556.987159013,0,40,13,0,1,31,7,5090101,9311351,3130071,3322221,0,3070051,0,0,0,0,0,0,2020050,0,3051111,0,0,0,0,4170040,2090200,0,0,0,0,3130071,0,0,0,0,0,0,0,0,-2121121,0,0,0,0,1201100
17,308,730.078692373354,0,0,507559.281221837,507560.328242893,0,40,13,0,0,17,3,0,3041181,4040090,5301281,0,0,0,0,0,0,0,0,0,0,0,0,0,0,0,0,-3041181,0,0,0,0,0,0,4040090,0,0,0,0,3101120,2200161,0,0,0,0,0,0
17,309,413.599591469392,0,0,507562.10467874,507563.151687863,0,40,13,1,0,20,3,0,2060130,3191370,3050071,0,0,0,0,0,0,0,0,0,0,2060130,0,0,0,0,0,0,0,0,-1141170,0,0,2050200,0,0,0,0,0,0,0,3050071,0,0,0,0,0
17,310,414.451895048842,1,0,507564.586954752,507565.633976194,0,40,13,0,1,15,3,0,1060021,0,8352290,0,0,0,0,0,0,0,0,0,0,0,0,0,0,-1060021,0,0,0,0,0,0,0,0,0,0,0,0,0,0,4061190,2161050,0,0,0,2130050,0
17,311,466.236073640175,1,0,507567.128056264,507568.175078861,0,40,13,1,1,22,7,5281222,4322231,5271300,5310280,0,2111101,0,0,0,0,3170121,0,0,0,0,0,0,0,0,1181150,3141081,0,3101170,0,0,-2170130,0,0,0,0,0,4200180,0,0,0,0,0,0,0,1110100
17,312,395.676194166299,1,0,507569.704506046,507570.751499771,0,40,13,1,1,21,7,7200061,5220131,2360191,4220170,4060010,0,0,3140051,0,0,0,0,0,0,2030091,0,0,0,0,0,0,3190040,0,0,-1170131,0,0,0,0,0,1190060,0,0,0,0,0,3110040,1110130,0,0
17,313,577.675342618022,1,0,507576.386612984,507577.433646359,0,40,14,1,1,9,7,12564513,2130031,7190302,3120091,0,3151141,0,2191100,0,0,4061161,0,-3161111,2130031,0,0,0,0,0,0,0,0,3050141,0,0,4140161,0,0,0,0,0,0,0,0,3120091,0,0,0,0,0
17,314,390.070007648319,1,0,507579.163016879,507580.210037935,0,40,14,0,1,15,3,0,5211120,4241191,0,0,0,0,0,0,0,0,0,0,0,0,0,0,0,-4020100,0,0,1191020,0,0,2190031,0,2051160,0,0,0,0,0,0,0,0,0,0,0,0,0
17,315,498.241343011614,0,0,507581.715878948,507582.762911169,0,40,14,0,0,13,3,0,2101020,0,11451272,0,0,0,0,0,0,0,0,0,0,0,0,-2101020,0,0,0,0,0,0,0,0,0,0,0,0,0,0,0,3130200,0,0,4201051,4120021,0,0,0
17,316,695.963067060802,0,0,507584.398161428,507585.445177865,0,40,14,0,0,34,7,5101260,5302241,2021191,7280131,0,2020200,0,0,3081060,0,0,0,0,1140170,0,0,3151041,0,1011030,0,0,0,0,2021191,0,0,0,0,0,0,0,0,0,0,3200111,0,0,-4080020,0,0
17,317,577.338886738289,1,0,507587.26866826,507588.315695476,0,40,14,0,1,27,7,0,11323484,6290172,4240192,0,0,0,0,0,0,0,0,0,0,0,0,0,2030061,0,2101091,3021171,4171161,0,0,0,2100101,0,0,0,0,-4190071,0,2070061,0,0,0,0,2170131,0,0
17,318,476.922204950824,1,0,507590.092116694,507591.139132746,0,40,14,1,1,25,3,7080292,2111081,2070190,0,0,0,3030201,0,4050091,0,0,0,0,0,2111081,0,0,0,0,0,0,0,0,0,0,0,0,0,-2070190,0,0,0,0,0,0,0,0,0,0,0
17,319,729.337642493192,1,0,507592.762654015,507593.809655823,0,40,14,1,1,4,3,4160080,1051200,3130040,2120170,0,0,0,-4160080,0,0,0,0,0,0,0,0,0,0,0,0,1051200,0,3130040,0,0,0,0,0,0,0,0,0,2120170,0,0,0,0,0,0,0
17,320,1491.65966542205,0,0,507595.680196917,507596.72724569,0,40,14,0,0,2,7,5190181,0,8330291,8432271,0,-1110040,0,4080141,0,0,0,0,0,0,0,0,0,0,0,0,0,0,0,0,0,0,1100040,0,3060170,4170081,0,0,0,0,0,3121080,0,1130040,4181151,0
17,321,616.338896739762,0,0,507599.397739511,507600.444757872,0,40,14,0,0,31,3,2180101,0,1130041,7142040,0,0,0,0,0,2180101,0,0,0,0,0,0,0,0,0,0,0,0,0,0,0,1130041,0,0,0,0,0,0,0,0,-4081010,0,0,0,3061030,0
17,322,587.77941291919,1,0,507602.127177783,507603.174095285,0,40,14,1,1,6,3,4141241,6352191,0,0,0,0,1090041,0,0,-3051200,0,0,0,0,3191100,0,0,3161091,0,0,0,0,0,0,0,0,0,0,0,0,0,0,0,0,0,0,0,0,0,0
17,323,819.217942771502,1,0,507604.891698703,507605.938725149,0,40,14,1,1,28,7,5220312,5321151,7191261,3182120,0,0,0,0,0,0,0,4050141,1170171,0,0,0,0,0,0,4151041,0,1170110,0,3011141,0,0,0,0,0,0,4180120,-2111020,0,0,1071100,0,0,0,0,0
17,324,423.222075740341,0,1,507607.891624021,507608.938639303,0,40,14,1,1,20,3,0,2060130,3191370,3050071,0,0,0,0,0,0,0,0,0,0,2060130,0,0,0,0,0,0,0,0,-1141170,0,0,2050200,0,0,0,0,0,0,0,3050071,0,0,0,0,0
17,325,457.186026440468,1,0,507610.479782006,507611.526807297,0,40,14,1,1,21,7,7200061,5220131,2360191,4220170,4060010,0,0,3140051,0,0,0,0,0,0,2030091,0,0,0,0,0,0,3190040,0,0,-1170131,0,0,0,0,0,1190060,0,0,0,0,0,3110040,1110130,0,0
17,326,591.28948696889,0,0,507613.091467265,507614.13849987,0,40,14,1,0,10,7,0,4490112,4161381,12352312,0,0,0,0,0,0,0,0,0,-1190040,0,1140011,0,2160061,0,0,0,0,0,0,0,0,0,0,0,3091180,1070201,4131081,4091181,0,0,0,0,0,4130050,0
17,327,651.714114297647,1,0,507615.75022093,507616.797246992,0,40,14,1,1,26,3,4160090,3131011,2150071,0,0,0,0,0,0,0,0,4160090,0,0,0,0,0,0,0,0,3131011,0,0,0,0,0,0,0,0,-1090060,1060011,0,0,0,0,0,0,0,0,0
17,328,535.916317428928,0,0,507618.467791627,507619.514819228,0,40,14,0,0,19,3,1201191,0,8231322,0,0,0,0,0,0,0,0,1201191,0,0,0,0,0,0,0,0,0,0,-2100131,0,0,0,0,2101171,0,4030020,0,0,0,0,0,0,0,0,0,0
17,329,1383.9017781429,1,0,507621.055955386,507622.102994151,0,40,14,0,1,24,7,8350351,1191090,12402351,2140020,4160181,0,0,0,0,0,0,4190170,0,0,0,0,0,0,1191090,0,0,0,0,0,4161021,2110080,0,-3121090,0,3010160,0,0,0,0,0,0,0,2140020,0,0
17,330,1164.5460180589,0,0,507624.491197253,507625.538175194,0,40,14,1,0,32,7,6200200,9392432,1090091,2021180,0,0,2090140,0,0,0,4110060,0,0,0,2200031,0,0,0,2071151,4011110,1110140,0,0,0,0,0,0,0,0,1090091,0,0,0,0,0,-2021180,0,0,0,0
17,331,706.801642896608,1,0,507627.902818686,507628.949836277,0,40,14,0,1,7,7,9603463,4212291,3010031,1161090,1090181,0,3181051,3181180,0,0,-2151051,0,0,2111190,0,0,2101101,0,0,0,0,0,0,0,0,0,3010031,0,0,0,0,0,0,0,0,0,0,1161090,0,0
17,332,701.581572240684,0,0,507630.785090694,507631.83211637,0,40,14,1,0,29,3,0,2070040,2160160,6081162,0,0,0,0,0,0,0,0,0,2070040,0,0,0,0,0,0,0,0,0,0,0,2160160,0,0,0,0,0,0,-2050091,0,4031071,0,0,0,0,0
17,333,542.447949992493,0,0,507633.726186278,507634.773213109,0,40,14,0,0,17,7,1010110,6391312,6371291,2191080,0,1010110,0,0,0,0,0,0,0,4200031,0,0,0,0,0,0,-1170110,1021171,0,0,2161070,0,2030050,0,2180171,0,0,0,0,0,0,0,0,2191080,0,0
17,334,906.300731701776,1,0,507636.420227775,507637.467248062,0,40,14,0,1,5,3,7192301,3080101,2111070,0,3081151,0,0,0,-4111150,0,0,0,0,3080101,0,0,0,0,0,0,0,0,0,0,0,0,0,0,0,0,2111070,0,0,0,0,0,0,0,0,0
17,335,414.12236855831,0,0,507639.408385221,507640.455405508,0,40,14,1,0,22,7,5281222,4322231,5271300,5310280,0,2111101,0,0,0,0,3170121,0,0,0,0,0,0,0,0,1181150,3141081,0,3101170,0,0,-2170130,0,0,0,0,0,4200180,0,0,0,0,0,0,0,1110100
17,336,488.173459016252,0,0,507642.055366396,507643.102384757,0,40,14,0,0,23,3,0,0,5061141,6290250,0,0,0,0,0,0,0,0,0,0,0,0,0,0,0,0,0,0,0,2051091,0,0,-3010050,0,0,0,0,4160100,0,2130150,0,0,0,0,0,0
17,337,499.50439989334,0,0,507662.101848507,507663.148886117,0,40,15,0,0,27,3,2170021,0,6290201,4050050,0,0,0,0,2170021,0,0,0,0,0,0,0,0,0,0,0,0,0,0,3160120,0,0,0,0,0,0,-3130081,0,0,0,0,0,0,0,4050050,0
17,338,625.184914679267,0,0,507664.737077208,507665.784107504,0,40,15,0,0,34,3,2021081,4191191,2161111,1021090,0,0,0,0,0,2021081,0,0,0,4191191,0,0,0,0,0,0,0,0,0,0,0,0,0,0,0,2161111,0,0,0,0,0,0,0,-1021090,0,0
17,339,842.527713917661,0,0,507667.442893891,507668.489912638,0,40,15,0,0,2,7,8310332,2040201,3130311,4113331,0,-4170131,0,4140201,0,0,0,0,0,0,0,2040201,0,0,0,0,0,0,0,1040120,0,0,0,0,0,2090191,0,1051151,2011160,0,0,0,0,1051020,0,0
17,340,1021.65466867154,0,0,507670.501640474,507671.548650752,0,40,15,0,0,19,3,4081110,1170140,6202110,0,0,0,0,0,0,0,4081110,0,0,0,0,0,0,0,0,0,1170140,0,-3161070,0,0,0,3041040,0,0,0,0,0,0,0,0,0,0,0,0,0
17,341,522.332584892865,0,0,507673.736827754,507674.783849965,0,40,15,1,0,10,7,0,4490112,4161381,12352312,0,0,0,0,0,0,0,0,0,-1190040,0,1140011,0,2160061,0,0,0,0,0,0,0,0,0,0,0,3091180,1070201,4131081,4091181,0,0,0,0,0,4130050,0
17,342,528.988559904974,1,0,507676.407341592,507677.454362264,0,40,15,1,1,29,3,0,2070040,2160160,6081162,0,0,0,0,0,0,0,0,0,2070040,0,0,0,0,0,0,0,0,0,0,0,2160160,0,0,0,0,0,0,-2050091,0,4031071,0,0,0,0,0
17,343,838.042918709107,1,0,507679.007268218,507680.05429043,0,40,15,1,1,6,3,4141241,6352191,0,0,0,0,1090041,0,0,-3051200,0,0,0,0,3191100,0,0,3161091,0,0,0,0,0,0,0,0,0,0,0,0,0,0,0,0,0,0,0,0,0,0
17,344,827.297503419686,1,0,507682.077770739,507683.124796415,0,40,15,1,1,25,3,7080292,2111081,2070190,0,0,0,3030201,0,4050091,0,0,0,0,0,2111081,0,0,0,0,0,0,0,0,0,0,0,0,0,-2070190,0,0,0,0,0,0,0,0,0,0,0
17,345,1247.49702098779,0,0,507685.030627649,507686.077653711,0,40,15,1,0,32,7,6200200,9392432,1090091,2021180,0,0,2090140,0,0,0,4110060,0,0,0,2200031,0,0,0,2071151,4011110,1110140,0,0,0,0,0,0,0,0,1090091,0,0,0,0,0,-2021180,0,0,0,0
17,346,695.678965828847,1,0,507688.442340703,507689.489324418,0,40,15,0,1,23,7,5232211,1090201,10562512,4040130,0,0,1161021,0,4071190,0,0,0,0,0,1090201,0,0,0,0,0,0,0,4171191,0,0,0,-2171120,3040041,1180160,0,0,0,0,0,0,0,4040130,0,0,0
17,347,983.710606524255,1,0,507691.289311406,507692.336294737,0,40,15,0,1,13,3,4070071,4030061,4181111,4171010,4070071,0,0,0,0,0,0,0,0,0,0,0,-4030061,0,0,0,0,0,4181111,0,0,0,0,0,0,0,0,0,0,0,0,0,0,0,4171010,0
17,348,703.979109122884,1,0,507694.395068651,507695.442089323,0,40,15,0,1,5,3,5151260,0,2200111,0,0,0,0,0,-3060150,0,2091110,0,0,0,0,0,0,0,0,0,0,0,0,0,1150090,0,1050021,0,0,0,0,0,0,0,0,0,0,0,0,0
17,349,480.287148733623,0,0,507697.312634651,507698.359663022,0,40,15,0,0,17,3,7252111,4312290,0,0,0,0,0,0,0,3161010,4091101,0,0,0,0,0,0,0,2171090,0,-2141200,0,0,0,0,0,0,0,0,0,0,0,0,0,0,0,0,0,0,0
17,350,545.409454731271,1,0,507700.006681153,507701.053699515,0,40,15,1,1,28,7,5220312,5321151,7191261,3182120,0,0,0,0,0,0,0,4050141,1170171,0,0,0,0,0,0,4151041,0,1170110,0,3011141,0,0,0,0,0,0,4180120,-2111020,0,0,1071100,0,0,0,0,0
17,351,1083.17450992763,1,0,507702.653660403,507703.700691468,0,40,15,0,1,31,7,0,12323272,9341183,3190040,0,0,0,0,0,0,0,0,0,0,0,3031040,0,0,4110131,1151071,0,4031030,0,0,0,4021031,2120011,3200141,0,0,0,0,0,0,-3190040,0,0,0,0,0
17,352,455.788233142812,0,0,507705.971277448,507707.018280412,0,40,15,1,0,20,3,0,2060130,3191370,3050071,0,0,0,0,0,0,0,0,0,0,2060130,0,0,0,0,0,0,0,0,-1141170,0,0,2050200,0,0,0,0,0,0,0,3050071,0,0,0,0,0
17,353,865.69119989872,0,0,507708.571140556,507709.618170467,0,40,15,0,0,7,7,1060100,4101111,8090142,11532412,0,0,0,0,0,0,-1060100,0,0,0,0,0,4101111,0,0,0,0,0,0,4030011,0,0,4060131,0,0,0,0,0,4070080,3161020,1180171,0,0,0,3121141,0
17,354,543.253288371488,1,0,507711.688698779,507712.73572715,0,40,15,1,1,26,3,4160090,3131011,2150071,0,0,0,0,0,0,0,0,4160090,0,0,0,0,0,0,0,0,3131011,0,0,0,0,0,0,0,0,-1090060,1060011,0,0,0,0,0,0,0,0,0
17,355,1039.69162952853,0,0,507714.406274095,507715.453299771,0,40,15,0,0,24,7,2151201,13451311,4192201,2180070,0,0,0,0,0,2151201,0,0,0,0,0,0,4130060,4060130,2060021,3201100,0,0,0,0,0,0,3141120,-1051081,0,0,0,0,0,0,0,2180070,0,0,0,0
17,356,449.883316992782,0,0,507717.570881477,507718.617912158,0,40,15,1,0,21,7,7200061,5220131,2360191,4220170,4060010,0,0,3140051,0,0,0,0,0,0,2030091,0,0,0,0,0,0,3190040,0,0,-1170131,0,0,0,0,0,1190060,0,0,0,0,0,3110040,1110130,0,0
17,357,510.838035552297,1,0,507720.21787651,507721.264891023,0,40,15,1,1,9,7,12564513,2130031,7190302,3120091,0,3151141,0,2191100,0,0,4061161,0,-3161111,2130031,0,0,0,0,0,0,0,0,3050141,0,0,4140161,0,0,0,0,0,0,0,0,3120091,0,0,0,0,0
17,358,500.752058404032,0,0,507722.911920702,507723.958937909,0,40,15,1,0,22,7,5281222,4322231,5271300,5310280,0,2111101,0,0,0,0,3170121,0,0,0,0,0,0,0,0,1181150,3141081,0,3101170,0,0,-2170130,0,0,0,0,0,4200180,0,0,0,0,0,0,0,1110100
17,359,431.095297273714,1,0,507725.476553723,507726.523576704,0,40,15,0,1,15,7,5152360,6221081,4181040,3081171,1070170,2031110,0,0,2051080,0,0,0,0,0,4150010,0,0,0,-2071071,0,0,0,4181040,0,0,0,0,0,0,0,0,1071100,0,0,2010071,0,0,0,0,0
17,360,624.517392367125,1,0,507728.041185204,507729.08820626,0,40,15,1,1,4,3,4160080,1051200,3130040,2120170,0,0,0,-4160080,0,0,0,0,0,0,0,0,0,0,0,0,1051200,0,3130040,0,0,0,0,0,0,0,0,0,2120170,0,0,0,0,0,0,0
17,361,806.011472013779,0,0,507742.452537164,507743.499571309,0,40,16,1,0,4,3,4160080,1051200,3130040,2120170,0,0,0,-4160080,0,0,0,0,0,0,0,0,0,0,0,0,1051200,0,3130040,0,0,0,0,0,0,0,0,0,2120170,0,0,0,0,0,0,0
17,362,792.824634292629,1,0,507745.487766481,507746.534776759,0,40,16,0,1,7,7,13423523,0,8241230,0,1021020,3101201,0,0,4191110,2050081,-3060111,0,0,0,0,0,0,0,0,0,0,0,4111130,0,0,2050050,0,2080050,0,0,0,0,0,0,0,0,0,0,0,0
17,363,913.052176998463,0,0,507748.499437342,507749.546456089,0,40,16,1,0,28,7,5220312,5321151,7191261,3182120,0,0,0,0,0,0,0,4050141,1170171,0,0,0,0,0,0,4151041,0,1170110,0,3011141,0,0,0,0,0,0,4180120,-2111020,0,0,1071100,0,0,0,0,0
17,364,563.16847371636,0,0,507751.652285707,507752.699313308,0,40,16,1,0,22,7,5281222,4322231,5271300,5310280,0,2111101,0,0,0,0,3170121,0,0,0,0,0,0,0,0,1181150,3141081,0,3101170,0,0,-2170130,0,0,0,0,0,4200180,0,0,0,0,0,0,0,1110100
17,365,990.660691750236,0,0,507754.416916341,507755.463940092,0,40,16,1,0,10,7,0,4490112,4161381,12352312,0,0,0,0,0,0,0,0,0,-1190040,0,1140011,0,2160061,0,0,0,0,0,0,0,0,0,0,0,3091180,1070201,4131081,4091181,0,0,0,0,0,4130050,0
17,366,449.785151984543,0,0,507757.569782029,507758.616792306,0,40,16,1,0,20,3,0,2060130,3191370,3050071,0,0,0,0,0,0,0,0,0,0,2060130,0,0,0,0,0,0,0,0,-1141170,0,0,2050200,0,0,0,0,0,0,0,3050071,0,0,0,0,0
17,367,484.626428689808,1,0,507760.110873532,507761.157893433,0,40,16,1,1,21,7,7200061,5220131,2360191,4220170,4060010,0,0,3140051,0,0,0,0,0,0,2030091,0,0,0,0,0,0,3190040,0,0,-1170131,0,0,0,0,0,1190060,0,0,0,0,0,3110040,1110130,0,0
17,368,844.566467159893,1,0,507762.66374484,507763.710763972,0,40,16,0,1,5,7,13582604,2181011,1120040,4170131,0,0,2031171,1140050,-3190141,4130191,3091051,0,0,0,2181011,0,0,0,0,0,0,0,0,0,0,1120040,0,0,0,0,0,4170131,0,0,0,0,0,0,0,0
17,369,916.125320421997,1,0,507765.640132105,507766.687153546,0,40,16,1,1,32,7,6200200,9392432,1090091,2021180,0,0,2090140,0,0,0,4110060,0,0,0,2200031,0,0,0,2071151,4011110,1110140,0,0,0,0,0,0,0,0,1090091,0,0,0,0,0,-2021180,0,0,0,0
17,370,764.168140362017,0,0,507768.640048183,507769.687068855,0,40,16,0,0,13,7,4181131,11312372,5280221,2070131,0,0,0,0,0,2041070,0,0,2140061,0,4060110,0,-3091121,4161141,0,0,0,0,0,0,2100030,0,3180191,0,0,0,0,0,0,2070131,0,0,0,0,0,0
17,371,630.43077767361,0,0,507771.498793303,507772.545815129,0,40,16,1,0,29,3,0,2070040,2160160,6081162,0,0,0,0,0,0,0,0,0,2070040,0,0,0,0,0,0,0,0,0,0,0,2160160,0,0,0,0,0,0,-2050091,0,4031071,0,0,0,0,0
17,372,441.057702002581,1,0,507774.36930052,507775.416318112,0,40,16,1,1,9,7,12564513,2130031,7190302,3120091,0,3151141,0,2191100,0,0,4061161,0,-3161111,2130031,0,0,0,0,0,0,0,0,3050141,0,0,4140161,0,0,0,0,0,0,0,0,3120091,0,0,0,0,0
17,373,516.189377871342,1,0,507776.933927381,507777.980952287,0,40,16,0,1,23,3,1040100,4130070,3161180,4091011,0,0,1040100,0,0,0,0,0,0,0,0,0,0,0,0,4130070,0,0,0,0,0,0,-3161180,0,0,0,0,0,0,0,0,0,0,0,0,4091011
17,374,1065.21069165319,1,0,507779.52209422,507780.569109117,0,40,16,0,1,34,7,7300431,4182120,0,6372271,1160181,0,0,0,3070110,0,0,0,3070140,0,0,3111010,0,1071110,0,0,0,0,0,0,0,0,0,0,0,0,0,0,0,0,2141021,0,0,-2171090,0,2060160
17,375,763.203428185079,1,0,507782.674942199,507783.72197134,0,40,16,0,1,24,3,2160090,0,6182351,3081170,0,0,0,0,0,0,2160090,0,0,0,0,0,0,0,0,0,0,0,0,0,0,0,0,-4011170,0,2171181,0,0,0,3081170,0,0,0,0,0,0
17,376,980.335653817747,0,0,507785.521925222,507786.568939349,0,40,16,0,0,19,7,4222181,5301362,4352201,2181181,0,0,0,0,3041141,0,0,1181040,0,0,0,0,0,0,3020150,1151141,1130071,0,-2161111,0,0,2191090,0,0,0,0,0,0,0,0,0,0,0,0,2181181,0
17,377,489.001510024536,1,0,507788.663016879,507789.710039475,0,40,16,0,1,17,7,7272340,8472381,2071131,4270342,0,4191180,0,0,0,3081160,0,0,0,0,0,4161190,0,1160070,0,0,-3151121,0,2071131,0,0,0,0,0,0,0,0,0,1170151,0,0,0,0,3100191,0,0
17,378,670.932905341033,0,0,507791.251176404,507792.298197075,0,40,16,0,0,31,3,0,4140191,0,5182391,0,0,0,0,0,0,0,0,0,0,1030140,0,0,0,3110051,0,0,0,0,0,0,0,0,0,0,0,0,4081190,0,0,-1101201,0,0,0,0,0
17,379,699.175181274768,1,0,507794.015802803,507795.062827324,0,40,16,0,1,2,3,5171191,0,5171162,0,0,-2080141,0,0,0,0,0,0,3091050,0,0,0,0,0,0,0,0,0,0,4070021,0,0,0,0,1101141,0,0,0,0,0,0,0,0,0,0,0
17,380,464.818647364154,0,0,507796.945137829,507797.992157346,0,40,16,0,0,15,3,3061120,3181041,4191131,3110101,0,0,0,0,0,0,0,0,3061120,0,0,0,0,0,-3181041,0,0,0,0,0,0,0,0,0,0,4191131,0,0,0,0,0,3110101,0,0,0,0
17,381,571.99562859023,0,0,507799.545061376,507800.592083972,0,40,16,0,0,27,3,0,0,11391332,1170111,0,0,0,0,0,0,0,0,0,0,0,0,0,0,0,0,0,0,4101201,0,3160021,0,0,0,0,0,-4130110,0,1170111,0,0,0,0,0,0,0
17,382,946.351685095578,0,0,507802.215575599,507803.262598195,0,40,16,1,0,6,3,4141241,6352191,0,0,0,0,1090041,0,0,-3051200,0,0,0,0,3191100,0,0,3161091,0,0,0,0,0,0,0,0,0,0,0,0,0,0,0,0,0,0,0,0,0,0
17,383,559.642616310157,0,0,507805.274311787,507806.321338618,0,40,16,1,0,25,3,7080292,2111081,2070190,0,0,0,3030201,0,4050091,0,0,0,0,0,2111081,0,0,0,0,0,0,0,0,0,0,0,0,0,-2070190,0,0,0,0,0,0,0,0,0,0,0
17,384,507.019992743153,1,0,507807.94483063,507808.991845912,0,40,16,1,1,26,3,4160090,3131011,2150071,0,0,0,0,0,0,0,0,4160090,0,0,0,0,0,0,0,0,3131011,0,0,0,0,0,0,0,0,-1090060,1060011,0,0,0,0,0,0,0,0,0
17,385,515.626949956641,1,0,507813.968178897,507815.015211503,0,40,17,0,1,27,7,8121121,2120180,7232522,7280381,0,0,0,0,0,0,4041051,0,4080070,2120180,0,0,0,0,0,0,0,0,4151201,0,0,0,0,0,0,1031170,-2050151,0,0,3150201,0,4130180,0,0,0,0
17,386,986.585495003965,0,0,507816.662225399,507817.709249535,0,40,17,1,0,6,3,4141241,6352191,0,0,0,0,1090041,0,0,-3051200,0,0,0,0,3191100,0,0,3161091,0,0,0,0,0,0,0,0,0,0,0,0,0,0,0,0,0,0,0,0,0,0
17,387,475.555978540797,0,0,507819.862134471,507820.909157838,0,40,17,1,0,20,3,0,2060130,3191370,3050071,0,0,0,0,0,0,0,0,0,0,2060130,0,0,0,0,0,0,0,0,-1141170,0,0,2050200,0,0,0,0,0,0,0,3050071,0,0,0,0,0
17,388,847.593030252028,1,0,507822.556223319,507823.603204339,0,40,17,0,1,31,7,11610633,3060051,3290322,4111201,0,0,4110051,0,0,4200200,2200181,1100201,0,0,0,0,0,0,3060051,0,0,0,0,0,0,0,1100141,2190181,0,0,0,0,0,0,-4111201,0,0,0,0,0
17,389,583.527519134805,0,0,507825.556112835,507826.603120803,0,40,17,0,0,34,3,4141080,0,0,11462163,0,0,0,0,0,0,0,4141080,0,0,0,0,0,0,0,0,0,0,0,0,0,0,0,0,0,0,0,4131051,0,0,0,0,3170081,-4161031,0,0
17,390,427.751526352949,0,0,507828.261906805,507829.308942875,0,40,17,0,0,15,7,2192271,7342313,3290251,3020140,0,1081071,0,1111200,0,0,0,0,0,0,0,0,0,0,-3141041,2181091,2020181,0,2100091,0,0,1190160,0,0,0,0,0,0,0,0,0,0,3020140,0,0,0
17,391,361.53092677705,0,0,507830.791241216,507831.838272281,0,40,17,1,0,21,7,7200061,5220131,2360191,4220170,4060010,0,0,3140051,0,0,0,0,0,0,2030091,0,0,0,0,0,0,3190040,0,0,-1170131,0,0,0,0,0,1190060,0,0,0,0,0,3110040,1110130,0,0
17,392,428.2873920165,0,0,507833.379396891,507834.426427186,0,40,17,1,0,22,7,5281222,4322231,5271300,5310280,0,2111101,0,0,0,0,3170121,0,0,0,0,0,0,0,0,1181150,3141081,0,3101170,0,0,-2170130,0,0,0,0,0,4200180,0,0,0,0,0,0,0,1110100
17,393,1172.47852357104,1,0,507836.038155176,507837.085179312,0,40,17,1,1,25,3,7080292,2111081,2070190,0,0,0,3030201,0,4050091,0,0,0,0,0,2111081,0,0,0,0,0,0,0,0,0,0,0,0,0,-2070190,0,0,0,0,0,0,0,0,0,0,0
17,394,965.464611887001,1,0,507839.285120721,507840.332142933,0,40,17,1,1,32,7,6200200,9392432,1090091,2021180,0,0,2090140,0,0,0,4110060,0,0,0,2200031,0,0,0,2071151,4011110,1110140,0,0,0,0,0,0,0,0,1090091,0,0,0,0,0,-2021180,0,0,0,0
17,395,722.17274911236,0,0,507842.461500595,507843.508522421,0,40,17,0,0,5,3,7350092,0,3121101,3080041,0,0,3190011,0,-4160081,0,0,0,0,0,0,0,0,0,0,0,0,0,0,0,0,0,0,0,0,0,3121101,0,0,0,3080041,0,0,0,0,0
17,396,452.006761624943,1,0,507845.308481692,507846.355504674,0,40,17,1,1,10,7,0,4490112,4161381,12352312,0,0,0,0,0,0,0,0,0,-1190040,0,1140011,0,2160061,0,0,0,0,0,0,0,0,0,0,0,3091180,1070201,4131081,4091181,0,0,0,0,0,4130050,0
17,397,493.064772977959,1,0,507847.908409859,507848.955433995,0,40,17,1,1,26,3,4160090,3131011,2150071,0,0,0,0,0,0,0,0,4160090,0,0,0,0,0,0,0,0,3131011,0,0,0,0,0,0,0,0,-1090060,1060011,0,0,0,0,0,0,0,0,0
17,398,461.876775720157,0,0,507850.496570538,507851.54359352,0,40,17,1,0,4,3,4160080,1051200,3130040,2120170,0,0,0,-4160080,0,0,0,0,0,0,0,0,0,0,0,0,1051200,0,3130040,0,0,0,0,0,0,0,0,0,2120170,0,0,0,0,0,0,0
17,399,541.053621389437,0,0,507853.155323819,507854.20234603,0,40,17,0,0,19,3,0,5050160,4030040,2151190,0,0,0,0,0,0,0,0,0,0,0,0,0,0,0,3010080,2040080,0,-4030040,0,0,0,0,0,0,0,0,0,0,0,0,0,0,0,0,2151190
17,400,906.08861821238,1,0,507855.802308458,507856.8493299,0,40,17,1,1,28,7,5220312,5321151,7191261,3182120,0,0,0,0,0,0,0,4050141,1170171,0,0,0,0,0,0,4151041,0,1170110,0,3011141,0,0,0,0,0,0,4180120,-2111020,0,0,1071100,0,0,0,0,0
17,401,800.274398876354,0,1,507858.861039642,507859.908063394,0,40,17,0,1,2,3,2121110,3201180,4070011,0,0,-2121110,0,0,0,0,0,0,0,0,0,1080170,0,0,0,2121010,0,0,0,0,0,0,4070011,0,0,0,0,0,0,0,0,0,0,0,0,0
17,402,673.288481426425,0,0,507861.908019123,507862.95503787,0,40,17,1,0,29,3,0,2070040,2160160,6081162,0,0,0,0,0,0,0,0,0,2070040,0,0,0,0,0,0,0,0,0,0,0,2160160,0,0,0,0,0,0,-2050091,0,4031071,0,0,0,0,0
17,403,728.018381283619,1,0,507864.731463323,507865.778483994,0,40,17,0,1,7,3,2211181,3190191,0,1091030,0,0,0,0,0,0,-1151040,0,1060141,0,0,3190191,0,0,0,0,0,0,0,0,0,0,0,0,0,0,0,0,0,0,0,0,0,1091030,0,0
17,404,848.385664867237,0,0,507867.707852512,507868.754877803,0,40,17,0,0,24,3,4170140,4221271,1091201,0,0,4170140,0,0,0,0,0,0,0,0,0,0,2081151,0,0,0,0,2140120,0,0,0,0,0,-1091201,0,0,0,0,0,0,0,0,0,0,0,0
17,405,535.358124005143,0,0,507870.754831223,507871.801847275,0,40,17,0,0,17,7,1121071,11492141,2282250,5240121,0,0,0,1121071,0,0,0,0,0,4150031,0,0,0,0,0,0,-3161020,4181090,0,0,0,0,0,0,1121110,0,1161140,0,0,0,0,0,0,0,3160041,2080080
17,406,939.084777084645,1,0,507873.437103694,507874.48412937,0,40,17,1,1,9,7,12564513,2130031,7190302,3120091,0,3151141,0,2191100,0,0,4061161,0,-3161111,2130031,0,0,0,0,0,0,0,0,3050141,0,0,4140161,0,0,0,0,0,0,0,0,3120091,0,0,0,0,0
17,407,620.916082523763,0,0,507876.625257213,507877.672265951,0,40,17,0,0,23,7,5201161,1010170,5222201,9262201,0,1090141,0,4111020,0,0,0,0,0,0,0,1010170,0,0,0,0,0,0,0,0,0,4121141,-1101060,0,0,0,0,0,0,2161050,4081111,0,0,3020040,0,0
17,408,1055.20132166566,1,0,507879.483992709,507880.53101646,0,40,17,0,1,13,7,4151091,2251210,8252221,10101481,0,0,0,0,0,0,0,4151091,0,0,0,1071140,-1180070,0,0,0,0,0,4131130,0,0,0,0,4121091,0,0,0,0,2011161,4060150,4030170,0,0,0,0,0
17,409,740.103460731916,1,0,507899.612829903,507900.659861739,0,40,18,0,1,2,3,5382211,0,1061091,0,0,-1171070,3120051,0,0,0,0,0,1091090,0,0,0,0,0,0,0,0,0,0,1061091,0,0,0,0,0,0,0,0,0,0,0,0,0,0,0,0
17,410,528.501584311016,1,0,507902.483346359,507903.530411686,0,40,18,1,1,28,7,5220312,5321151,7191261,3182120,0,0,0,0,0,0,0,4050141,1170171,0,0,0,0,0,0,4151041,0,1170110,0,3011141,0,0,0,0,0,0,4180120,-2111020,0,0,1071100,0,0,0,0,0
17,411,458.421366114635,0,0,507905.118563127,507906.165591498,0,40,18,1,0,21,7,7200061,5220131,2360191,4220170,4060010,0,0,3140051,0,0,0,0,0,0,2030091,0,0,0,0,0,0,3190040,0,0,-1170131,0,0,0,0,0,1190060,0,0,0,0,0,3110040,1110130,0,0
17,412,866.772170295008,1,0,507907.789080045,507908.836101871,0,40,18,1,1,6,3,4141241,6352191,0,0,0,0,1090041,0,0,-3051200,0,0,0,0,3191100,0,0,3161091,0,0,0,0,0,0,0,0,0,0,0,0,0,0,0,0,0,0,0,0,0,0
17,413,1080.59488650179,0,0,507910.730170624,507911.777248655,0,40,18,0,0,23,7,12412560,4171231,6100231,0,4010110,0,0,3031180,0,4201130,0,1170140,0,0,0,0,0,3111041,0,1060190,0,0,0,0,0,2040091,-4060140,0,0,0,0,0,0,0,0,0,0,0,0,0
17,414,836.642045760527,1,0,507914.024201496,507915.071223323,0,40,18,0,1,31,3,8433370,0,0,1010040,1131190,3151030,0,0,0,0,4151150,0,0,0,0,0,0,0,0,0,0,0,0,0,0,0,0,0,0,0,0,0,0,0,-1010040,0,0,0,0,0
17,415,781.226530496497,1,0,507916.953529978,507918.000553729,0,40,18,0,1,19,3,0,1100110,3090100,4270360,0,0,0,0,0,0,0,0,0,0,0,0,0,0,0,0,0,1100110,-3090100,0,0,0,0,0,0,0,0,3080160,0,0,0,0,0,0,0,1190200
17,416,445.772703853436,0,0,507919.871120615,507920.918163229,0,40,18,0,0,27,7,1071190,9484312,2070180,6281122,1071190,0,0,0,0,0,0,0,0,0,0,0,3071051,2061071,0,1161110,0,3191080,0,0,0,0,0,0,0,0,-2070180,0,0,0,4190051,0,0,2091071,0,0
17,417,637.967928312719,1,0,507922.482786241,507923.529806913,0,40,18,1,1,9,7,12564513,2130031,7190302,3120091,0,3151141,0,2191100,0,0,4061161,0,-3161111,2130031,0,0,0,0,0,0,0,0,3050141,0,0,4140161,0,0,0,0,0,0,0,0,3120091,0,0,0,0,0
17,418,532.005499000661,1,0,507925.329765799,507926.376782236,0,40,18,1,1,4,3,4160080,1051200,3130040,2120170,0,0,0,-4160080,0,0,0,0,0,0,0,0,0,0,0,0,1051200,0,3130040,0,0,0,0,0,0,0,0,0,2120170,0,0,0,0,0,0,0
17,419,584.474523086101,1,0,507928.000275787,507929.047298769,0,40,18,0,1,13,3,0,4170260,3111021,3161191,0,0,0,0,0,0,0,0,0,2120110,0,0,-2050150,0,0,0,0,0,0,0,0,3111021,0,0,0,0,0,3161191,0,0,0,0,0,0,0,0
17,420,775.382823077962,0,0,507930.800196947,507931.847224163,0,40,18,1,0,32,7,6200200,9392432,1090091,2021180,0,0,2090140,0,0,0,4110060,0,0,0,2200031,0,0,0,2071151,4011110,1110140,0,0,0,0,0,0,0,0,1090091,0,0,0,0,0,-2021180,0,0,0,0
17,421,648.577067477163,1,0,507933.753057323,507934.800081074,0,40,18,0,1,24,3,1090110,3021150,6211132,0,0,0,0,0,1090110,0,0,0,0,0,0,0,0,0,0,0,3021150,0,0,0,0,3141121,0,-3070011,0,0,0,0,0,0,0,0,0,0,0,0
17,422,437.87522969069,0,0,507936.611795898,507937.658821189,0,40,18,1,0,20,3,0,2060130,3191370,3050071,0,0,0,0,0,0,0,0,0,0,2060130,0,0,0,0,0,0,0,0,-1141170,0,0,2050200,0,0,0,0,0,0,0,3050071,0,0,0,0,0
17,423,530.648511601612,1,0,507939.199965047,507940.246990338,0,40,18,1,1,26,3,4160090,3131011,2150071,0,0,0,0,0,0,0,0,4160090,0,0,0,0,0,0,0,0,3131011,0,0,0,0,0,0,0,0,-1090060,1060011,0,0,0,0,0,0,0,0,0
17,424,423.689033370465,0,0,507941.894008469,507942.94103222,0,40,18,1,0,22,7,5281222,4322231,5271300,5310280,0,2111101,0,0,0,0,3170121,0,0,0,0,0,0,0,0,1181150,3141081,0,3101170,0,0,-2170130,0,0,0,0,0,4200180,0,0,0,0,0,0,0,1110100
17,425,897.622941702139,1,0,507944.517465834,507945.576049963,0,40,18,0,1,17,7,7211261,12582483,0,3150140,2130041,0,1051120,4030100,0,0,0,0,0,0,3151171,0,2180091,0,4180041,0,-3071180,0,0,0,0,0,0,0,0,0,0,0,0,0,0,0,0,0,3150140,0
17,426,534.31257000193,0,0,507947.576199328,507948.623226544,0,40,18,1,0,10,7,0,4490112,4161381,12352312,0,0,0,0,0,0,0,0,0,-1190040,0,1140011,0,2160061,0,0,0,0,0,0,0,0,0,0,0,3091180,1070201,4131081,4091181,0,0,0,0,0,4130050,0
17,427,677.841414755676,0,0,507950.246757052,507951.293739612,0,40,18,1,0,25,3,7080292,2111081,2070190,0,0,0,3030201,0,4050091,0,0,0,0,0,2111081,0,0,0,0,0,0,0,0,0,0,0,0,0,-2070190,0,0,0,0,0,0,0,0,0,0,0
17,428,523.079794133082,1,0,507953.0113438,507954.058359852,0,40,18,1,1,29,3,0,2070040,2160160,6081162,0,0,0,0,0,0,0,0,0,2070040,0,0,0,0,0,0,0,0,0,0,0,2160160,0,0,0,0,0,0,-2050091,0,4031071,0,0,0,0,0
17,429,891.268006176688,0,0,507955.670087842,507956.717110053,0,40,18,0,0,5,3,2031091,0,1070070,8220342,0,0,0,0,-2031091,0,0,0,0,0,0,0,0,0,0,0,0,0,1070070,0,0,0,0,0,0,0,0,0,0,4090201,4130141,0,0,0,0,0
17,430,556.65724404389,0,0,507958.787659539,507959.834674051,0,40,18,0,0,34,7,6220342,5140261,6352231,1120180,0,0,0,3170161,3050181,0,0,0,0,4110091,0,0,0,1030170,0,0,0,0,0,0,0,0,0,0,2051161,3130060,1171010,0,0,0,0,0,0,-1120180,0,0
17,431,443.169982812833,0,0,507961.505217916,507962.552243977,0,40,18,0,0,15,7,9462272,8331322,1030080,0,2190010,0,0,0,2061141,2180081,0,0,3031040,3120160,0,0,0,2120081,-3091081,0,0,0,0,0,0,1030080,0,0,0,0,0,0,0,0,0,0,0,0,0,0
17,432,657.200962945353,0,0,507964.199264803,507965.246284705,0,40,18,0,0,7,7,9362303,4131181,1190041,3080121,0,0,0,0,1150051,1070031,-3121200,4021021,0,0,0,2011020,0,0,2120161,0,0,0,0,0,0,0,0,1190041,0,0,0,0,3080121,0,0,0,0,0,0,0
17,433,1229.24602183048,1,0,507971.152006995,507972.199026512,0,40,19,0,1,27,7,2101080,7353151,5192211,7241211,0,2101080,0,0,0,0,0,0,0,0,0,0,0,2141051,0,0,1051080,4161020,0,0,0,1011151,0,0,0,0,-4181060,4200050,3041161,0,0,0,0,0,0,0
17,434,421.337691775989,0,0,507974.504853743,507975.551875955,0,40,19,1,0,21,7,7200061,5220131,2360191,4220170,4060010,0,0,3140051,0,0,0,0,0,0,2030091,0,0,0,0,0,0,3190040,0,0,-1170131,0,0,0,0,0,1190060,0,0,0,0,0,3110040,1110130,0,0
17,435,496.323852450587,0,0,507977.04595949,507978.092984011,0,40,19,1,0,29,3,0,2070040,2160160,6081162,0,0,0,0,0,0,0,0,0,2070040,0,0,0,0,0,0,0,0,0,0,0,2160160,0,0,0,0,0,0,-2050091,0,4031071,0,0,0,0,0
17,436,870.636023464613,1,0,507979.704711616,507980.751733442,0,40,19,0,1,19,3,4170010,2171070,8180231,0,0,0,0,4170010,0,0,0,0,0,0,0,0,0,0,0,0,0,2171070,-4050200,0,0,4130031,0,0,0,0,0,0,0,0,0,0,0,0,0,0
17,437,784.825915470719,1,0,507982.810511976,507983.857526874,0,40,19,0,1,2,3,1131081,10482312,0,0,0,-1131081,0,0,0,0,0,0,0,4161011,0,0,0,4161201,0,0,0,2160100,0,0,0,0,0,0,0,0,0,0,0,0,0,0,0,0,0,0
17,438,970.969938556664,1,0,507985.728066042,507986.775095568,0,40,19,1,1,32,7,6200200,9392432,1090091,2021180,0,0,2090140,0,0,0,4110060,0,0,0,2200031,0,0,0,2071151,4011110,1110140,0,0,0,0,0,0,0,0,1090091,0,0,0,0,0,-2021180,0,0,0,0
17,439,394.034720608033,0,0,507988.927979349,507989.97500079,0,40,19,1,0,22,7,5281222,4322231,5271300,5310280,0,2111101,0,0,0,0,3170121,0,0,0,0,0,0,0,0,1181150,3141081,0,3101170,0,0,-2170130,0,0,0,0,0,4200180,0,0,0,0,0,0,0,1110100
17,440,464.805558731314,0,0,507991.41026614,507992.457326463,0,40,19,0,0,34,3,3010060,4060011,3080121,3160130,0,0,0,3010060,0,0,0,0,0,0,0,0,0,0,0,0,4060011,0,0,0,0,0,0,0,0,0,3080121,0,0,0,0,0,0,-3160130,0,0
17,441,902.691722672898,0,0,507994.104309562,507995.151321765,0,40,19,0,0,7,7,11303331,1050051,4101090,8171161,3011080,0,0,2121070,0,0,-3051150,3120031,0,1050051,0,0,0,0,0,0,0,0,0,0,0,0,0,0,0,4101090,0,4110041,0,0,0,0,4061120,0,0,0
17,442,680.86566805141,0,0,507997.104220251,507998.151284424,0,40,19,1,0,28,7,5220312,5321151,7191261,3182120,0,0,0,0,0,0,0,4050141,1170171,0,0,0,0,0,0,4151041,0,1170110,0,3011141,0,0,0,0,0,0,4180120,-2111020,0,0,1071100,0,0,0,0,0
17,443,453.824547294062,0,0,507999.845325921,508000.892340818,0,40,19,1,0,9,7,12564513,2130031,7190302,3120091,0,3151141,0,2191100,0,0,4061161,0,-3161111,2130031,0,0,0,0,0,0,0,0,3050141,0,0,4140161,0,0,0,0,0,0,0,0,3120091,0,0,0,0,0
17,444,366.956951562315,0,0,508002.351126513,508003.398150649,0,40,19,0,0,15,3,4020101,10312310,0,0,0,4020101,0,0,0,0,0,0,0,0,0,3051070,4081140,0,-3180100,0,0,0,0,0,0,0,0,0,0,0,0,0,0,0,0,0,0,0,0,0
17,445,539.205423847307,1,0,508004.821648127,508005.868680347,0,40,19,1,1,26,3,4160090,3131011,2150071,0,0,0,0,0,0,0,0,4160090,0,0,0,0,0,0,0,0,3131011,0,0,0,0,0,0,0,0,-1090060,1060011,0,0,0,0,0,0,0,0,0
17,446,927.979423257057,0,0,508007.456869899,508008.503896345,0,40,19,0,0,24,7,7171191,5331251,3080060,7191201,0,4110081,0,0,3061110,0,0,0,0,0,4131190,0,0,0,0,1200061,0,0,0,0,0,0,0,-3080060,0,0,0,0,3011051,3040010,1140140,0,0,0,0,0
17,447,1010.75642381329,1,0,508010.492081508,508011.539102565,0,40,19,1,1,10,7,0,4490112,4161381,12352312,0,0,0,0,0,0,0,0,0,-1190040,0,1140011,0,2160061,0,0,0,0,0,0,0,0,0,0,0,3091180,1070201,4131081,4091181,0,0,0,0,0,4130050,0
17,448,542.197725386359,1,0,508013.609650896,508014.656671182,0,40,19,0,1,13,7,3071111,8092191,8110221,6241432,0,0,0,0,0,3071111,0,0,0,0,0,0,-4061041,0,4031150,0,0,0,0,0,4020061,0,0,4090160,0,0,0,0,0,1141121,0,2030131,0,0,0,3070180
17,449,447.40878790617,0,0,508016.409561277,508017.456579254,0,40,19,1,0,20,3,0,2060130,3191370,3050071,0,0,0,0,0,0,0,0,0,0,2060130,0,0,0,0,0,0,0,0,-1141170,0,0,2050200,0,0,0,0,0,0,0,3050071,0,0,0,0,0
17,450,1048.78671717597,0,0,508018.98595524,508020.03303943,0,40,19,1,0,25,3,7080292,2111081,2070190,0,0,0,3030201,0,4050091,0,0,0,0,0,2111081,0,0,0,0,0,0,0,0,0,0,0,0,0,-2070190,0,0,0,0,0,0,0,0,0,0,0
17,451,493.639519670978,0,0,508022.127049591,508023.174076037,0,40,19,1,0,4,3,4160080,1051200,3130040,2120170,0,0,0,-4160080,0,0,0,0,0,0,0,0,0,0,0,0,1051200,0,3130040,0,0,0,0,0,0,0,0,0,2120170,0,0,0,0,0,0,0
17,452,886.249270115513,1,0,508024.703445864,508025.750477699,0,40,19,1,1,6,3,4141241,6352191,0,0,0,0,1090041,0,0,-3051200,0,0,0,0,3191100,0,0,3161091,0,0,0,0,0,0,0,0,0,0,0,0,0,0,0,0,0,0,0,0,0,0
17,453,1327.10078835953,1,0,508027.691591761,508028.738619747,0,40,19,0,1,17,7,3191191,4162480,0,5303382,0,0,0,1170050,0,0,0,2021141,0,2131180,0,0,1010100,0,0,0,-1021200,0,0,0,0,0,0,0,0,0,0,3101201,0,0,0,0,1131090,1071091,0,0
17,454,954.666841891594,1,0,508031.115038424,508032.16206487,0,40,19,0,1,31,7,2121111,5241271,12212352,3100050,0,0,0,2121111,0,0,0,0,0,0,0,0,0,3140201,0,0,2101070,0,0,3031031,0,0,1040061,4130140,4011120,0,0,0,0,0,-3100050,0,0,0,0,0
17,455,584.839466086123,1,0,508034.173768453,508035.220784506,0,40,19,0,1,5,3,6281333,3081031,0,0,2180151,0,0,0,-2051041,0,0,0,2050141,3081031,0,0,0,0,0,0,0,0,0,0,0,0,0,0,0,0,0,0,0,0,0,0,0,0,0,0
17,456,643.811250745784,1,0,508036.867809566,508037.914878358,0,40,19,0,1,23,3,1090061,2120071,5291182,0,0,0,1090061,0,0,0,0,0,0,0,0,0,0,0,0,0,2120071,0,0,4090101,0,0,-1201081,0,0,0,0,0,0,0,0,0,0,0,0,0
17,457,1201.86374866171,0,0,508058.102499091,508059.149523612,0,40,20,0,0,2,7,7241443,0,5172231,8412321,2100161,-3070161,0,0,0,0,0,2071121,0,0,0,0,0,0,0,0,0,0,0,0,0,0,0,0,1011161,0,4161070,2130180,0,3201080,0,0,0,3081061,0,0
17,458,401.185755385086,0,0,508061.467121795,508062.514143236,0,40,20,1,0,20,3,0,2060130,3191370,3050071,0,0,0,0,0,0,0,0,0,0,2060130,0,0,0,0,0,0,0,0,-1141170,0,0,2050200,0,0,0,0,0,0,0,3050071,0,0,0,0,0
17,459,613.091366016306,0,0,508063.949405506,508064.996418864,0,40,20,0,0,7,3,4150200,3021011,4200060,1180071,0,0,0,0,0,0,-4150200,0,0,0,0,0,0,0,0,3021011,0,0,4200060,0,0,0,0,0,0,0,0,0,0,0,0,0,0,0,1180071,0
17,460,871.416339359712,1,0,508066.761086069,508067.8081129,0,40,20,0,1,17,3,4281102,2041121,3200060,0,0,0,0,0,3201041,0,1080061,0,0,0,0,0,0,0,0,0,-2041121,0,0,0,0,0,0,0,0,3200060,0,0,0,0,0,0,0,0,0,0
17,461,476.36709123617,1,0,508069.86688258,508070.913905561,0,40,20,1,1,26,3,4160090,3131011,2150071,0,0,0,0,0,0,0,0,4160090,0,0,0,0,0,0,0,0,3131011,0,0,0,0,0,0,0,0,-1090060,1060011,0,0,0,0,0,0,0,0,0
17,462,591.599380597472,1,0,508072.572687329,508073.619714545,0,40,20,1,1,25,3,7080292,2111081,2070190,0,0,0,3030201,0,4050091,0,0,0,0,0,2111081,0,0,0,0,0,0,0,0,0,0,0,0,0,-2070190,0,0,0,0,0,0,0,0,0,0,0
17,463,1023.60603574198,1,0,508075.419670737,508076.466686789,0,40,20,0,1,13,7,4152161,2180111,5212281,2301121,0,0,0,0,0,0,0,2101140,2051021,0,0,0,-1110090,0,1070021,0,0,0,4121181,0,0,0,0,0,1091100,0,0,0,0,0,0,0,1180060,0,0,1121061
