sub_id,Trial,RT,Resp,Error,Fix_onset,Disp_onset,q1,q2,block,repeat,tid,tloc,d_setsize,quad1,quad2,quad3,quad4,loc1,loc2,loc3,loc4,loc5,loc6,loc7,loc8,loc9,loc10,loc11,loc12,loc13,loc14,loc15,loc16,loc17,loc18,loc19,loc20,loc21,loc22,loc23,loc24,loc25,loc26,loc27,loc28,loc29,loc30,loc31,loc32,loc33,loc34,loc35,loc36
1,1,647.657796449494,0,1,335599.064856053,335600.111892123,1,20,1,0,1,30,7,8341391,4120030,12231363,1070171,1200201,0,3020160,0,0,0,0,4121030,0,0,0,0,0,0,0,0,4120030,0,0,0,4030201,0,0,4081151,0,4120011,0,0,0,-1070171,0,0,0,0,0,0
1,2,381.039994128514,1,0,335601.935376358,335602.982403574,1,20,1,0,1,22,7,3120191,0,8411391,9232521,0,0,3120191,0,0,0,0,0,0,0,0,0,0,0,0,0,0,0,1060111,0,3120020,-2091150,0,0,0,0,2140110,0,0,4021170,0,2040160,0,0,3171191,0
1,3,467.100711714011,0,0,335604.382375318,335605.429390215,1,20,1,1,0,28,7,6221132,1141180,5251110,8131232,0,0,3120061,0,0,0,3101071,0,0,0,0,1141180,0,0,0,0,0,0,0,2091070,0,0,0,0,0,3160040,0,-3060061,1031111,4040060,0,0,0,0,0,0
1,4,631.649579852819,1,0,335607.064706303,335608.111699257,1,20,1,1,1,21,7,5241201,3142231,5121041,6200242,0,0,0,1180080,4061121,0,0,0,0,1071101,2071130,0,0,0,0,0,0,0,0,0,-3010010,0,0,2111031,0,0,0,0,4070171,0,0,0,0,2130071,0,0
1,5,614.776289730798,0,1,335609.852807621,335610.89962818,1,20,1,0,1,20,3,2080180,0,6421311,0,0,0,0,2080180,0,0,0,0,0,0,0,0,0,0,0,0,0,0,4190170,-1041041,0,0,1190100,0,0,0,0,0,0,0,0,0,0,0,0,0
1,6,381.275590276346,0,1,335612.640973998,335613.687990435,1,20,1,1,1,35,3,0,8281361,0,3071091,0,0,0,0,0,0,0,0,0,0,0,3010120,0,0,2200121,3071120,0,0,0,0,0,0,0,0,0,0,0,0,0,0,0,0,0,0,-3071091,0
1,7,416.816341050435,1,1,335615.170313413,335616.217333315,1,20,1,1,0,12,3,3100171,5052190,0,2070011,3100171,0,0,0,0,0,0,0,0,0,0,-1021120,4031070,0,0,0,0,0,0,0,0,0,0,0,0,0,0,0,0,0,2070011,0,0,0,0,0
1,8,363.418791152071,0,0,335617.687885726,335618.734913712,1,20,1,1,0,2,7,7303342,3091011,5451411,4091090,0,-1201130,0,0,0,0,4061151,2041061,0,0,0,0,0,0,0,3091011,0,0,0,0,3140190,0,0,0,1131060,1180161,0,4091090,0,0,0,0,0,0,0,0
1,9,641.327498364262,0,1,335620.287816587,335621.334836874,1,20,1,0,1,27,7,9400332,0,10363623,3190100,0,0,4150101,1200151,0,4050080,0,0,0,0,0,0,0,0,0,0,0,0,4171161,0,2081190,0,0,3031071,0,0,-1080201,3190100,0,0,0,0,0,0,0,0
1,10,377.19269428635,1,0,335623.123029428,335624.170058569,1,20,1,1,1,31,3,0,5241381,1121141,3101061,0,0,0,0,0,0,0,0,0,0,0,0,3060190,0,0,0,2181191,0,0,0,0,0,1121141,0,0,0,0,0,0,0,-3101061,0,0,0,0,0
1,11,852.853537537158,1,1,335625.652405799,335626.699403758,1,20,1,1,0,6,3,2110141,1181040,3080131,1201150,0,0,0,0,0,-2110141,0,0,0,0,0,0,0,0,0,1181040,0,0,0,0,3080131,0,0,0,0,0,0,0,0,0,0,1201150,0,0,0,0
1,12,320.094514638186,0,0,335628.711112346,335629.758138022,1,20,1,1,0,4,7,5270341,7251250,3202242,4200171,0,0,0,-3130190,0,0,2140151,0,0,0,4080150,0,0,0,0,3171100,0,0,0,0,1090101,0,0,0,0,1031060,1081081,0,0,0,0,4200171,0,0,0,0
1,13,399.636688292958,1,1,335631.099287731,335632.146344204,1,20,1,0,0,33,3,0,9251372,0,2081151,0,0,0,0,0,0,0,0,0,0,0,3090161,0,3101180,0,0,0,3060031,0,0,0,0,0,0,0,0,0,0,0,0,0,0,-2081151,0,0,0
1,14,370.547113241628,0,0,335633.687448795,335634.734474856,1,20,1,0,0,36,3,4180180,0,0,6282221,0,0,0,0,0,0,0,0,4180180,0,0,0,0,0,0,0,0,0,0,0,0,0,0,0,0,0,0,0,0,0,0,2141171,3120030,0,0,-1021020
1,15,428.600381070282,1,1,335636.181496144,335637.228519125,1,20,1,1,0,24,7,2180131,2151191,11373561,6111201,2180131,0,0,0,0,0,0,0,0,0,0,0,0,0,0,0,0,2151191,3080100,0,0,0,3091180,-1121170,0,4081111,0,0,0,0,0,4041091,0,0,2070110,0
1,16,346.97826334741,0,1,335638.746127625,335639.793152916,1,20,1,0,1,1,3,5372241,4010041,0,2090080,-2181090,3191151,0,0,0,0,0,0,0,4010041,0,0,0,0,0,0,0,0,0,0,0,0,0,0,0,0,0,0,0,2090080,0,0,0,0,0,0
1,17,266.82015217375,1,0,335641.193128124,335642.240139942,1,20,1,0,1,8,3,1121111,2351170,0,1151131,0,0,0,0,0,0,0,-1121111,0,0,0,1151110,0,1200060,0,0,0,0,0,0,0,0,0,0,0,0,0,0,1151131,0,0,0,0,0,0,0
1,18,669.046997325495,0,0,335643.604827319,335644.651845296,1,20,1,1,0,19,7,6461200,2231302,3130101,8261201,1140130,0,3201010,0,0,2120060,0,0,0,0,0,0,0,1071111,0,0,0,1160191,-3130101,0,0,0,0,0,0,0,0,4160101,0,0,0,0,0,4101100,0,0
1,19,304.078213812318,1,0,335646.498861425,335647.545884022,1,20,1,1,1,34,3,3051201,0,6242301,3171190,0,0,0,0,3051201,0,0,0,0,0,0,0,0,0,0,0,0,0,0,3091131,0,3151170,0,0,0,0,0,0,0,0,0,0,0,-3171190,0,0
1,20,249.494214192964,0,0,335648.969381115,335650.016402556,1,20,1,0,0,13,7,3322351,9311271,2080060,6310191,0,0,0,0,0,2191201,1131150,0,0,0,0,0,-2020080,0,3091150,0,4200041,0,0,0,0,0,0,0,0,0,2080060,0,0,0,0,0,3130131,3180060,0,0
1,21,255.111564532854,1,1,335651.451659437,335652.498689348,1,20,1,1,0,5,3,2161031,4361362,2010080,0,0,0,0,0,-2161031,0,0,0,0,0,0,1161181,0,0,3200181,0,0,0,2010080,0,0,0,0,0,0,0,0,0,0,0,0,0,0,0,0,0
1,22,299.096819013357,0,1,335653.94571564,335654.992735926,1,20,1,0,1,29,7,10251252,1051011,2030141,6292283,0,2030071,0,0,4181130,0,4040051,0,0,0,0,1051011,0,0,0,0,0,0,0,0,0,2030141,0,0,0,0,0,0,-1020101,0,0,0,1171021,0,4101161,0
1,23,346.803875989281,1,0,335656.322118149,335657.36914575,1,20,1,0,1,14,7,1040020,4141201,8432332,5341292,0,1040020,0,0,0,0,0,0,0,0,0,1121171,0,-3020030,0,0,0,0,0,0,0,4171071,1060080,0,0,3201181,0,0,0,0,0,0,0,4141101,0,1200191
1,24,280.811558302958,0,0,335658.82792644,335659.874951346,1,20,1,0,0,32,3,4121171,2131050,4030201,2051021,0,0,0,0,0,0,0,0,4121171,0,0,0,0,0,0,0,0,2131050,0,0,4030201,0,0,0,0,0,0,0,0,0,0,-2051021,0,0,0,0
1,25,473.013712093234,0,0,335672.721691458,335673.768687877,1,20,2,0,0,8,3,7330212,0,0,3141040,0,0,0,0,3050110,0,0,-2100071,2180031,0,0,0,0,0,0,0,0,0,0,0,0,0,0,0,0,0,0,0,0,0,0,0,0,3141040,0,0
1,26,376.45587901352,1,1,335675.345123801,335676.392144472,1,20,2,1,0,19,7,6461200,2231302,3130101,8261201,1140130,0,3201010,0,0,2120060,0,0,0,0,0,0,0,1071111,0,0,0,1160191,-3130101,0,0,0,0,0,0,0,0,4160101,0,0,0,0,0,4101100,0,0
1,27,686.758666182868,0,1,335677.909756436,335678.956783267,1,20,2,0,1,1,7,6301351,0,12360331,7302261,-4110200,0,1071110,1120041,0,0,0,0,0,0,0,0,0,0,0,0,0,0,0,4110191,4200120,4050020,0,0,0,0,0,0,0,0,4171060,0,0,0,3131201,0
1,28,428.751670697238,1,1,335680.697917809,335681.744972357,1,20,2,1,0,2,7,7303342,3091011,5451411,4091090,0,-1201130,0,0,0,0,4061151,2041061,0,0,0,0,0,0,0,3091011,0,0,0,0,3140190,0,0,0,1131060,1180161,0,4091090,0,0,0,0,0,0,0,0
1,29,541.400487010833,1,1,335683.286084648,335684.333101855,1,20,2,1,0,35,3,0,8281361,0,3071091,0,0,0,0,0,0,0,0,0,0,0,3010120,0,0,2200121,3071120,0,0,0,0,0,0,0,0,0,0,0,0,0,0,0,0,0,0,-3071091,0
1,30,513.183618488256,1,0,335685.921302955,335686.968332481,1,20,2,1,1,6,3,2110141,1181040,3080131,1201150,0,0,0,0,0,-2110141,0,0,0,0,0,0,0,0,0,1181040,0,0,0,0,3080131,0,0,0,0,0,0,0,0,0,0,1201150,0,0,0,0
1,31,418.475137848873,0,1,335688.533000533,335689.580017355,1,20,2,0,1,22,3,0,3151091,2031121,2372261,0,0,0,0,0,0,0,0,0,0,0,0,0,0,0,0,0,3151091,0,0,0,-2031121,0,0,0,0,0,0,0,1171161,0,0,1201100,0,0,0
1,32,412.187570473179,1,1,335691.015280395,335692.062301067,1,20,2,0,0,13,3,0,7410252,3061130,0,0,0,0,0,0,0,0,0,0,3140031,0,0,-1100041,0,0,0,0,3170180,0,0,0,0,3061130,0,0,0,0,0,0,0,0,0,0,0,0,0
1,33,391.04589947965,0,1,335693.509326589,335694.556351495,1,20,2,0,1,30,3,0,2091060,5290321,1011181,0,0,0,0,0,0,0,0,0,0,0,2091060,0,0,0,0,0,0,3120181,0,0,0,0,0,0,0,2170140,0,0,-1011181,0,0,0,0,0,0
1,34,404.971092299093,1,0,335696.003377402,335697.050398844,1,20,2,1,1,21,7,5241201,3142231,5121041,6200242,0,0,0,1180080,4061121,0,0,0,0,1071101,2071130,0,0,0,0,0,0,0,0,0,-3010010,0,0,2111031,0,0,0,0,4070171,0,0,0,0,2130071,0,0
1,35,971.073123859242,0,1,335698.650370511,335699.697385408,1,20,2,0,1,29,3,6201270,0,3170081,3051200,0,0,3121180,0,0,0,0,3080090,0,0,0,0,0,0,0,0,0,0,0,0,0,0,0,3170081,0,0,0,0,-3051200,0,0,0,0,0,0,0
1,36,493.403554370161,1,1,335701.720865717,335702.767893318,1,20,2,0,0,27,7,12622473,3070200,4160080,2161200,0,0,2131031,0,1111140,4140071,2140171,3100060,0,0,0,3070200,0,0,0,0,0,0,0,0,0,0,0,0,0,0,-4160080,0,0,0,0,2161200,0,0,0,0
1,37,499.001271731686,0,0,335704.297261604,335705.3442919,1,20,2,0,0,32,7,6271082,2060311,3051151,7061351,0,3180031,0,0,0,0,0,0,3091051,0,0,1040161,0,0,1020150,0,0,0,0,2031131,0,0,0,0,0,1020020,0,4051161,0,0,0,-3010190,0,0,0,0
1,38,342.42994961096,1,0,335706.861899244,335707.908928,1,20,2,0,1,33,3,0,7340232,2120150,4160131,0,0,0,0,0,0,0,0,0,0,4150181,0,0,0,0,0,0,3190051,0,0,2120150,0,0,0,0,0,0,0,0,0,0,0,-4160131,0,0,0
1,39,641.671268560458,0,1,335709.426574226,335710.473568335,1,20,2,1,1,34,3,3051201,0,6242301,3171190,0,0,0,0,3051201,0,0,0,0,0,0,0,0,0,0,0,0,0,0,3091131,0,3151170,0,0,0,0,0,0,0,0,0,0,0,-3171190,0,0
1,40,442.667624447495,0,1,335712.32058023,335713.367649021,1,20,2,1,1,12,3,3100171,5052190,0,2070011,3100171,0,0,0,0,0,0,0,0,0,0,-1021120,4031070,0,0,0,0,0,0,0,0,0,0,0,0,0,0,0,0,0,2070011,0,0,0,0,0
1,41,237.037262471858,1,1,335714.838154082,335715.885176679,1,20,2,1,0,4,7,5270341,7251250,3202242,4200171,0,0,0,-3130190,0,0,2140151,0,0,0,4080150,0,0,0,0,3171100,0,0,0,0,1090101,0,0,0,0,1031060,1081081,0,0,0,0,4200171,0,0,0,0
1,42,637.265775294509,1,1,335717.191029702,335718.238053839,1,20,2,1,0,31,3,0,5241381,1121141,3101061,0,0,0,0,0,0,0,0,0,0,0,0,3060190,0,0,0,2181191,0,0,0,0,0,1121141,0,0,0,0,0,0,0,-3101061,0,0,0,0,0
1,43,578.224697674159,1,1,335719.94388977,335720.990917371,1,20,2,1,0,28,7,6221132,1141180,5251110,8131232,0,0,3120061,0,0,0,3101071,0,0,0,0,1141180,0,0,0,0,0,0,0,2091070,0,0,0,0,0,3160040,0,-3060061,1031111,4040060,0,0,0,0,0,0
1,44,399.189363641199,0,1,335722.732048448,335723.779078743,1,20,2,1,1,24,7,2180131,2151191,11373561,6111201,2180131,0,0,0,0,0,0,0,0,0,0,0,0,0,0,0,0,2151191,3080100,0,0,0,3091180,-1121170,0,4081111,0,0,0,0,0,4041091,0,0,2070110,0
1,45,408.633610873949,1,0,335725.355503888,335726.402530719,1,20,2,0,1,14,7,3111011,9211292,8463460,2161091,0,0,0,0,0,0,0,3111011,0,0,0,0,0,-2070091,0,0,4051061,3090140,0,2171090,0,2121180,0,0,0,4171190,0,0,0,0,2161091,0,0,0,0,0
1,46,469.106358359568,0,1,335727.873093139,335728.920114196,1,20,2,0,1,36,7,8082251,2060041,1080051,8290321,0,0,0,1010020,0,0,3031060,0,4041171,0,0,0,0,0,0,2060041,0,0,0,1080051,0,0,0,0,0,0,0,3120070,0,0,0,0,0,1080101,0,-4090150
1,47,408.093510661274,1,1,335730.473014376,335731.520044672,1,20,2,1,0,5,3,2161031,4361362,2010080,0,0,0,0,0,-2161031,0,0,0,0,0,0,1161181,0,0,3200181,0,0,0,2010080,0,0,0,0,0,0,0,0,0,0,0,0,0,0,0,0,0
1,48,647.605056758039,1,1,335733.002364185,335734.04944799,1,20,2,0,0,20,7,12392502,3180240,4090081,3070200,0,0,0,4111010,3130170,2131191,0,0,3020131,0,1140180,0,0,0,0,0,2040060,0,0,-4090081,0,0,0,0,0,0,0,0,0,3070200,0,0,0,0,0,0
1,49,514.089431613684,1,0,335761.895678029,335762.94270101,1,20,3,0,1,14,7,3201030,4261242,8283191,6211171,0,0,0,0,0,0,3201030,0,0,0,0,0,0,-1110171,3151071,0,0,0,0,0,0,0,3101030,4031011,0,1151150,0,0,0,0,0,0,3060031,3151140,0,0
1,50,1004.71717200708,0,0,335764.577963588,335765.625020061,1,20,3,1,0,6,3,2110141,1181040,3080131,1201150,0,0,0,0,0,-2110141,0,0,0,0,0,0,0,0,0,1181040,0,0,0,0,3080131,0,0,0,0,0,0,0,0,0,0,1201150,0,0,0,0
1,51,784.792439604644,0,1,335767.777871891,335768.824891022,1,20,3,0,1,22,7,7250401,4412383,6152290,3110020,0,4200200,0,0,0,3050201,0,0,0,0,1151201,0,0,2170051,1091131,0,0,0,0,4091130,0,-2061160,0,0,0,0,0,0,0,0,0,0,0,3110020,0,0
1,52,4333.82337738294,0,1,335770.730730341,335771.777759867,1,20,3,0,1,30,3,0,4100130,1091080,3111161,0,0,0,0,0,0,0,0,0,0,0,4100130,0,0,0,0,0,0,0,0,0,0,1091080,0,0,0,0,0,0,-2090040,0,0,0,1021121,0,0
1,53,1076.48890867131,1,1,335777.307016515,335778.354042191,1,20,3,1,0,34,3,3051201,0,6242301,3171190,0,0,0,0,3051201,0,0,0,0,0,0,0,0,0,0,0,0,0,0,3091131,0,3151170,0,0,0,0,0,0,0,0,0,0,0,-3171190,0,0
1,54,5000,-1,-1,335780.436340685,335781.483364437,1,20,3,0,1,33,7,3181141,4090010,8211311,13450611,3181141,0,0,0,0,0,0,0,0,0,0,0,0,0,0,0,4090010,0,4150150,0,0,0,0,0,0,4061161,0,0,4150170,2100170,0,4180100,-3020171,0,0,0
1,55,933.249169611372,1,0,335787.624380256,335788.671402468,1,20,3,1,1,21,7,5241201,3142231,5121041,6200242,0,0,0,1180080,4061121,0,0,0,0,1071101,2071130,0,0,0,0,0,0,0,0,0,-3010010,0,0,2111031,0,0,0,0,4070171,0,0,0,0,2130071,0,0
1,56,1707.67552003963,1,1,335790.800769369,335791.84779235,1,20,3,1,0,24,7,2180131,2151191,11373561,6111201,2180131,0,0,0,0,0,0,0,0,0,0,0,0,0,0,0,0,2151191,3080100,0,0,0,3091180,-1121170,0,4081111,0,0,0,0,0,4041091,0,0,2070110,0
1,57,4343.85122550884,0,0,335794.659484846,335795.706499358,1,20,3,0,0,27,7,0,4080130,12332483,11492302,0,0,0,0,0,0,0,0,0,0,0,0,0,0,4080130,0,0,0,0,0,0,0,0,3071201,2091111,4090120,-3080051,0,0,0,0,4181071,4160151,0,0,3151080
1,58,3229.93742750259,0,0,335801.200473565,335802.247493466,1,20,3,1,0,5,3,2161031,4361362,2010080,0,0,0,0,0,-2161031,0,0,0,0,0,0,1161181,0,0,3200181,0,0,0,2010080,0,0,0,0,0,0,0,0,0,0,0,0,0,0,0,0,0
1,59,1386.50451501599,0,0,335806.670913182,335807.717941938,1,20,3,0,0,36,3,0,2151061,3130150,7300090,0,0,0,0,0,0,0,0,0,0,0,0,0,0,0,0,2151061,0,0,0,0,0,0,3130150,0,0,0,0,0,0,0,4120030,0,0,0,-3180060
1,60,1086.3920293632,1,0,335810.164934354,335811.211961955,1,20,3,0,1,13,7,3060070,7273401,5340192,6221262,0,0,0,0,3060070,0,0,0,0,0,0,0,-2151190,0,3101031,0,0,2021180,0,0,3150021,0,0,0,2190171,0,0,2140071,0,0,0,0,4081191,0,0,0
1,61,1735.27606605785,0,0,335813.411905673,335814.458930579,1,20,3,1,0,2,7,7303342,3091011,5451411,4091090,0,-1201130,0,0,0,0,4061151,2041061,0,0,0,0,0,0,0,3091011,0,0,0,0,3140190,0,0,0,1131060,1180161,0,4091090,0,0,0,0,0,0,0,0
1,62,1799.04908384196,0,0,335817.247093107,335818.294113779,1,20,3,0,0,32,7,11392393,0,3200050,10191421,2160080,0,4031171,0,3080041,0,0,0,2121101,0,0,0,0,0,0,0,0,0,0,0,0,0,0,0,0,3200050,0,0,4021160,4090080,0,-2080181,0,0,0,0
1,63,1169.4234891329,1,0,335821.294037171,335822.35282379,1,20,3,1,1,28,7,6221132,1141180,5251110,8131232,0,0,3120061,0,0,0,3101071,0,0,0,0,1141180,0,0,0,0,0,0,0,2091070,0,0,0,0,0,3160040,0,-3060061,1031111,4040060,0,0,0,0,0,0
1,64,979.186561075039,0,1,335824.646889309,335825.693917294,1,20,3,0,1,8,3,1190050,4041120,2160051,2041200,0,0,0,0,0,0,0,-1190050,0,0,0,0,0,0,4041120,0,0,0,0,2160051,0,0,0,0,0,0,0,0,0,0,0,0,2041200,0,0,0
1,65,1975.71459820028,1,0,335827.717397988,335828.764412885,1,20,3,1,1,12,3,3100171,5052190,0,2070011,3100171,0,0,0,0,0,0,0,0,0,0,-1021120,4031070,0,0,0,0,0,0,0,0,0,0,0,0,0,0,0,0,0,2070011,0,0,0,0,0
1,66,1555.7291189325,0,0,335831.858490415,335832.90547875,1,20,3,0,0,1,3,2011190,2061180,2161121,2051031,-2011190,0,0,0,0,0,0,0,0,0,2061180,0,0,0,0,0,0,0,0,0,0,0,2161121,0,0,0,0,2051031,0,0,0,0,0,0,0,0
1,67,931.244292936753,1,0,335835.634824247,335836.681846074,1,20,3,1,1,19,7,6461200,2231302,3130101,8261201,1140130,0,3201010,0,0,2120060,0,0,0,0,0,0,0,1071111,0,0,0,1160191,-3130101,0,0,0,0,0,0,0,0,4160101,0,0,0,0,0,4101100,0,0
1,68,1352.54479886498,1,0,335838.752427126,335839.799410071,1,20,3,1,1,35,3,0,8281361,0,3071091,0,0,0,0,0,0,0,0,0,0,0,3010120,0,0,2200121,3071120,0,0,0,0,0,0,0,0,0,0,0,0,0,0,0,0,0,0,-3071091,0
1,69,1276.52771270368,1,0,335842.187578142,335843.234601894,1,20,3,1,1,31,3,0,5241381,1121141,3101061,0,0,0,0,0,0,0,0,0,0,0,0,3060190,0,0,0,2181191,0,0,0,0,0,1121141,0,0,0,0,0,0,0,-3101061,0,0,0,0,0
1,70,850.137253000867,1,0,335845.622774584,335846.669807574,1,20,3,0,1,20,3,4111161,1190201,3170130,0,4111161,0,0,0,0,0,0,0,0,0,0,0,1190201,0,0,0,0,0,0,-1090010,0,0,0,0,0,2080120,0,0,0,0,0,0,0,0,0,0
1,71,1416.26315220492,0,0,335848.575639579,335849.622666025,1,20,3,1,0,4,7,5270341,7251250,3202242,4200171,0,0,0,-3130190,0,0,2140151,0,0,0,4080150,0,0,0,0,3171100,0,0,0,0,1090101,0,0,0,0,1031060,1081081,0,0,0,0,4200171,0,0,0,0
1,72,875.935026851948,0,0,335852.057903273,335853.104916245,1,20,3,0,0,29,3,2071150,0,0,4111361,0,0,0,0,0,0,1060120,1011030,0,0,0,0,0,0,0,0,0,0,0,0,0,0,0,0,0,0,0,0,-1031161,0,0,3080200,0,0,0,0
1,73,1766.43249648623,0,0,335863.869336305,335864.916361981,1,20,4,0,0,22,7,7241453,7171310,1201070,5311181,0,0,0,0,0,3150191,0,3020201,1071061,0,3071130,0,0,0,0,0,0,4100180,0,0,0,-1201070,0,0,0,0,0,0,4181121,1130060,0,0,0,0,0,0
1,74,804.489352158271,1,0,335867.763342694,335868.81036991,1,20,4,1,1,28,7,6221132,1141180,5251110,8131232,0,0,3120061,0,0,0,3101071,0,0,0,0,1141180,0,0,0,0,0,0,0,2091070,0,0,0,0,0,3160040,0,-3060061,1031111,4040060,0,0,0,0,0,0
1,75,1482.20542498166,1,0,335870.704448671,335871.751469343,1,20,4,0,1,33,7,0,1170041,7182412,12332243,0,0,0,0,0,0,0,0,0,0,0,1170041,0,0,0,0,0,0,0,3031191,3120050,0,0,0,0,0,1031171,3091071,0,0,3150091,0,-4021041,0,0,2070040
1,76,1786.7776833009,1,0,335874.280816457,335875.327912581,1,20,4,0,1,1,7,9211433,4171111,6092290,2271310,-4020061,0,0,0,0,0,2141181,0,3050191,4171111,0,0,0,0,0,0,0,0,0,3071180,0,0,0,0,0,3021110,0,0,1080150,0,0,0,0,1191160,0,0
1,77,2304.92358811898,0,0,335878.174891369,335879.221848907,1,20,4,0,0,30,7,7432322,4181191,2081090,6301262,2121090,0,0,0,0,3190161,0,0,2121071,0,0,1030161,0,0,0,3151030,0,0,0,0,0,0,0,0,0,0,2081090,0,0,-4201061,0,0,0,2100201,0,0
1,78,1001.74642831553,0,0,335882.680638066,335883.727753438,1,20,4,0,0,8,7,5312390,4131181,5140290,3170030,3191070,0,1041130,0,0,0,0,-1080190,0,0,0,0,0,0,1101130,0,3030051,0,0,0,0,3090150,0,0,2050140,0,0,0,0,0,0,3170030,0,0,0,0
1,79,1314.83017350547,0,0,335885.774607807,335886.821647341,1,20,4,1,0,31,3,0,5241381,1121141,3101061,0,0,0,0,0,0,0,0,0,0,0,0,3060190,0,0,0,2181191,0,0,0,0,0,1121141,0,0,0,0,0,0,0,-3101061,0,0,0,0,0
1,80,1017.32425851515,1,0,335889.29217165,335890.339186933,1,20,4,1,1,5,3,2161031,4361362,2010080,0,0,0,0,0,-2161031,0,0,0,0,0,0,1161181,0,0,3200181,0,0,0,2010080,0,0,0,0,0,0,0,0,0,0,0,0,0,0,0,0,0
1,81,1244.73455687985,0,0,335892.409765675,335893.456747851,1,20,4,1,0,4,7,5270341,7251250,3202242,4200171,0,0,0,-3130190,0,0,2140151,0,0,0,4080150,0,0,0,0,3171100,0,0,0,0,1090101,0,0,0,0,1031060,1081081,0,0,0,0,4200171,0,0,0,0
1,82,912.024731980637,0,0,335895.821398657,335896.868420483,1,20,4,0,0,29,3,0,2130020,4150090,7252070,0,0,0,0,0,0,0,0,0,2130020,0,0,0,0,0,0,0,0,0,4150090,0,0,0,0,0,0,0,0,-4101050,0,0,3151020,0,0,0,0
1,83,1239.09564869246,1,0,335898.868369283,335899.9153888,1,20,4,1,1,24,7,2180131,2151191,11373561,6111201,2180131,0,0,0,0,0,0,0,0,0,0,0,0,0,0,0,0,2151191,3080100,0,0,0,3091180,-1121170,0,4081111,0,0,0,0,0,4041091,0,0,2070110,0
1,84,543.150904471986,1,0,335902.268270579,335903.315298565,1,20,4,0,1,14,3,0,2180130,7211322,3110060,0,0,0,0,0,0,0,0,0,0,0,0,0,-2180130,0,0,0,0,0,0,0,0,4140141,0,3071181,0,0,0,0,0,0,0,3110060,0,0,0
1,85,1624.69833978685,1,0,335904.997643794,335906.044636363,1,20,4,1,1,35,3,0,8281361,0,3071091,0,0,0,0,0,0,0,0,0,0,0,3010120,0,0,2200121,3071120,0,0,0,0,0,0,0,0,0,0,0,0,0,0,0,0,0,0,-3071091,0
1,86,1293.2885279879,0,0,335908.726917688,335909.773943749,1,20,4,0,0,36,7,11441274,0,6181210,5160231,1180181,0,3101041,0,4120011,0,0,3040041,0,0,0,0,0,0,0,0,0,0,0,0,0,0,2160110,4021100,0,0,0,0,0,0,0,2030150,0,0,0,-3130081
1,87,904.474877635948,1,0,335912.279757814,335913.3267858,1,20,4,0,1,13,3,0,4121162,1131011,4041181,0,0,0,0,0,0,0,0,0,0,0,0,-2011111,0,0,0,2110051,0,0,0,0,0,0,0,1131011,0,0,0,0,0,0,4041181,0,0,0,0
1,88,699.999013508204,1,0,335915.397352609,335916.444344794,1,20,4,1,1,21,7,5241201,3142231,5121041,6200242,0,0,0,1180080,4061121,0,0,0,0,1071101,2071130,0,0,0,0,0,0,0,0,0,-3010010,0,0,2111031,0,0,0,0,4070171,0,0,0,0,2130071,0,0
1,89,734.30981405545,1,0,335918.267829799,335919.31485663,1,20,4,1,1,34,3,3051201,0,6242301,3171190,0,0,0,0,3051201,0,0,0,0,0,0,0,0,0,0,0,0,0,0,3091131,0,3151170,0,0,0,0,0,0,0,0,0,0,0,-3171190,0,0
1,90,1615.0770104141,1,0,335921.103049954,335922.150067931,1,20,4,1,1,2,7,7303342,3091011,5451411,4091090,0,-1201130,0,0,0,0,4061151,2041061,0,0,0,0,0,0,0,3091011,0,0,0,0,3140190,0,0,0,1131060,1180161,0,4091090,0,0,0,0,0,0,0,0
1,91,1094.57398962695,0,0,335924.926470286,335925.973548702,1,20,4,0,0,20,3,1051060,3301281,4141131,0,0,0,0,1051060,0,0,0,0,0,0,1101201,0,0,2200080,0,0,0,0,0,-4141131,0,0,0,0,0,0,0,0,0,0,0,0,0,0,0,0
1,92,885.613715276122,0,0,335928.114616106,335929.161644862,1,20,4,1,0,19,7,6461200,2231302,3130101,8261201,1140130,0,3201010,0,0,2120060,0,0,0,0,0,0,0,1071111,0,0,0,1160191,-3130101,0,0,0,0,0,0,0,0,4160101,0,0,0,0,0,4101100,0,0
1,93,922.678911534604,0,0,335931.220421857,335932.267439064,1,20,4,1,0,6,3,2110141,1181040,3080131,1201150,0,0,0,0,0,-2110141,0,0,0,0,0,0,0,0,0,1181040,0,0,0,0,3080131,0,0,0,0,0,0,0,0,0,0,1201150,0,0,0,0
1,94,877.079515776131,1,0,335934.385033473,335935.43205684,1,20,4,0,1,32,3,3150021,4110071,0,5250322,0,0,0,0,0,0,0,3150021,0,0,0,0,0,0,4110071,0,0,0,0,0,0,0,0,0,0,0,0,2160181,0,0,0,-3090141,0,0,0,0
1,95,831.55557239661,0,0,335937.361415348,335938.408444104,1,20,4,0,0,27,3,3340332,3201171,3040130,0,1190171,0,0,0,0,0,0,2150161,0,0,0,0,3201171,0,0,0,0,0,0,0,0,0,0,0,0,0,-3040130,0,0,0,0,0,0,0,0,0
1,96,1174.90687314421,1,1,335940.420157696,335941.467176443,1,20,4,1,0,12,3,3100171,5052190,0,2070011,3100171,0,0,0,0,0,0,0,0,0,0,-1021120,4031070,0,0,0,0,0,0,0,0,0,0,0,0,0,0,0,0,0,2070011,0,0,0,0,0
1,97,1405.23594542174,1,0,335951.772784247,335952.819814927,1,20,5,1,1,6,3,2110141,1181040,3080131,1201150,0,0,0,0,0,-2110141,0,0,0,0,0,0,0,0,0,1181040,0,0,0,0,3080131,0,0,0,0,0,0,0,0,0,0,1201150,0,0,0,0
1,98,1220.97900090739,0,0,335955.360927603,335956.407943655,1,20,5,1,0,31,3,0,5241381,1121141,3101061,0,0,0,0,0,0,0,0,0,0,0,0,3060190,0,0,0,2181191,0,0,0,0,0,1121141,0,0,0,0,0,0,0,-3101061,0,0,0,0,0
1,99,648.018119856715,1,0,335958.654946926,335959.701966828,1,20,5,1,1,12,3,3100171,5052190,0,2070011,3100171,0,0,0,0,0,0,0,0,0,0,-1021120,4031070,0,0,0,0,0,0,0,0,0,0,0,0,0,0,0,0,0,2070011,0,0,0,0,0
1,100,464.166924240999,1,0,335961.513689351,335962.560720417,1,20,5,1,1,21,7,5241201,3142231,5121041,6200242,0,0,0,1180080,4061121,0,0,0,0,1071101,2071130,0,0,0,0,0,0,0,0,0,-3010010,0,0,2111031,0,0,0,0,4070171,0,0,0,0,2130071,0,0
1,101,1006.63851218997,0,0,335964.137150566,335965.184171623,1,20,5,0,0,30,3,0,5231121,0,5112121,0,0,0,0,0,0,0,0,0,0,0,2051040,0,0,3180081,0,0,0,0,0,0,0,0,0,0,0,0,1031041,0,-4081080,0,0,0,0,0,0
1,102,923.939658678137,1,0,335967.301768342,335968.348794018,1,20,5,1,1,2,7,7303342,3091011,5451411,4091090,0,-1201130,0,0,0,0,4061151,2041061,0,0,0,0,0,0,0,3091011,0,0,0,0,3140190,0,0,0,1131060,1180161,0,4091090,0,0,0,0,0,0,0,0
1,103,646.444399491884,1,0,335970.419327721,335971.466348392,1,20,5,0,1,33,3,4020190,0,1141011,5350271,4020190,0,0,0,0,0,0,0,0,0,0,0,0,0,0,0,0,0,0,0,1141011,0,0,0,0,0,0,0,0,0,0,0,-4180161,0,0,1170110
1,104,1307.83196818084,0,0,335973.242781159,335974.289801831,1,20,5,0,0,27,7,11342482,12381120,1070081,0,4201120,0,0,3081161,0,0,0,0,4060201,3140010,0,0,4090030,3111050,0,0,0,2040030,0,0,0,0,0,0,0,0,-1070081,0,0,0,0,0,0,0,0,0
1,105,1224.87711563008,1,0,335976.642682455,335977.689703512,1,20,5,0,1,22,3,4091170,0,4081020,8301121,0,0,4091170,0,0,0,0,0,0,0,0,0,0,0,0,0,0,0,0,0,0,-4081020,0,0,0,0,0,0,0,0,0,0,0,4201080,0,4100041
1,106,829.265824577305,0,0,335980.054355472,335981.101381149,1,20,5,0,0,8,3,2151140,5171130,0,2180141,0,0,0,0,0,0,0,-2151140,0,0,0,0,0,0,2140120,0,3031010,0,0,0,0,0,0,0,0,0,0,0,0,0,0,0,0,2180141,0,0
1,107,1253.38501459919,0,0,335983.05427771,335984.101297612,1,20,5,1,0,19,7,6461200,2231302,3130101,8261201,1140130,0,3201010,0,0,2120060,0,0,0,0,0,0,0,1071111,0,0,0,1160191,-3130101,0,0,0,0,0,0,0,0,4160101,0,0,0,0,0,4101100,0,0
1,108,442.6052608178,1,0,335986.513000656,335987.560026332,1,20,5,0,1,20,7,4230231,7361312,4060161,6201291,0,0,2180070,0,0,2050161,0,0,0,0,1200101,3070141,0,0,0,0,0,3091070,0,-4060161,0,0,0,0,0,0,0,0,0,0,0,0,0,2100191,4101100,0
1,109,642.033516778611,1,0,335989.077633677,335990.124657428,1,20,5,0,1,14,7,6211060,7291381,11320401,0,0,4201040,0,0,0,0,2010020,0,0,0,0,0,0,-3121200,0,0,0,4170181,1020021,0,4100200,0,0,0,2160100,4040080,0,0,0,0,0,0,0,0,0,0
1,110,1302.3058535764,0,0,335991.795210532,335992.842236593,1,20,5,0,0,1,3,1051090,0,4210290,2140191,-1051090,0,0,0,0,0,0,0,0,0,0,0,0,0,0,0,0,0,3180160,0,0,0,1030130,0,0,0,0,2140191,0,0,0,0,0,0,0,0
1,111,1141.98963122908,0,0,335995.277457288,335996.324481039,1,20,5,1,0,4,7,5270341,7251250,3202242,4200171,0,0,0,-3130190,0,0,2140151,0,0,0,4080150,0,0,0,0,3171100,0,0,0,0,1090101,0,0,0,0,1031060,1081081,0,0,0,0,4200171,0,0,0,0
1,112,961.347085190937,0,0,335998.642080761,335999.689103743,1,20,5,1,0,35,3,0,8281361,0,3071091,0,0,0,0,0,0,0,0,0,0,0,3010120,0,0,2200121,3071120,0,0,0,0,0,0,0,0,0,0,0,0,0,0,0,0,0,0,-3071091,0
1,113,1043.75529318349,0,1,336001.806703542,336002.853783497,1,20,5,0,1,13,3,7372352,1190110,0,0,0,0,0,0,1181170,3050071,0,0,3141111,0,0,0,-1190110,0,0,0,0,0,0,0,0,0,0,0,0,0,0,0,0,0,0,0,0,0,0,0
1,114,2329.83094721567,0,0,336005.065426565,336006.112450316,1,20,5,1,0,28,7,6221132,1141180,5251110,8131232,0,0,3120061,0,0,0,3101071,0,0,0,0,1141180,0,0,0,0,0,0,0,2091070,0,0,0,0,0,3160040,0,-3060061,1031111,4040060,0,0,0,0,0,0
1,115,861.222203879151,0,0,336009.524129493,336010.571152089,1,20,5,0,0,32,7,4121190,3200190,8490411,7071101,0,0,2010110,0,2111080,0,0,0,0,3200190,0,0,0,0,0,0,0,0,2160171,0,2200110,0,0,4130130,0,0,0,0,0,0,0,-4011071,0,0,0,3060030
1,116,1116.84475117363,1,0,336012.547580929,336013.594595057,1,20,5,0,1,36,7,2121070,1080191,9242153,6272152,0,0,0,0,0,0,0,2121070,0,0,0,1080191,0,0,0,0,0,0,0,0,0,0,2161131,3010011,0,4071011,0,0,0,0,2180081,0,0,0,3031010,-1061061
1,117,1526.64801303763,1,0,336015.841668006,336016.888625544,1,20,5,0,1,29,7,4231302,2170140,9280301,4301240,0,3101171,0,1130131,0,0,0,0,0,0,0,0,2170140,0,0,0,0,0,1090150,4170141,0,0,0,0,4020010,0,0,1110170,-3191070,0,0,0,0,0,0,0
1,118,1034.92313384777,0,0,336019.453268189,336020.50028886,1,20,5,1,0,5,3,2161031,4361362,2010080,0,0,0,0,0,-2161031,0,0,0,0,0,0,1161181,0,0,3200181,0,0,0,2010080,0,0,0,0,0,0,0,0,0,0,0,0,0,0,0,0,0
1,119,657.954732188955,0,0,336022.747292517,336023.794314343,1,20,5,1,0,34,3,3051201,0,6242301,3171190,0,0,0,0,3051201,0,0,0,0,0,0,0,0,0,0,0,0,0,0,3091131,0,3151170,0,0,0,0,0,0,0,0,0,0,0,-3171190,0,0
1,120,1172.22562001552,1,0,336025.606039176,336026.653067547,1,20,5,1,1,24,7,2180131,2151191,11373561,6111201,2180131,0,0,0,0,0,0,0,0,0,0,0,0,0,0,0,0,2151191,3080100,0,0,0,3091180,-1121170,0,4081111,0,0,0,0,0,4041091,0,0,2070110,0
1,121,595.618003804702,0,0,336036.170466628,336037.217472671,1,20,6,0,0,20,7,10231362,4301121,5152161,4181110,0,4100131,0,0,0,0,0,3021101,3110130,0,0,0,2130051,0,0,2171070,0,0,0,-1081101,0,0,0,0,0,4071060,0,0,4181110,0,0,0,0,0,0,0
1,122,741.758038697299,1,0,336038.829204125,336039.876216712,1,20,6,1,1,5,3,2161031,4361362,2010080,0,0,0,0,0,-2161031,0,0,0,0,0,0,1161181,0,0,3200181,0,0,0,2010080,0,0,0,0,0,0,0,0,0,0,0,0,0,0,0,0,0
1,123,757.976828957908,1,0,336041.687728622,336042.734965682,1,20,6,0,1,29,3,0,1070020,0,9321380,0,0,0,0,0,0,0,0,0,0,0,1070020,0,0,0,0,0,0,0,0,0,0,0,0,0,0,0,0,-4090120,0,0,1050190,0,0,4181070,0
1,124,1260.59918303508,1,0,336044.511400373,336045.558416811,1,20,6,1,1,31,3,0,5241381,1121141,3101061,0,0,0,0,0,0,0,0,0,0,0,0,3060190,0,0,0,2181191,0,0,0,0,0,1121141,0,0,0,0,0,0,0,-3101061,0,0,0,0,0
1,125,769.555684761144,0,0,336048.005421545,336049.052438367,1,20,6,1,0,21,7,5241201,3142231,5121041,6200242,0,0,0,1180080,4061121,0,0,0,0,1071101,2071130,0,0,0,0,0,0,0,0,0,-3010010,0,0,2111031,0,0,0,0,4070171,0,0,0,0,2130071,0,0
1,126,934.327060298529,1,0,336050.887690474,336051.934709606,1,20,6,1,1,19,7,6461200,2231302,3130101,8261201,1140130,0,3201010,0,0,2120060,0,0,0,0,0,0,0,1071111,0,0,0,1160191,-3130101,0,0,0,0,0,0,0,0,4160101,0,0,0,0,0,4101100,0,0
1,127,547.509047493804,1,0,336053.946434747,336054.993448489,1,20,6,0,1,22,3,0,1060201,3271210,1010091,0,0,0,0,0,0,0,0,0,1060201,0,0,0,0,0,0,0,0,0,0,0,-2191030,0,0,0,0,1080180,0,0,1010091,0,0,0,0,0,0
1,128,1085.55242954753,0,0,336056.652236801,336057.699264017,1,20,6,1,0,2,7,7303342,3091011,5451411,4091090,0,-1201130,0,0,0,0,4061151,2041061,0,0,0,0,0,0,0,3091011,0,0,0,0,3140190,0,0,0,1131060,1180161,0,4091090,0,0,0,0,0,0,0,0
1,129,818.782567686867,1,0,336059.805109418,336060.852110072,1,20,6,1,1,6,3,2110141,1181040,3080131,1201150,0,0,0,0,0,-2110141,0,0,0,0,0,0,0,0,0,1181040,0,0,0,0,3080131,0,0,0,0,0,0,0,0,0,0,1201150,0,0,0,0
1,130,715.648446523119,1,1,336062.793242997,336063.840263283,1,20,6,1,0,35,3,0,8281361,0,3071091,0,0,0,0,0,0,0,0,0,0,0,3010120,0,0,2200121,3071120,0,0,0,0,0,0,0,0,0,0,0,0,0,0,0,0,0,0,-3071091,0
1,131,1565.40318788029,0,0,336065.628555543,336066.675484594,1,20,6,1,0,28,7,6221132,1141180,5251110,8131232,0,0,3120061,0,0,0,3101071,0,0,0,0,1141180,0,0,0,0,0,0,0,2091070,0,0,0,0,0,3160040,0,-3060061,1031111,4040060,0,0,0,0,0,0
1,132,700.333929504268,0,0,336069.369531095,336070.416554462,1,20,6,0,0,14,7,2110090,6310432,6362072,5100301,0,0,2110090,0,0,0,0,0,0,0,0,0,2130191,-2140051,2040190,0,0,0,0,0,0,4191051,0,2171021,0,0,0,0,0,2080201,3020100,0,0,0,0,0
1,133,906.423934909981,0,0,336072.134166349,336073.181201649,1,20,6,0,0,1,3,5130222,5210232,0,0,-1060181,0,0,0,0,4070041,0,0,0,4180191,0,1030041,0,0,0,0,0,0,0,0,0,0,0,0,0,0,0,0,0,0,0,0,0,0,0,0
1,134,1888.760001224,1,0,336075.239963245,336076.286981607,1,20,6,0,1,32,7,2011160,9402292,1140100,4232212,0,0,0,0,0,0,2011160,0,0,0,0,2061011,3191150,0,0,0,4150131,0,0,0,0,0,0,0,0,0,1140100,0,0,1020121,0,-1111020,0,2101071,0,0
1,135,1049.39574119635,0,0,336079.369257773,336080.41627806,1,20,6,0,0,8,3,8181202,0,0,4132171,0,4170141,0,0,0,0,0,-4011061,0,0,0,0,0,0,0,0,0,0,0,0,0,0,0,0,0,0,0,0,0,0,1101161,0,3031010,0,0,0
1,136,1373.08978039073,1,0,336082.545636877,336083.592658703,1,20,6,1,1,4,7,5270341,7251250,3202242,4200171,0,0,0,-3130190,0,0,2140151,0,0,0,4080150,0,0,0,0,3171100,0,0,0,0,1090101,0,0,0,0,1031060,1081081,0,0,0,0,4200171,0,0,0,0
1,137,1790.94450076809,0,0,336085.992601575,336087.039620707,1,20,6,0,0,30,7,6331322,6311422,4071040,4191130,0,0,0,0,0,4151131,0,0,2180191,0,3100121,0,1021130,0,0,0,0,2190171,0,0,4071040,0,0,0,0,0,0,0,0,-1090010,0,3101120,0,0,0,0
1,138,1117.73824557895,1,0,336089.980722834,336091.027745816,1,20,6,0,1,27,7,6282361,4151201,4121212,5181320,0,0,4101201,0,0,0,0,2181160,0,1110081,0,0,0,0,0,0,0,3041120,0,0,0,0,0,0,3060191,0,-1061021,4020190,0,0,1161130,0,0,0,0,0
1,139,1468.89116516104,0,0,336093.180641146,336094.227656813,1,20,6,0,0,13,3,0,8181210,0,7341102,0,0,0,0,0,0,0,0,0,4050180,0,0,-4131030,0,0,0,0,0,0,0,0,0,0,0,0,0,0,0,0,3160051,0,0,0,4181051,0,0
1,140,1199.00619919645,1,0,336096.780536975,336097.827559572,1,20,6,1,1,12,3,3100171,5052190,0,2070011,3100171,0,0,0,0,0,0,0,0,0,0,-1021120,4031070,0,0,0,0,0,0,0,0,0,0,0,0,0,0,0,0,0,2070011,0,0,0,0,0
1,141,508.555232838262,0,0,336100.2039744,336101.250995456,1,20,6,0,0,33,3,7281321,0,0,6381251,4130171,0,0,0,0,0,0,3151150,0,0,0,0,0,0,0,0,0,0,0,0,0,0,0,0,0,0,0,0,0,0,0,0,-4190110,0,2191141,0
1,142,788.257088279352,1,0,336102.792134309,336103.839159985,1,20,6,0,1,36,7,1151061,7290052,4362302,3140321,1151061,0,0,0,0,0,0,0,0,0,0,3140031,4150021,0,0,0,0,0,0,0,1111181,0,0,2091091,1160030,0,0,0,0,1030130,0,0,0,0,0,-2110191
1,143,1238.99401898962,0,0,336105.780287906,336106.827311272,1,20,6,1,0,24,7,2180131,2151191,11373561,6111201,2180131,0,0,0,0,0,0,0,0,0,0,0,0,0,0,0,0,2151191,3080100,0,0,0,3091180,-1121170,0,4081111,0,0,0,0,0,4041091,0,0,2070110,0
1,144,756.482410535682,1,0,336109.144902525,336110.191920887,1,20,6,1,1,34,3,3051201,0,6242301,3171190,0,0,0,0,3051201,0,0,0,0,0,0,0,0,0,0,0,0,0,0,3091131,0,3151170,0,0,0,0,0,0,0,0,0,0,0,-3171190,0,0
1,145,685.376271430869,1,0,336120.332818523,336121.379846124,1,20,7,0,1,14,3,5190262,3071090,3170110,0,0,3150111,0,0,2040151,0,0,0,0,0,0,0,0,-3071090,0,0,0,0,0,0,0,0,0,0,0,0,3170110,0,0,0,0,0,0,0,0,0
1,146,1135.63315587817,1,0,336123.14451256,336124.191542855,1,20,7,0,1,30,7,2150212,4190140,4231370,2200191,0,0,0,1060011,0,1090201,0,0,0,0,1170090,3020050,0,0,0,0,0,0,2181190,2050180,0,0,0,0,0,0,0,0,1130061,-1070130,0,0,0,0,0,0
1,147,962.441914191004,0,0,336126.379721782,336127.426744763,1,20,7,1,0,5,3,2161031,4361362,2010080,0,0,0,0,0,-2161031,0,0,0,0,0,0,1161181,0,0,3200181,0,0,0,2010080,0,0,0,0,0,0,0,0,0,0,0,0,0,0,0,0,0
1,148,819.635256193578,1,0,336129.57962739,336130.626653451,1,20,7,1,1,12,3,3100171,5052190,0,2070011,3100171,0,0,0,0,0,0,0,0,0,0,-1021120,4031070,0,0,0,0,0,0,0,0,0,0,0,0,0,0,0,0,0,2070011,0,0,0,0,0
1,149,1798.07705740677,0,0,336132.508959721,336133.555983857,1,20,7,0,0,13,7,3301242,8252101,6110291,3190030,0,0,1180091,2121151,0,0,0,0,0,3061041,2060020,0,-3131040,0,0,0,0,0,0,0,0,2020130,0,0,0,4090161,0,0,0,0,0,3190030,0,0,0,0
1,150,638.877606834285,1,0,336136.391204398,336137.438223914,1,20,7,0,1,29,3,0,7381332,0,1120011,0,0,0,0,0,0,0,0,0,0,0,0,1110091,0,0,4151200,2120041,0,0,0,0,0,0,0,0,0,0,0,-1120011,0,0,0,0,0,0,0
1,151,665.484183642548,0,1,336139.273484106,336140.320500543,1,20,7,1,1,19,7,6461200,2231302,3130101,8261201,1140130,0,3201010,0,0,2120060,0,0,0,0,0,0,0,1071111,0,0,0,1160191,-3130101,0,0,0,0,0,0,0,0,4160101,0,0,0,0,0,4101100,0,0
1,152,422.141506045591,1,0,336142.049865673,336143.096892504,1,20,7,1,1,21,7,5241201,3142231,5121041,6200242,0,0,0,1180080,4061121,0,0,0,0,1071101,2071130,0,0,0,0,0,0,0,0,0,-3010010,0,0,2111031,0,0,0,0,4070171,0,0,0,0,2130071,0,0
1,153,587.127304810565,0,0,336144.649798843,336145.69682298,1,20,7,0,0,20,7,1161130,7331352,8520431,0,0,0,0,0,0,0,1161130,0,0,0,1070160,0,3171041,0,1020070,2070081,0,0,0,-3140190,2190100,3190141,0,0,0,0,0,0,0,0,0,0,0,0,0,0
1,154,1020.03284392413,1,1,336147.343842651,336148.390864862,1,20,7,0,0,1,3,2161090,4180091,4081111,0,-1081060,0,0,0,0,0,1080030,0,0,0,0,0,0,0,0,0,4180091,0,0,0,0,4081111,0,0,0,0,0,0,0,0,0,0,0,0,0,0
1,155,883.628856623545,0,0,336150.567284001,336151.61433085,1,20,7,1,0,31,3,0,5241381,1121141,3101061,0,0,0,0,0,0,0,0,0,0,0,0,3060190,0,0,0,2181191,0,0,0,0,0,1121141,0,0,0,0,0,0,0,-3101061,0,0,0,0,0
1,156,929.962372931186,0,0,336153.531910709,336154.578927531,1,20,7,0,0,33,7,3161291,3260152,4050070,9300362,0,1071091,0,2090200,0,0,0,0,0,0,1130081,0,0,0,0,0,0,2130071,0,0,0,4050070,0,0,0,0,0,4130140,0,1070181,0,0,-4100041,0,0,0
1,157,682.803577277809,0,0,336156.672997746,336157.720016108,1,20,7,0,0,22,7,8172350,3091071,7292271,6362141,4111190,0,0,4061160,0,0,0,0,0,0,0,0,0,0,3091071,0,0,0,0,0,3060090,-2111101,0,2121080,0,0,0,0,0,0,0,2181080,4181061,0,0,0
1,158,979.224672249984,0,0,336159.543504193,336160.590537183,1,20,7,1,0,24,7,2180131,2151191,11373561,6111201,2180131,0,0,0,0,0,0,0,0,0,0,0,0,0,0,0,0,2151191,3080100,0,0,0,3091180,-1121170,0,4081111,0,0,0,0,0,4041091,0,0,2070110,0
1,159,1162.42104925914,1,0,336162.649300704,336163.696328305,1,20,7,1,1,2,7,7303342,3091011,5451411,4091090,0,-1201130,0,0,0,0,4061151,2041061,0,0,0,0,0,0,0,3091011,0,0,0,0,3140190,0,0,0,1131060,1180161,0,4091090,0,0,0,0,0,0,0,0
1,160,905.995858367532,0,0,336165.919797758,336166.96681843,1,20,7,1,0,6,3,2110141,1181040,3080131,1201150,0,0,0,0,0,-2110141,0,0,0,0,0,0,0,0,0,1181040,0,0,0,0,3080131,0,0,0,0,0,0,0,0,0,0,1201150,0,0,0,0
1,161,1005.49209845485,1,0,336169.037358676,336170.084383582,1,20,7,0,1,36,3,3170170,0,3210322,2141081,0,0,0,3170170,0,0,0,0,0,0,0,0,0,0,0,0,0,0,0,0,0,0,2140181,0,0,1070141,0,0,0,0,0,0,0,0,0,-2141081
1,162,718.090638867579,0,0,336172.119625603,336173.166647045,1,20,7,0,0,8,7,7251082,14282532,0,4070170,0,4150051,0,0,0,0,0,-3101031,0,0,3060140,0,0,4061031,2090020,4010201,1061140,0,0,0,0,0,0,0,0,0,0,0,0,0,0,0,0,0,4070170,0
1,163,921.606410294771,0,0,336175.037191218,336176.084219204,1,20,7,0,0,32,3,4031171,3110071,4071120,1200170,0,0,0,0,0,0,4031171,0,0,0,0,0,0,3110071,0,0,0,0,4071120,0,0,0,0,0,0,0,0,0,0,0,0,-1200170,0,0,0,0
1,164,619.81857457431,0,0,336178.095933951,336179.142948463,1,20,7,0,0,27,3,4252241,0,2201010,4020081,2061201,0,0,0,0,0,0,0,2191040,0,0,0,0,0,0,0,0,0,0,0,0,0,0,0,0,0,-2201010,0,0,0,4020081,0,0,0,0,0
1,165,1276.91690827487,1,0,336180.907615668,336181.954644424,1,20,7,1,1,4,7,5270341,7251250,3202242,4200171,0,0,0,-3130190,0,0,2140151,0,0,0,4080150,0,0,0,0,3171100,0,0,0,0,1090101,0,0,0,0,1031060,1081081,0,0,0,0,4200171,0,0,0,0
1,166,1072.75786704849,0,0,336184.43693468,336185.483998082,1,20,7,1,0,34,3,3051201,0,6242301,3171190,0,0,0,0,3051201,0,0,0,0,0,0,0,0,0,0,0,0,0,0,3091131,0,3151170,0,0,0,0,0,0,0,0,0,0,0,-3171190,0,0
1,167,718.767015263438,1,0,336187.742723415,336188.789741777,1,20,7,1,1,28,7,6221132,1141180,5251110,8131232,0,0,3120061,0,0,0,3101071,0,0,0,0,1141180,0,0,0,0,0,0,0,2091070,0,0,0,0,0,3160040,0,-3060061,1031111,4040060,0,0,0,0,0,0
1,168,888.580609462224,1,0,336190.530940222,336191.577905844,1,20,7,1,1,35,3,0,8281361,0,3071091,0,0,0,0,0,0,0,0,0,0,0,3010120,0,0,2200121,3071120,0,0,0,0,0,0,0,0,0,0,0,0,0,0,0,0,0,0,-3071091,0
1,169,623.731317813508,0,0,336207.212776147,336208.259790274,1,20,8,0,0,27,3,2110150,4070170,2161011,3081141,0,0,0,0,0,0,2110150,0,0,0,0,0,0,0,4070170,0,0,0,0,0,0,0,0,0,0,0,-2161011,0,0,0,0,0,0,0,0,3081141
1,170,586.020542075858,0,0,336210.083284519,336211.130304805,1,20,8,1,0,34,3,3051201,0,6242301,3171190,0,0,0,0,3051201,0,0,0,0,0,0,0,0,0,0,0,0,0,0,3091131,0,3151170,0,0,0,0,0,0,0,0,0,0,0,-3171190,0,0
1,171,1102.63661202043,1,0,336212.906732953,336213.953755164,1,20,8,0,1,8,7,9282391,0,4140091,10303482,4071040,0,0,0,0,0,0,-2021190,3190161,0,0,0,0,0,0,0,0,0,0,0,4140091,0,0,0,0,0,0,2131190,2060031,0,0,0,0,3071141,3041120,0
1,172,502.421649813186,0,0,336216.200759976,336217.247781032,1,20,8,0,0,22,7,2332211,3140200,4100122,7500341,0,0,1141191,0,1191020,0,0,0,0,0,0,0,0,0,0,0,0,3140200,0,0,0,-3090101,0,0,0,1010021,0,0,0,0,0,0,0,2110161,3200030,2190150
1,173,1216.52538754279,0,0,336218.800685447,336219.847708044,1,20,8,0,0,1,3,3242352,1051071,1040141,0,-1191161,0,0,0,2051191,0,0,0,0,0,0,0,0,0,1051071,0,0,0,0,0,0,0,0,1040141,0,0,0,0,0,0,0,0,0,0,0,0
1,174,844.099525304046,1,0,336222.224116327,336223.271140848,1,20,8,1,1,24,7,2180131,2151191,11373561,6111201,2180131,0,0,0,0,0,0,0,0,0,0,0,0,0,0,0,0,2151191,3080100,0,0,0,3091180,-1121170,0,4081111,0,0,0,0,0,4041091,0,0,2070110,0
1,175,457.897065090947,1,0,336225.165220765,336226.212235662,1,20,8,1,1,21,7,5241201,3142231,5121041,6200242,0,0,0,1180080,4061121,0,0,0,0,1071101,2071130,0,0,0,0,0,0,0,0,0,-3010010,0,0,2111031,0,0,0,0,4070171,0,0,0,0,2130071,0,0
1,176,664.410912548192,1,0,336227.788668506,336228.835697262,1,20,8,0,1,20,7,2010131,2190081,9343302,7422321,2010131,0,0,0,0,0,0,0,0,0,0,0,0,0,2190081,0,0,0,2111011,-4111091,0,3121200,0,0,0,0,0,3131120,0,3160161,0,1131040,0,0,0,0
1,177,603.771091962699,1,0,336230.647437878,336231.694445076,1,20,8,0,1,29,3,0,3150060,3171111,5181261,0,0,0,0,0,0,0,0,0,0,0,0,0,0,0,0,0,3150060,0,0,0,0,0,3171111,0,0,0,0,-4010121,0,0,0,0,1171140,0,0
1,178,606.591700925492,0,0,336233.435575383,336234.482599134,1,20,8,0,0,32,3,3111030,4041040,0,3291200,0,0,0,0,0,3111030,0,0,0,0,0,0,0,0,0,0,0,4041040,0,0,0,0,0,0,0,0,0,0,0,1181060,0,-2110140,0,0,0,0
1,179,1029.38239078503,1,0,336236.129616495,336237.176644096,1,20,8,0,1,30,3,7120101,0,0,6221132,3010051,0,0,0,0,0,0,0,4110050,0,0,0,0,0,0,0,0,0,0,0,0,0,0,0,0,0,0,0,0,-3190091,0,0,3031041,0,0,0
1,180,677.394490863662,1,0,336239.37658435,336240.423605792,1,20,8,1,1,19,7,6461200,2231302,3130101,8261201,1140130,0,3201010,0,0,2120060,0,0,0,0,0,0,0,1071111,0,0,0,1160191,-3130101,0,0,0,0,0,0,0,0,4160101,0,0,0,0,0,4101100,0,0
1,181,1354.8422458698,0,0,336242.141218064,336243.188236426,1,20,8,1,0,4,7,5270341,7251250,3202242,4200171,0,0,0,-3130190,0,0,2140151,0,0,0,4080150,0,0,0,0,3171100,0,0,0,0,1090101,0,0,0,0,1031060,1081081,0,0,0,0,4200171,0,0,0,0
1,182,852.292649447918,0,0,336245.564646634,336246.61167539,1,20,8,0,0,13,7,8211352,4191140,0,5320313,4041030,0,0,0,0,1160201,0,3010121,0,1080080,0,0,-3111060,0,0,0,0,0,0,0,0,0,0,0,0,0,0,0,0,0,1190171,0,3080101,0,0,1050041
1,183,921.391602081712,1,0,336248.658698371,336249.705705954,1,20,8,1,1,6,3,2110141,1181040,3080131,1201150,0,0,0,0,0,-2110141,0,0,0,0,0,0,0,0,0,1181040,0,0,0,0,3080131,0,0,0,0,0,0,0,0,0,0,1201150,0,0,0,0
1,184,917.776433692779,1,0,336251.72921706,336252.776205395,1,20,8,1,1,35,3,0,8281361,0,3071091,0,0,0,0,0,0,0,0,0,0,0,3010120,0,0,2200121,3071120,0,0,0,0,0,0,0,0,0,0,0,0,0,0,0,0,0,0,-3071091,0
1,185,979.480671230704,1,0,336254.764392868,336255.811420853,1,20,8,1,1,2,7,7303342,3091011,5451411,4091090,0,-1201130,0,0,0,0,4061151,2041061,0,0,0,0,0,0,0,3091011,0,0,0,0,3140190,0,0,0,1131060,1180161,0,4091090,0,0,0,0,0,0,0,0
1,186,575.057238864247,1,1,336257.940775436,336258.987800342,1,20,8,0,0,14,7,7320232,10321491,3110051,3132131,0,3120111,0,0,0,0,0,4200121,0,0,0,4160151,2130160,-4031180,0,0,0,0,0,0,3110051,0,0,0,0,0,0,0,2061110,1071021,0,0,0,0,0,0
1,187,881.98699807981,0,0,336260.575992203,336261.623016724,1,20,8,0,0,33,7,8261091,4080181,4140031,10242341,0,0,0,0,0,4201040,0,0,4060051,0,0,0,4080181,0,0,0,0,0,0,0,0,0,0,4140031,0,0,0,3090170,0,2041010,0,3031020,-2080141,0,0,0
1,188,973.110337276012,0,0,336263.634733396,336264.681761767,1,20,8,1,0,12,3,3100171,5052190,0,2070011,3100171,0,0,0,0,0,0,0,0,0,0,-1021120,4031070,0,0,0,0,0,0,0,0,0,0,0,0,0,0,0,0,0,2070011,0,0,0,0,0
1,189,710.34907392459,1,0,336266.799358102,336267.846377233,1,20,8,1,1,5,3,2161031,4361362,2010080,0,0,0,0,0,-2161031,0,0,0,0,0,0,1161181,0,0,3200181,0,0,0,2010080,0,0,0,0,0,0,0,0,0,0,0,0,0,0,0,0,0
1,190,530.279349768534,0,0,336269.693392208,336270.740417114,1,20,8,1,0,28,7,6221132,1141180,5251110,8131232,0,0,3120061,0,0,0,3101071,0,0,0,0,1141180,0,0,0,0,0,0,0,2091070,0,0,0,0,0,3160040,0,-3060061,1031111,4040060,0,0,0,0,0,0
1,191,753.689133794978,1,0,336272.411038356,336273.457996664,1,20,8,1,1,31,3,0,5241381,1121141,3101061,0,0,0,0,0,0,0,0,0,0,0,0,3060190,0,0,0,2181191,0,0,0,0,0,1121141,0,0,0,0,0,0,0,-3101061,0,0,0,0,0
1,192,723.970147606451,0,0,336275.269708024,336276.31672677,1,20,8,0,0,36,3,0,3201171,3201081,5040221,0,0,0,0,0,0,0,0,0,0,0,0,0,0,0,0,0,3201171,3201081,0,0,0,0,0,0,0,0,0,0,0,4010160,0,0,0,0,-1030061
1,193,921.852400351781,1,0,336294.845634259,336295.892659165,1,20,9,1,1,34,3,3051201,0,6242301,3171190,0,0,0,0,3051201,0,0,0,0,0,0,0,0,0,0,0,0,0,0,3091131,0,3151170,0,0,0,0,0,0,0,0,0,0,0,-3171190,0,0
1,194,1004.05272946227,0,0,336297.845555727,336298.892572934,1,20,9,0,0,13,3,4131160,4130140,4181050,3181131,0,0,0,0,0,0,0,0,4131160,0,0,0,-4130140,0,0,0,0,0,0,4181050,0,0,0,0,0,0,0,0,0,0,3181131,0,0,0,0,0
1,195,837.4054391752,1,0,336300.963112025,336302.010132697,1,20,9,0,1,1,3,3161170,1180071,1121121,1051120,-3161170,0,0,0,0,0,0,0,0,0,1180071,0,0,0,0,0,0,0,0,1121121,0,0,0,0,0,0,0,1051120,0,0,0,0,0,0,0,0
1,196,770.360253227409,0,0,336304.010086117,336305.057106403,1,20,9,1,0,31,3,0,5241381,1121141,3101061,0,0,0,0,0,0,0,0,0,0,0,0,3060190,0,0,0,2181191,0,0,0,0,0,1121141,0,0,0,0,0,0,0,-3101061,0,0,0,0,0
1,197,723.326877807267,1,0,336306.857072989,336307.90409443,1,20,9,0,1,22,7,3061120,6353342,6251240,3010060,0,0,0,0,0,0,0,0,3061120,0,2121040,1050071,0,0,0,1141100,0,2041131,0,0,0,-4100160,0,2151080,0,0,0,0,3010060,0,0,0,0,0,0,0
1,198,853.007136960514,1,0,336309.692283905,336310.739308041,1,20,9,1,1,19,7,6461200,2231302,3130101,8261201,1140130,0,3201010,0,0,2120060,0,0,0,0,0,0,0,1071111,0,0,0,1160191,-3130101,0,0,0,0,0,0,0,0,4160101,0,0,0,0,0,4101100,0,0
1,199,924.575614219066,0,0,336312.715725333,336313.762748699,1,20,9,1,0,2,7,7303342,3091011,5451411,4091090,0,-1201130,0,0,0,0,4061151,2041061,0,0,0,0,0,0,0,3091011,0,0,0,0,3140190,0,0,0,1131060,1180161,0,4091090,0,0,0,0,0,0,0,0
1,200,982.567288272548,0,0,336315.809765136,336316.856780418,1,20,9,1,0,6,3,2110141,1181040,3080131,1201150,0,0,0,0,0,-2110141,0,0,0,0,0,0,0,0,0,1181040,0,0,0,0,3080131,0,0,0,0,0,0,0,0,0,0,1201150,0,0,0,0
1,201,707.277470442932,1,0,336318.997907492,336320.044932783,1,20,9,1,1,5,3,2161031,4361362,2010080,0,0,0,0,0,-2161031,0,0,0,0,0,0,1161181,0,0,3200181,0,0,0,2010080,0,0,0,0,0,0,0,0,0,0,0,0,0,0,0,0,0
1,202,764.586223755032,1,0,336321.903712549,336322.950734761,1,20,9,0,1,27,7,3181311,3231221,6190101,4181140,0,0,0,1090181,0,0,0,2091130,0,0,0,1171120,0,0,2060101,0,0,0,0,0,4110041,0,0,0,0,0,-2080060,0,0,2140110,0,2041030,0,0,0,0
1,203,1245.14838989126,1,0,336324.785983788,336325.833006384,1,20,9,1,1,24,7,2180131,2151191,11373561,6111201,2180131,0,0,0,0,0,0,0,0,0,0,0,0,0,0,0,0,2151191,3080100,0,0,0,3091180,-1121170,0,4081111,0,0,0,0,0,4041091,0,0,2070110,0
1,204,718.498697446194,1,0,336328.091771368,336329.138798199,1,20,9,0,1,8,7,5162181,4140131,6331302,8240480,2041080,0,0,0,0,0,0,-3121101,0,0,0,0,0,0,4140131,0,0,0,0,0,2150101,0,0,0,0,4181201,0,4140130,0,2010180,2090170,0,0,0,0,0
1,205,618.769940978382,0,0,336331.009336213,336332.056413474,1,20,9,0,0,20,7,3191211,7452462,4232210,0,0,0,2141130,0,0,1050081,0,0,0,0,1020180,0,1150021,1151141,0,0,0,4131120,0,-2081120,0,0,0,2151090,0,0,0,0,0,0,0,0,0,0,0,0
1,206,744.320723868441,1,0,336333.832785802,336334.879820332,1,20,9,0,1,36,3,0,2161151,2111130,5301162,0,0,0,0,0,0,0,0,0,0,0,0,2161151,0,0,0,0,0,0,0,0,0,2111130,0,0,0,0,0,0,0,0,1140021,0,0,0,-4161141
1,207,1466.59448806895,0,0,336336.738587009,336337.785612686,1,20,9,1,0,12,3,3100171,5052190,0,2070011,3100171,0,0,0,0,0,0,0,0,0,0,-1021120,4031070,0,0,0,0,0,0,0,0,0,0,0,0,0,0,0,0,0,2070011,0,0,0,0,0
1,208,693.347273045219,1,0,336340.279696606,336341.32669033,1,20,9,0,1,29,3,0,7261040,0,4272311,0,0,0,0,0,0,0,0,0,0,0,4200030,0,3061010,0,0,0,0,0,0,0,0,0,0,0,0,0,0,-2131160,0,0,2141151,0,0,0,0
1,209,630.1913477364,0,0,336343.161940512,336344.208963494,1,20,9,0,0,14,3,2051190,3110041,5132091,0,0,0,0,2051190,0,0,0,0,0,0,0,0,0,-3110041,0,0,0,0,0,0,4101041,0,1031050,0,0,0,0,0,0,0,0,0,0,0,0,0
1,210,649.636880727485,0,0,336345.891290244,336346.938307451,1,20,9,0,0,30,3,5252211,0,2081130,4201151,0,0,0,0,0,1141050,0,4111161,0,0,0,0,0,0,0,0,0,0,2081130,0,0,0,0,0,0,0,0,0,0,-4201151,0,0,0,0,0,0
1,211,1251.13645766396,0,0,336348.608848621,336349.655871218,1,20,9,1,0,4,7,5270341,7251250,3202242,4200171,0,0,0,-3130190,0,0,2140151,0,0,0,4080150,0,0,0,0,3171100,0,0,0,0,1090101,0,0,0,0,1031060,1081081,0,0,0,0,4200171,0,0,0,0
1,212,607.433610595763,0,0,336352.114636894,336353.161660646,1,20,9,1,0,28,7,6221132,1141180,5251110,8131232,0,0,3120061,0,0,0,3101071,0,0,0,0,1141180,0,0,0,0,0,0,0,2091070,0,0,0,0,0,3160040,0,-3060061,1031111,4040060,0,0,0,0,0,0
1,213,957.604879746214,1,0,336354.879271378,336355.926309373,1,20,9,1,1,35,3,0,8281361,0,3071091,0,0,0,0,0,0,0,0,0,0,0,3010120,0,0,2200121,3071120,0,0,0,0,0,0,0,0,0,0,0,0,0,0,0,0,0,0,-3071091,0
1,214,773.072303098161,1,0,336358.043890694,336359.090908671,1,20,9,0,1,32,7,5490322,3081201,4042252,6080120,3170051,0,1170070,0,0,0,1150201,0,0,0,0,0,0,0,0,3081201,0,0,0,2031111,0,0,0,0,0,2011141,0,0,0,4030040,0,-2050080,0,0,0,0
1,215,500.395985262003,0,0,336361.008510856,336362.055528833,1,20,9,1,0,21,7,5241201,3142231,5121041,6200242,0,0,0,1180080,4061121,0,0,0,0,1071101,2071130,0,0,0,0,0,0,0,0,0,-3010010,0,0,2111031,0,0,0,0,4070171,0,0,0,0,2130071,0,0
1,216,500.241615925916,1,0,336363.749612676,336364.796629113,1,20,9,0,1,33,7,3020151,8252302,4202250,3301101,0,0,0,0,0,0,0,3020151,0,0,0,4120030,0,2021081,0,0,2111191,0,0,1011120,0,3191130,0,0,0,0,0,0,0,0,0,0,-2121080,0,0,1180021
1,217,1201.44954643911,0,0,336374.396362874,336375.443395095,1,20,10,0,0,8,7,5181191,1151060,5170322,5370252,4100151,0,0,0,0,0,0,-1081040,0,0,0,1151060,0,0,0,0,0,0,4100131,0,0,0,0,0,0,1070191,0,0,1160061,0,0,0,0,0,3140161,1070030
1,218,985.364799562376,1,0,336377.796312291,336378.843297161,1,20,10,1,1,6,3,2110141,1181040,3080131,1201150,0,0,0,0,0,-2110141,0,0,0,0,0,0,0,0,0,1181040,0,0,0,0,3080131,0,0,0,0,0,0,0,0,0,0,1201150,0,0,0,0
1,219,828.037799103186,0,0,336381.01972092,336382.066732737,1,20,10,1,0,34,3,3051201,0,6242301,3171190,0,0,0,0,3051201,0,0,0,0,0,0,0,0,0,0,0,0,0,0,3091131,0,3151170,0,0,0,0,0,0,0,0,0,0,0,-3171190,0,0
1,220,475.363513804041,0,0,336383.937281145,336384.984302201,1,20,10,1,0,21,7,5241201,3142231,5121041,6200242,0,0,0,1180080,4061121,0,0,0,0,1071101,2071130,0,0,0,0,0,0,0,0,0,-3010010,0,0,2111031,0,0,0,0,4070171,0,0,0,0,2130071,0,0
1,221,1494.79403335135,1,0,336386.607799218,336387.654863005,1,20,10,1,1,31,3,0,5241381,1121141,3101061,0,0,0,0,0,0,0,0,0,0,0,0,3060190,0,0,0,2181191,0,0,0,0,0,1121141,0,0,0,0,0,0,0,-3101061,0,0,0,0,0
1,222,589.97986553004,0,0,336390.219461379,336391.266529016,1,20,10,1,0,28,7,6221132,1141180,5251110,8131232,0,0,3120061,0,0,0,3101071,0,0,0,0,1141180,0,0,0,0,0,0,0,2091070,0,0,0,0,0,3160040,0,-3060061,1031111,4040060,0,0,0,0,0,0
1,223,1294.77524722461,0,0,336393.054681534,336394.101692582,1,20,10,1,0,12,3,3100171,5052190,0,2070011,3100171,0,0,0,0,0,0,0,0,0,0,-1021120,4031070,0,0,0,0,0,0,0,0,0,0,0,0,0,0,0,0,0,2070011,0,0,0,0,0
1,224,732.134399644565,1,0,336396.419294229,336397.466309511,1,20,10,0,1,29,7,8523532,6261221,1070070,7270252,0,2161181,0,0,0,2171181,0,0,4191170,0,4081160,0,0,2180061,0,0,0,0,0,1070070,0,0,0,0,0,0,0,0,-4180091,0,3090161,0,0,0,0,0
1,225,1223.14363642363,0,0,336399.407443976,336400.454470037,1,20,10,1,0,2,7,7303342,3091011,5451411,4091090,0,-1201130,0,0,0,0,4061151,2041061,0,0,0,0,0,0,0,3091011,0,0,0,0,3140190,0,0,0,1131060,1180161,0,4091090,0,0,0,0,0,0,0,0
1,226,580.209941312205,0,0,336402.713231941,336403.760253767,1,20,10,0,0,22,7,8512211,7231211,7341160,0,2170030,3130030,2171131,0,0,1041020,0,0,0,0,3180110,0,0,4051101,0,0,0,0,0,0,0,-3151060,0,0,0,0,4190100,0,0,0,0,0,0,0,0,0
1,227,1592.77160244528,0,0,336405.489631986,336406.536693079,1,20,10,1,0,24,7,2180131,2151191,11373561,6111201,2180131,0,0,0,0,0,0,0,0,0,0,0,0,0,0,0,0,2151191,3080100,0,0,0,3091180,-1121170,0,4081111,0,0,0,0,0,4041091,0,0,2070110,0
1,228,829.079503484536,1,0,336409.195404399,336410.24243046,1,20,10,0,1,33,3,3020171,7191181,0,1161031,0,0,3020171,0,0,0,0,0,0,0,0,0,0,0,0,4070061,3121120,0,0,0,0,0,0,0,0,0,0,0,0,0,0,0,-1161031,0,0,0
1,229,944.035390799399,1,0,336412.148264389,336413.195286986,1,20,10,1,1,35,3,0,8281361,0,3071091,0,0,0,0,0,0,0,0,0,0,0,3010120,0,0,2200121,3071120,0,0,0,0,0,0,0,0,0,0,0,0,0,0,0,0,0,0,-3071091,0
1,230,874.03062498197,1,0,336415.336414444,336416.383431651,1,20,10,1,1,5,3,2161031,4361362,2010080,0,0,0,0,0,-2161031,0,0,0,0,0,0,1161181,0,0,3200181,0,0,0,2010080,0,0,0,0,0,0,0,0,0,0,0,0,0,0,0,0,0
1,231,924.824298999738,0,0,336418.277565847,336419.324558031,1,20,10,0,0,32,3,0,1120051,3011200,4301232,0,0,0,0,0,0,0,0,0,0,0,0,0,0,1120051,0,0,0,0,0,0,0,0,0,3011200,0,0,0,0,0,0,-1150111,0,3151121,0,0
1,232,1048.19581785705,0,0,336421.395067866,336422.442090847,1,20,10,0,0,1,3,2120020,3331281,0,3191051,-2120020,0,0,0,0,0,0,0,0,0,0,0,1131181,0,0,0,2200100,0,0,0,0,0,0,0,0,0,0,0,0,0,0,0,3191051,0,0,0
1,233,722.060356289148,1,0,336424.689092194,336425.73612018,1,20,10,1,1,19,7,6461200,2231302,3130101,8261201,1140130,0,3201010,0,0,2120060,0,0,0,0,0,0,0,1071111,0,0,0,1160191,-3130101,0,0,0,0,0,0,0,0,4160101,0,0,0,0,0,4101100,0,0
1,234,1561.54087459436,0,0,336427.653714666,336428.700789617,1,20,10,0,0,36,7,5142291,3161031,3191011,9281323,0,0,0,0,0,0,1081201,4061090,0,0,0,0,3161031,0,0,0,0,0,0,3191011,0,0,0,0,0,0,0,0,0,4070130,0,1161041,2030051,0,0,-2020101
1,235,625.246909155976,1,0,336431.288914881,336432.335935167,1,20,10,0,1,20,3,0,2061200,7120250,1150070,0,0,0,0,0,0,0,0,0,0,0,0,2061200,0,0,0,0,0,0,-3010120,0,4110130,0,0,0,0,0,0,1150070,0,0,0,0,0,0,0
1,236,595.632632321212,0,0,336434.100597368,336435.147619195,1,20,10,0,0,27,3,1161111,4141010,4150091,0,0,0,0,1161111,0,0,0,0,0,0,0,0,0,0,0,0,0,4141010,0,0,0,0,0,3030041,0,0,-1120050,0,0,0,0,0,0,0,0,0
1,237,820.541069377214,1,0,336436.900524302,336437.947543819,1,20,10,0,1,30,3,0,0,2111171,5233163,0,0,0,0,0,0,0,0,0,0,0,0,0,0,0,0,0,0,0,0,0,0,0,0,0,0,2111171,1061061,0,-1061061,0,3111041,0,0,0,0
1,238,1214.1879046103,1,0,336439.782789382,336440.829821217,1,20,10,1,1,4,7,5270341,7251250,3202242,4200171,0,0,0,-3130190,0,0,2140151,0,0,0,4080150,0,0,0,0,3171100,0,0,0,0,1090101,0,0,0,0,1031060,1081081,0,0,0,0,4200171,0,0,0,0
1,239,725.320205732714,0,0,336443.13563305,336444.182663731,1,20,10,0,0,14,7,4311201,5341181,0,7333191,1140011,0,0,0,0,3171190,0,0,0,0,3061130,0,0,-1160010,0,0,0,1120041,0,0,0,0,0,0,0,0,0,2071011,4091010,1171170,0,0,0,0,0,0
1,240,1239.02789555723,1,0,336446.017917378,336447.064940744,1,20,10,0,1,13,7,2282262,9542261,5230321,2180191,0,0,0,0,1171151,0,0,1111111,0,0,0,0,-4170040,0,3191111,0,2181110,0,0,0,0,0,1080140,0,4150181,0,0,0,0,0,0,0,0,0,0,2180191
1,241,914.225168817211,0,0,336458.51167793,336459.558705146,1,20,11,1,0,34,3,3051201,0,6242301,3171190,0,0,0,0,3051201,0,0,0,0,0,0,0,0,0,0,0,0,0,0,3091131,0,3151170,0,0,0,0,0,0,0,0,0,0,0,-3171190,0,0
1,242,717.36537234392,0,0,336461.617477906,336462.664509357,1,20,11,0,0,22,3,4030120,2120071,4171081,2160080,0,0,0,0,0,0,4030120,0,0,0,0,0,2120071,0,0,0,0,0,0,0,0,-4171081,0,0,0,0,0,0,0,2160080,0,0,0,0,0,0
1,243,1856.38516937615,1,0,336464.464460159,336465.51148622,1,20,11,0,1,32,7,3220271,7282162,3101151,4322290,0,0,0,0,2050181,0,0,1170090,0,0,4181011,0,0,0,0,0,3101151,0,0,0,0,3101151,0,0,0,0,0,0,0,0,0,-2031160,1200040,0,0,1091090
1,244,1300.35602633143,1,0,336468.405530335,336469.452551391,1,20,11,1,1,4,7,5270341,7251250,3202242,4200171,0,0,0,-3130190,0,0,2140151,0,0,0,4080150,0,0,0,0,3171100,0,0,0,0,1090101,0,0,0,0,1031060,1081081,0,0,0,0,4200171,0,0,0,0
1,245,793.329333886504,1,0,336471.958374311,336473.005391518,1,20,11,0,1,36,3,3100021,2171160,3090020,2120071,0,0,0,0,0,3100021,0,0,0,0,0,0,0,0,0,0,0,2171160,0,0,0,0,3090020,0,0,0,0,0,0,0,0,0,0,0,0,-2120071
1,246,599.063789355569,0,0,336474.993580531,336476.040605437,1,20,11,0,0,20,3,6220330,1070031,3081201,0,0,0,3140200,0,0,0,0,0,3080130,0,0,0,0,0,0,0,1070031,0,0,-3081201,0,0,0,0,0,0,0,0,0,0,0,0,0,0,0,0
1,247,800.829913292546,0,0,336477.769982501,336478.816997398,1,20,11,1,0,19,7,6461200,2231302,3130101,8261201,1140130,0,3201010,0,0,2120060,0,0,0,0,0,0,0,1071111,0,0,0,1160191,-3130101,0,0,0,0,0,0,0,0,4160101,0,0,0,0,0,4101100,0,0
1,248,1261.94808626315,1,0,336480.675779474,336481.722794371,1,20,11,0,1,30,7,14612161,0,2140140,10393311,0,4060080,0,0,0,4170020,0,4201040,2181021,0,0,0,0,0,0,0,0,0,0,0,0,0,0,0,2140140,0,0,0,0,-3171031,3111130,0,0,4111150,0,0
1,249,738.995173946023,1,0,336484.075679615,336485.122702596,1,20,11,0,1,14,7,4100101,6411312,6172101,5331160,0,0,0,4100101,0,0,0,0,0,0,1110071,0,0,-1121130,0,4180111,0,0,0,0,0,0,0,2011011,4161090,0,0,0,0,2180120,0,0,0,3151040,0,0
1,250,754.85980004305,0,0,336486.969718725,336488.016735547,1,20,11,1,0,2,7,7303342,3091011,5451411,4091090,0,-1201130,0,0,0,0,4061151,2041061,0,0,0,0,0,0,0,3091011,0,0,0,0,3140190,0,0,0,1131060,1180161,0,4091090,0,0,0,0,0,0,0,0
1,251,494.953407207504,0,0,336489.922582181,336490.969600542,1,20,11,1,0,21,7,5241201,3142231,5121041,6200242,0,0,0,1180080,4061121,0,0,0,0,1071101,2071130,0,0,0,0,0,0,0,0,0,-3010010,0,0,2111031,0,0,0,0,4070171,0,0,0,0,2130071,0,0
1,252,665.608910960145,1,0,336492.498975758,336493.546002205,1,20,11,1,1,5,3,2161031,4361362,2010080,0,0,0,0,0,-2161031,0,0,0,0,0,0,1161181,0,0,3200181,0,0,0,2010080,0,0,0,0,0,0,0,0,0,0,0,0,0,0,0,0,0
1,253,625.490589416586,0,0,336495.393012944,336496.44003708,1,20,11,1,0,28,7,6221132,1141180,5251110,8131232,0,0,3120061,0,0,0,3101071,0,0,0,0,1141180,0,0,0,0,0,0,0,2091070,0,0,0,0,0,3160040,0,-3060061,1031111,4040060,0,0,0,0,0,0
1,254,1137.91751419194,1,0,336498.263520931,336499.310543142,1,20,11,1,1,12,3,3100171,5052190,0,2070011,3100171,0,0,0,0,0,0,0,0,0,0,-1021120,4031070,0,0,0,0,0,0,0,0,0,0,0,0,0,0,0,0,0,2070011,0,0,0,0,0
1,255,1291.10271966783,1,0,336501.522263587,336502.569281949,1,20,11,0,1,33,7,7202232,4031130,5191492,6091052,0,3031161,0,0,0,0,0,4171071,0,0,4031130,0,0,0,0,0,0,0,0,0,2021190,1130111,0,0,2040191,0,0,0,0,0,0,0,-2051031,4040021,0,0
1,256,772.291602334008,0,0,336504.87510302,336505.922130236,1,20,11,0,0,29,7,4311342,2080031,3232281,9311361,0,0,0,2181171,0,0,2130171,0,0,0,0,2080031,0,0,0,0,0,0,2031131,1201150,0,0,0,0,0,0,0,0,-4080080,0,3110080,0,0,0,2121201,0
1,257,708.550151321106,0,0,336507.73384506,336508.780870352,1,20,11,0,0,27,3,0,0,7442272,1111040,0,0,0,0,0,0,0,0,0,0,0,0,0,0,0,0,0,0,4111130,0,0,0,0,0,1191031,0,-2140111,0,0,0,0,0,1111040,0,0,0
1,258,1277.41812745808,1,0,336510.627881091,336511.674907152,1,20,11,0,1,1,3,1160180,0,4151101,4132311,-1160180,0,0,0,0,0,0,0,0,0,0,0,0,0,0,0,0,0,0,0,0,0,0,0,0,0,4151101,1091160,0,0,0,0,0,0,0,3041151
1,259,1447.23480130779,0,0,336513.95720403,336515.004224316,1,20,11,0,0,8,7,5101072,5262211,1171060,7471332,0,0,4060021,0,0,0,0,-1041051,0,0,0,0,2201090,0,0,3061121,0,0,0,0,0,0,0,0,0,1171060,0,3171121,0,3100080,0,0,0,1200131,0,0
1,260,1043.90927753411,1,0,336517.639452633,336518.686473304,1,20,11,1,1,24,7,2180131,2151191,11373561,6111201,2180131,0,0,0,0,0,0,0,0,0,0,0,0,0,0,0,0,2151191,3080100,0,0,0,3091180,-1121170,0,4081111,0,0,0,0,0,4041091,0,0,2070110,0
1,261,2015.3378599789,1,0,336520.862898988,336521.909923894,1,20,11,0,1,13,3,3151080,9462362,0,0,0,0,0,0,3151080,0,0,0,0,0,3200130,3101111,-3161121,0,0,0,0,0,0,0,0,0,0,0,0,0,0,0,0,0,0,0,0,0,0,0
1,262,749.975800397806,1,1,336525.133356006,336526.180380912,1,20,11,1,0,35,3,0,8281361,0,3071091,0,0,0,0,0,0,0,0,0,0,0,3010120,0,0,2200121,3071120,0,0,0,0,0,0,0,0,0,0,0,0,0,0,0,0,0,0,-3071091,0
1,263,805.143015866634,0,0,336527.945050427,336528.992074948,1,20,11,1,0,6,3,2110141,1181040,3080131,1201150,0,0,0,0,0,-2110141,0,0,0,0,0,0,0,0,0,1181040,0,0,0,0,3080131,0,0,0,0,0,0,0,0,0,0,1201150,0,0,0,0
1,264,654.355347214732,1,0,336531.00379239,336532.050811907,1,20,11,1,1,31,3,0,5241381,1121141,3101061,0,0,0,0,0,0,0,0,0,0,0,0,3060190,0,0,0,2181191,0,0,0,0,0,1121141,0,0,0,0,0,0,0,-3101061,0,0,0,0,0
1,265,1272.96605391894,1,0,336563.755814012,336564.802842383,1,20,12,0,1,8,7,10382503,2011151,3350291,2121070,4020100,0,0,0,1091121,0,4101151,-1170131,0,0,0,0,0,0,0,0,0,2011151,0,1150161,0,2200130,0,0,0,0,0,0,0,0,0,0,0,0,2121070,0
1,266,1134.99527558452,0,0,336567.249842498,336568.296865479,1,20,12,1,0,4,7,5270341,7251250,3202242,4200171,0,0,0,-3130190,0,0,2140151,0,0,0,4080150,0,0,0,0,3171100,0,0,0,0,1090101,0,0,0,0,1031060,1081081,0,0,0,0,4200171,0,0,0,0
1,267,1352.18255058862,1,0,336570.508575915,336571.555602746,1,20,12,0,1,30,7,3180091,5363192,4221132,8211032,0,0,0,0,3180091,0,0,0,0,0,0,1151080,0,0,0,3011061,0,1201051,2191081,0,0,0,0,0,0,0,2030051,0,0,-4201021,0,4010011,0,0,0,0
1,268,626.4091063058,0,0,336574.014362648,336575.061384475,1,20,12,1,0,21,7,5241201,3142231,5121041,6200242,0,0,0,1180080,4061121,0,0,0,0,1071101,2071130,0,0,0,0,0,0,0,0,0,-3010010,0,0,2111031,0,0,0,0,4070171,0,0,0,0,2130071,0,0
1,269,577.173369296361,1,0,336576.755460233,336577.802483985,1,20,12,0,1,27,3,3110060,0,7111182,3080200,0,0,0,0,0,3110060,0,0,0,0,0,0,0,0,0,0,0,0,0,0,0,0,4060161,0,0,0,-3051021,0,3080200,0,0,0,0,0,0,0
1,270,728.275935922284,1,0,336579.555384088,336580.60240322,1,20,12,0,1,14,3,3171081,1061071,0,3321371,0,0,0,0,0,0,0,3171081,0,0,0,0,0,-1061071,0,0,0,0,0,0,0,0,0,0,0,0,0,0,0,0,1201171,0,0,0,0,2120200
1,271,1677.264759026,1,0,336582.355310253,336583.402328614,1,20,12,0,1,36,7,2212130,2041190,5081212,7270112,0,0,0,1131070,0,0,0,0,1081060,0,0,0,0,0,0,0,2041190,0,0,0,0,2011091,0,0,0,0,3070121,2060071,0,0,0,0,0,0,3060010,-2150031
1,272,1050.39471486816,1,0,336586.155201386,336587.202222827,1,20,12,0,1,32,3,2201100,1150090,1031190,2111130,0,0,0,0,0,2201100,0,0,0,0,0,0,0,0,0,1150090,0,0,0,0,0,0,0,0,0,1031190,0,0,0,0,0,-2111130,0,0,0,0
1,273,977.851131523494,0,0,336589.272759224,336590.319776046,1,20,12,1,0,2,7,7303342,3091011,5451411,4091090,0,-1201130,0,0,0,0,4061151,2041061,0,0,0,0,0,0,0,3091011,0,0,0,0,3140190,0,0,0,1131060,1180161,0,4091090,0,0,0,0,0,0,0,0
1,274,920.640543277841,0,0,336592.460967793,336593.507928796,1,20,12,0,0,13,3,2030100,1021020,5362080,0,0,0,0,0,0,2030100,0,0,0,0,0,0,-1021020,0,0,0,0,0,0,0,0,3161050,0,0,0,2201030,0,0,0,0,0,0,0,0,0,0
1,275,1012.1715561254,0,0,336595.578467887,336596.625488559,1,20,12,1,0,24,7,2180131,2151191,11373561,6111201,2180131,0,0,0,0,0,0,0,0,0,0,0,0,0,0,0,0,2151191,3080100,0,0,0,3091180,-1121170,0,4081111,0,0,0,0,0,4041091,0,0,2070110,0
1,276,1495.84420688916,1,0,336598.81367095,336599.860755525,1,20,12,0,1,33,7,2270311,3180130,11222512,6191171,0,0,0,0,0,0,0,1200180,1070131,0,0,0,0,0,3180130,0,0,0,0,4030171,0,0,4161201,0,0,3031140,0,0,0,0,0,0,-2141110,4050061,0,0
1,277,758.075379009824,0,0,336602.566508305,336603.613527822,1,20,12,1,0,5,3,2161031,4361362,2010080,0,0,0,0,0,-2161031,0,0,0,0,0,0,1161181,0,0,3200181,0,0,0,2010080,0,0,0,0,0,0,0,0,0,0,0,0,0,0,0,0,0
1,278,578.677411715034,0,0,336605.507605428,336606.554688849,1,20,12,1,0,28,7,6221132,1141180,5251110,8131232,0,0,3120061,0,0,0,3101071,0,0,0,0,1141180,0,0,0,0,0,0,0,2091070,0,0,0,0,0,3160040,0,-3060061,1031111,4040060,0,0,0,0,0,0
1,279,654.435419128276,1,0,336608.331058867,336609.378072994,1,20,12,1,1,31,3,0,5241381,1121141,3101061,0,0,0,0,0,0,0,0,0,0,0,0,3060190,0,0,0,2181191,0,0,0,0,0,1121141,0,0,0,0,0,0,0,-3101061,0,0,0,0,0
1,280,1024.42255371716,1,0,336611.236860075,336612.283876512,1,20,12,1,1,35,3,0,8281361,0,3071091,0,0,0,0,0,0,0,0,0,0,0,3010120,0,0,2200121,3071120,0,0,0,0,0,0,0,0,0,0,0,0,0,0,0,0,0,0,-3071091,0
1,281,1515.1677072281,0,0,336614.519119996,336615.566144132,1,20,12,0,0,1,7,7242260,0,4350321,2152182,-1151200,0,0,0,0,4031010,0,2060050,0,0,0,0,0,0,0,0,0,0,0,0,0,2120181,0,1090040,0,0,1140100,0,1131031,0,0,0,1021151,0,0,0
1,282,623.012980620842,1,0,336618.201365904,336619.248383881,1,20,12,0,1,22,7,4120080,1011061,6512252,9330282,4120080,0,0,0,0,0,0,0,0,0,0,0,0,0,0,0,1011061,0,0,0,1171121,-1140050,0,4201081,0,0,0,4180131,0,0,0,0,0,2030020,0,3120131
1,283,628.834745264612,0,0,336621.048351236,336622.095370368,1,20,12,0,0,29,3,0,1191051,2120141,5350191,0,0,0,0,0,0,0,0,0,0,0,1191051,0,0,0,0,0,0,0,0,2120141,0,0,0,0,0,0,0,-3190030,0,0,0,0,0,2160161,0
1,284,558.527015149593,0,0,336623.8717989,336624.918823807,1,20,12,1,0,34,3,3051201,0,6242301,3171190,0,0,0,0,3051201,0,0,0,0,0,0,0,0,0,0,0,0,0,0,3091131,0,3151170,0,0,0,0,0,0,0,0,0,0,0,-3171190,0,0
1,285,496.417798683979,1,0,336626.61290072,336627.659925627,1,20,12,0,1,20,3,0,6320382,2031141,3131061,0,0,0,0,0,0,0,0,0,2130191,0,0,4190191,0,0,0,0,0,0,-2031141,0,0,0,0,0,0,0,3131061,0,0,0,0,0,0,0,0
1,286,950.073888408951,0,0,336629.342236208,336630.38925611,1,20,12,1,0,19,7,6461200,2231302,3130101,8261201,1140130,0,3201010,0,0,2120060,0,0,0,0,0,0,0,1071111,0,0,0,1160191,-3130101,0,0,0,0,0,0,0,0,4160101,0,0,0,0,0,4101100,0,0
1,287,659.813708742149,1,0,336632.38920337,336633.436296415,1,20,12,1,1,6,3,2110141,1181040,3080131,1201150,0,0,0,0,0,-2110141,0,0,0,0,0,0,0,0,0,1181040,0,0,0,0,3080131,0,0,0,0,0,0,0,0,0,0,1201150,0,0,0,0
1,288,841.484870412387,0,0,336635.212665278,336636.259681715,1,20,12,1,0,12,3,3100171,5052190,0,2070011,3100171,0,0,0,0,0,0,0,0,0,0,-1021120,4031070,0,0,0,0,0,0,0,0,0,0,0,0,0,0,0,0,0,2070011,0,0,0,0,0
1,289,572.828314849176,1,0,336644.365340025,336645.412372631,1,20,13,0,1,8,3,3200061,9161451,0,0,0,0,0,0,0,0,0,-3200061,0,0,2060060,4020190,0,0,3081201,0,0,0,0,0,0,0,0,0,0,0,0,0,0,0,0,0,0,0,0,0
1,290,898.30741804326,1,0,336647.141740841,336648.188767287,1,20,13,1,1,34,3,3051201,0,6242301,3171190,0,0,0,0,3051201,0,0,0,0,0,0,0,0,0,0,0,0,0,0,3091131,0,3151170,0,0,0,0,0,0,0,0,0,0,0,-3171190,0,0
1,291,1049.70640467945,0,0,336650.212282627,336651.259272117,1,20,13,1,0,4,7,5270341,7251250,3202242,4200171,0,0,0,-3130190,0,0,2140151,0,0,0,4080150,0,0,0,0,3171100,0,0,0,0,1090101,0,0,0,0,1031060,1081081,0,0,0,0,4200171,0,0,0,0
1,292,1136.8234551046,0,0,336653.42391915,336654.471085722,1,20,13,1,0,2,7,7303342,3091011,5451411,4091090,0,-1201130,0,0,0,0,4061151,2041061,0,0,0,0,0,0,0,3091011,0,0,0,0,3140190,0,0,0,1131060,1180161,0,4091090,0,0,0,0,0,0,0,0
1,293,1063.441041857,0,0,336656.635593399,336657.682621385,1,20,13,0,0,20,3,2151171,0,5041161,2120020,0,0,0,0,0,0,0,2151171,0,0,0,0,0,0,0,0,0,0,0,-4031070,0,0,0,0,1010091,0,0,0,0,0,0,0,0,0,0,2120020
1,294,769.343571271747,0,0,336659.776684671,336660.823706113,1,20,13,1,0,6,3,2110141,1181040,3080131,1201150,0,0,0,0,0,-2110141,0,0,0,0,0,0,0,0,0,1181040,0,0,0,0,3080131,0,0,0,0,0,0,0,0,0,0,1201150,0,0,0,0
1,295,802.989544288721,1,0,336662.764835188,336663.811856244,1,20,13,1,1,12,3,3100171,5052190,0,2070011,3100171,0,0,0,0,0,0,0,0,0,0,-1021120,4031070,0,0,0,0,0,0,0,0,0,0,0,0,0,0,0,0,0,2070011,0,0,0,0,0
1,296,604.199168563355,1,0,336665.670641015,336666.717663226,1,20,13,0,1,22,3,4170021,1170110,3011181,3101040,0,4170021,0,0,0,0,0,0,0,0,0,1170110,0,0,0,0,0,0,0,0,0,-3011181,0,0,0,0,0,0,0,0,0,0,0,3101040,0,0
1,297,749.821046076249,0,0,336668.3529208,336669.399936082,1,20,13,0,0,14,7,3181011,4041030,9331381,9423170,0,0,0,0,0,0,0,3181011,0,0,0,0,0,-4041030,0,0,0,0,4100150,0,3191080,0,0,0,2040151,0,0,4111060,0,1171080,0,0,0,0,0,4141030
1,298,778.313161630649,1,0,336671.27047987,336672.317500927,1,20,13,0,1,13,3,1071121,7261271,0,2060020,0,0,0,0,1071121,0,0,0,0,0,0,4060110,-3201161,0,0,0,0,0,0,0,0,0,0,0,0,0,0,0,0,0,0,2060020,0,0,0,0
1,299,693.617900600657,1,0,336674.282220025,336675.329191806,1,20,13,0,1,27,7,5261222,6363363,6261351,4010021,0,4201181,1060041,0,0,0,0,0,0,0,1181151,0,3101061,0,0,2081151,0,0,4080201,0,0,0,0,0,0,0,-2181150,0,0,0,0,0,4010021,0,0,0
1,300,1318.81297961809,1,0,336677.14090817,336678.187929227,1,20,13,1,1,24,7,2180131,2151191,11373561,6111201,2180131,0,0,0,0,0,0,0,0,0,0,0,0,0,0,0,0,2151191,3080100,0,0,0,3091180,-1121170,0,4081111,0,0,0,0,0,4041091,0,0,2070110,0
1,301,801.276082987897,1,0,336680.564337895,336681.611367421,1,20,13,0,1,36,7,0,4121242,2141181,9421532,0,0,0,0,0,0,0,0,0,0,3080191,0,0,1041051,0,0,0,0,0,0,0,0,1101060,1040121,0,0,0,0,0,1040180,4160191,0,1150131,0,0,-3071030
1,302,744.412729516625,1,0,336683.51720135,336684.564221637,1,20,13,0,1,33,3,4081151,4180040,2141160,2101021,0,0,4081151,0,0,0,0,0,0,0,0,0,0,0,4180040,0,0,0,0,0,0,0,0,0,0,0,2141160,0,0,0,0,0,-2101021,0,0,0
1,303,856.847892457154,0,0,336686.328921179,336687.375908359,1,20,13,1,0,19,7,6461200,2231302,3130101,8261201,1140130,0,3201010,0,0,2120060,0,0,0,0,0,0,0,1071111,0,0,0,1160191,-3130101,0,0,0,0,0,0,0,0,4160101,0,0,0,0,0,4101100,0,0
1,304,666.571698326152,1,0,336689.317034354,336690.36406311,1,20,13,1,1,5,3,2161031,4361362,2010080,0,0,0,0,0,-2161031,0,0,0,0,0,0,1161181,0,0,3200181,0,0,0,2010080,0,0,0,0,0,0,0,0,0,0,0,0,0,0,0,0,0
1,305,808.484861976467,1,1,336692.164018531,336693.211041128,1,20,13,0,0,30,7,5052282,0,5151141,12301383,0,0,0,2011101,0,0,0,3041181,0,0,0,0,0,0,0,0,0,0,0,2061060,0,3090081,0,0,0,0,0,0,4081041,-2050201,0,0,0,3030071,3140070,0
1,306,592.032477434259,0,0,336695.034527673,336696.081547575,1,20,13,0,0,29,3,4080141,0,2011160,5032340,4080141,0,0,0,0,0,0,0,0,0,0,0,0,0,0,0,0,0,0,0,0,0,0,2011160,0,0,0,0,-2021140,3011200,0,0,0,0,0,0
1,307,1016.1636013072,0,0,336697.787387356,336698.834416496,1,20,13,1,0,35,3,0,8281361,0,3071091,0,0,0,0,0,0,0,0,0,0,0,3010120,0,0,2200121,3071120,0,0,0,0,0,0,0,0,0,0,0,0,0,0,0,0,0,0,-3071091,0
1,308,1102.87490289193,0,0,336701.022595423,336702.069625334,1,20,13,0,0,32,7,5211242,2200121,3020060,13581342,0,4130131,0,0,1081111,0,0,0,0,0,0,0,0,2200121,0,0,0,0,0,0,0,0,0,0,0,0,3020060,3151081,0,0,0,-4200171,0,4140040,2090050,0
1,309,604.846672911663,1,0,336704.269562123,336705.316582025,1,20,13,1,1,21,7,5241201,3142231,5121041,6200242,0,0,0,1180080,4061121,0,0,0,0,1071101,2071130,0,0,0,0,0,0,0,0,0,-3010010,0,0,2111031,0,0,0,0,4070171,0,0,0,0,2130071,0,0
1,310,666.776882542763,1,0,336707.0577285,336708.104753407,1,20,13,1,1,28,7,6221132,1141180,5251110,8131232,0,0,3120061,0,0,0,3101071,0,0,0,0,1141180,0,0,0,0,0,0,0,2091070,0,0,0,0,0,3160040,0,-3060061,1031111,4040060,0,0,0,0,0,0
1,311,1719.44647131022,0,0,336709.787062449,336710.8340862,1,20,13,0,0,1,7,10460103,4252171,0,4333462,-4170051,3200041,0,3090011,0,0,0,0,0,0,0,0,0,0,2081111,2171060,0,0,0,0,0,0,0,0,0,0,0,0,0,1111180,0,0,0,0,2151181,1071101
1,312,863.474225450773,0,0,336713.692834399,336714.739854301,1,20,13,1,0,31,3,0,5241381,1121141,3101061,0,0,0,0,0,0,0,0,0,0,0,0,3060190,0,0,0,2181191,0,0,0,0,0,1121141,0,0,0,0,0,0,0,-3101061,0,0,0,0,0
1,313,672.614430601243,1,0,336723.29256893,336724.339651965,1,20,14,0,1,13,3,2180180,6301370,0,1130020,0,0,0,0,0,0,0,0,2180180,0,0,0,-2130180,0,0,4171190,0,0,0,0,0,0,0,0,0,0,0,1130020,0,0,0,0,0,0,0,0
1,314,1242.61380691314,1,0,336726.080722603,336727.127746355,1,20,14,1,1,35,3,0,8281361,0,3071091,0,0,0,0,0,0,0,0,0,0,0,3010120,0,0,2200121,3071120,0,0,0,0,0,0,0,0,0,0,0,0,0,0,0,0,0,0,-3071091,0
1,315,2101.4586314559,1,0,336729.480625824,336730.527655735,1,20,14,1,1,2,7,7303342,3091011,5451411,4091090,0,-1201130,0,0,0,0,4061151,2041061,0,0,0,0,0,0,0,3091011,0,0,0,0,3140190,0,0,0,1131060,1180161,0,4091090,0,0,0,0,0,0,0,0
1,316,1359.55994244432,0,0,336733.821685837,336734.868705739,1,20,14,1,0,24,7,2180131,2151191,11373561,6111201,2180131,0,0,0,0,0,0,0,0,0,0,0,0,0,0,0,0,2151191,3080100,0,0,0,3091180,-1121170,0,4081111,0,0,0,0,0,4041091,0,0,2070110,0
1,317,1068.48095072201,0,0,336737.268651691,336738.315671207,1,20,14,0,0,29,7,10221412,6301431,0,4361170,0,0,0,3060111,0,4051150,0,0,3110151,0,3200200,2071151,0,0,0,0,1030080,0,0,0,0,0,0,0,0,0,0,0,-1170120,0,3191050,0,0,0,0,0
1,318,585.603629355319,0,0,336740.468554988,336741.51557951,1,20,14,1,0,21,7,5241201,3142231,5121041,6200242,0,0,0,1180080,4061121,0,0,0,0,1071101,2071130,0,0,0,0,0,0,0,0,0,-3010010,0,0,2111031,0,0,0,0,4070171,0,0,0,0,2130071,0,0
1,319,613.385107018985,0,0,336743.209660273,336744.256684794,1,20,14,0,0,27,3,5170161,4090090,4091171,0,0,2020080,0,0,0,0,3150081,0,0,0,0,0,0,0,0,0,4090090,0,0,0,0,0,0,0,0,0,-4091171,0,0,0,0,0,0,0,0,0
1,320,834.206028608605,1,0,336745.891938133,336746.938962269,1,20,14,0,1,33,7,0,5102301,8292402,6321313,0,0,0,0,0,0,0,0,0,4031101,0,0,0,1071200,0,0,0,0,0,2060101,3081170,0,0,0,0,3151131,0,0,2060101,0,0,0,-3200141,0,1061071,0
1,321,1455.68276965059,0,0,336748.915428836,336749.962407547,1,20,14,1,0,4,7,5270341,7251250,3202242,4200171,0,0,0,-3130190,0,0,2140151,0,0,0,4080150,0,0,0,0,3171100,0,0,0,0,1090101,0,0,0,0,1031060,1081081,0,0,0,0,4200171,0,0,0,0
1,322,1054.84832823277,0,0,336752.468272812,336753.515246133,1,20,14,1,0,31,3,0,5241381,1121141,3101061,0,0,0,0,0,0,0,0,0,0,0,0,3060190,0,0,0,2181191,0,0,0,0,0,1121141,0,0,0,0,0,0,0,-3101061,0,0,0,0,0
1,323,976.805192651227,0,0,336755.621075366,336756.668099888,1,20,14,1,0,6,3,2110141,1181040,3080131,1201150,0,0,0,0,0,-2110141,0,0,0,0,0,0,0,0,0,1181040,0,0,0,0,3080131,0,0,0,0,0,0,0,0,0,0,1201150,0,0,0,0
1,324,821.082324488088,1,0,336758.832755005,336759.879776446,1,20,14,0,1,14,3,3181051,4050091,1120171,1161141,0,0,3181051,0,0,0,0,0,0,0,0,0,0,-4050091,0,0,0,0,0,0,0,0,1120171,0,0,0,0,0,0,0,1161141,0,0,0,0,0
1,325,703.063687717076,1,0,336761.867968924,336762.914981896,1,20,14,1,1,34,3,3051201,0,6242301,3171190,0,0,0,0,3051201,0,0,0,0,0,0,0,0,0,0,0,0,0,0,3091131,0,3151170,0,0,0,0,0,0,0,0,0,0,0,-3171190,0,0
1,326,1270.35370888188,0,0,336764.691412353,336765.738443034,1,20,14,0,0,32,7,3130160,4010071,5472401,8322383,0,0,0,0,3130160,0,0,0,0,0,0,0,0,4010071,0,0,0,0,0,0,2171180,0,0,0,2130090,1171131,0,0,0,2131141,0,-2171091,4020151,0,0,0
1,327,1000.6920202286,1,0,336768.103112318,336769.150104118,1,20,14,0,1,36,3,2201221,0,3200141,3080110,0,1171151,0,0,0,0,0,0,1030070,0,0,0,0,0,0,0,0,0,0,0,0,0,0,0,0,0,3200141,0,0,0,0,0,0,0,0,-3080110
1,328,670.154145103879,1,0,336771.267702762,336772.314720739,1,20,14,1,1,5,3,2161031,4361362,2010080,0,0,0,0,0,-2161031,0,0,0,0,0,0,1161181,0,0,3200181,0,0,0,2010080,0,0,0,0,0,0,0,0,0,0,0,0,0,0,0,0,0
1,329,658.603776420932,0,0,336774.091173909,336775.138179567,1,20,14,0,0,8,7,6241091,9551562,0,5161311,0,0,0,4050030,0,0,0,-2191061,0,1150100,0,4130140,3111131,1160191,0,0,0,0,0,0,0,0,0,0,0,0,0,2100140,0,0,3061171,0,0,0,0,0
1,330,2411.28445207141,0,0,336776.973425899,336778.020446956,1,20,14,1,0,28,7,6221132,1141180,5251110,8131232,0,0,3120061,0,0,0,3101071,0,0,0,0,1141180,0,0,0,0,0,0,0,2091070,0,0,0,0,0,3160040,0,-3060061,1031111,4040060,0,0,0,0,0,0
1,331,831.828894675709,1,0,336781.44388592,336782.490911596,1,20,14,1,1,19,7,6461200,2231302,3130101,8261201,1140130,0,3201010,0,0,2120060,0,0,0,0,0,0,0,1071111,0,0,0,1160191,-3130101,0,0,0,0,0,0,0,0,4160101,0,0,0,0,0,4101100,0,0
1,332,1004.4923548121,1,0,336784.479179911,336785.526120511,1,20,14,1,1,12,3,3100171,5052190,0,2070011,3100171,0,0,0,0,0,0,0,0,0,0,-1021120,4031070,0,0,0,0,0,0,0,0,0,0,0,0,0,0,0,0,0,2070011,0,0,0,0,0
1,333,1536.33555560373,1,0,336787.667245659,336788.714272105,1,20,14,0,1,22,3,0,2100041,2030171,5251170,0,0,0,0,0,0,0,0,0,0,0,2100041,0,0,0,0,0,0,0,0,0,-2030171,0,0,0,0,0,1131010,0,0,0,0,0,0,0,4120160
1,334,1040.36340210587,1,0,336791.36125636,336792.408286655,1,20,14,0,1,20,7,6361352,4040020,8171160,7241082,0,0,0,3140150,1020021,0,2201181,0,0,0,0,0,0,0,4040020,0,0,0,0,-4130150,0,0,0,0,0,4041010,0,0,0,0,0,3110071,0,0,0,4131011
1,335,592.661118658725,0,0,336794.525880295,336795.572910591,1,20,14,0,0,30,3,2070080,0,0,7322380,0,0,2070080,0,0,0,0,0,0,0,0,0,0,0,0,0,0,0,0,0,0,0,0,0,0,0,0,0,0,-2110090,2111100,0,0,0,0,3101190
1,336,1379.17331844801,1,0,336797.196387204,336798.243414805,1,20,14,0,1,1,7,9281100,10303362,7231372,0,-2110010,0,4091040,0,0,0,3080050,0,0,0,0,0,0,0,0,3151011,4011200,3141151,0,0,4190191,0,0,0,0,0,3041181,0,0,0,0,0,0,0,0,0
1,337,1008.73115996365,1,0,336805.819728696,336806.866733584,1,20,15,0,1,33,3,0,2070100,6102291,1040020,0,0,0,0,0,0,0,0,0,0,2070100,0,0,0,0,0,0,0,0,2071190,0,4031101,0,0,0,0,0,0,0,0,0,0,-1040020,0,0,0
1,338,609.921998227946,0,0,336808.878424079,336809.925445905,1,20,15,0,0,14,3,4121071,3231161,0,4091160,0,4121071,0,0,0,0,0,0,0,1140071,0,0,0,-2091090,0,0,0,0,0,0,0,0,0,0,0,0,0,0,0,0,0,4091160,0,0,0,0
1,339,1568.8952227938,1,0,336811.71363692,336812.76043426,1,20,15,0,1,22,7,1050200,2140180,14493593,2160151,0,0,0,0,0,1050200,0,0,0,0,0,2140180,0,0,0,0,0,0,0,4111071,3051140,-2100191,0,0,4091011,0,1140180,0,0,0,0,2160151,0,0,0,0
1,340,683.453391422518,0,0,336815.34882289,336816.395858961,1,20,15,1,0,19,7,6461200,2231302,3130101,8261201,1140130,0,3201010,0,0,2120060,0,0,0,0,0,0,0,1071111,0,0,0,1160191,-3130101,0,0,0,0,0,0,0,0,4160101,0,0,0,0,0,4101100,0,0
1,341,897.29728049133,1,0,336818.184044971,336819.231071802,1,20,15,0,1,32,7,0,4172130,7091282,12184472,0,0,0,0,0,0,0,0,0,1061100,0,0,0,0,0,0,3111030,0,0,0,4021131,3070151,0,0,0,0,0,4061110,4021031,0,0,-2031160,2071171,0,0,0
1,342,779.391437303275,0,0,336821.33689911,336822.383919396,1,20,15,0,0,36,3,0,3141271,0,5370120,0,0,0,0,0,0,0,0,0,0,0,0,0,0,2111101,0,1030170,0,0,0,0,0,0,0,0,0,0,0,0,0,0,1200050,0,0,0,-4170070
1,343,1547.22148168366,0,0,336824.230934755,336825.277959277,1,20,15,0,0,1,7,4120090,1190070,7281452,6311472,-4120090,0,0,0,0,0,0,0,0,0,0,0,0,1190070,0,0,0,0,0,0,3091121,1040180,0,3150151,0,0,0,1110170,0,0,0,3131141,0,0,2070161,0
1,344,599.035302235279,1,0,336827.913182974,336828.960208265,1,20,15,0,1,27,3,0,3141161,4172321,0,0,0,0,0,0,0,0,0,0,0,1110030,0,2031131,0,0,0,0,0,0,0,0,1031121,0,0,0,0,-3141200,0,0,0,0,0,0,0,0,0
1,345,631.564503419213,0,0,336830.68962344,336831.736601381,1,20,15,1,0,34,3,3051201,0,6242301,3171190,0,0,0,0,3051201,0,0,0,0,0,0,0,0,0,0,0,0,0,0,3091131,0,3151170,0,0,0,0,0,0,0,0,0,0,0,-3171190,0,0
1,346,584.777118172497,1,0,336833.548322749,336834.595344191,1,20,15,0,1,13,7,4130020,8281221,2280241,5111241,0,0,0,0,0,4130020,0,0,0,0,0,0,-4060010,1171131,0,3050080,0,0,0,0,0,1130201,0,0,1150040,0,0,0,1051111,0,4060130,0,0,0,0,0
1,347,679.250387649518,0,0,336836.360009086,336837.407036302,1,20,15,1,0,24,7,2180131,2151191,11373561,6111201,2180131,0,0,0,0,0,0,0,0,0,0,0,0,0,0,0,0,2151191,3080100,0,0,0,3091180,-1121170,0,4081111,0,0,0,0,0,4041091,0,0,2070110,0
1,348,619.614160328638,1,0,336839.183527968,336840.230484736,1,20,15,0,1,20,7,7311082,4350200,3331341,6230132,0,0,0,0,0,0,4201041,0,3110041,1150170,0,3200030,0,0,0,0,0,0,0,-2200170,0,0,0,0,0,1131171,0,0,2070111,0,0,0,0,4160021,0,0
1,349,488.684317911975,0,0,336841.936372637,336842.983371751,1,20,15,1,0,28,7,6221132,1141180,5251110,8131232,0,0,3120061,0,0,0,3101071,0,0,0,0,1141180,0,0,0,0,0,0,0,2091070,0,0,0,0,0,3160040,0,-3060061,1031111,4040060,0,0,0,0,0,0
1,350,746.459951915313,1,0,336844.512723484,336845.559746081,1,20,15,0,1,30,3,1130041,3081061,0,7222272,0,0,0,0,0,1130041,0,0,0,0,0,3081061,0,0,0,0,0,0,0,0,0,0,0,0,0,0,0,0,0,-4171081,0,0,0,0,0,3051191
1,351,424.897441582289,0,0,336847.489116908,336848.536129881,1,20,15,1,0,21,7,5241201,3142231,5121041,6200242,0,0,0,1180080,4061121,0,0,0,0,1071101,2071130,0,0,0,0,0,0,0,0,0,-3010010,0,0,2111031,0,0,0,0,4070171,0,0,0,0,2130071,0,0
1,352,980.962001020089,1,0,336850.08904469,336851.136059972,1,20,15,1,1,6,3,2110141,1181040,3080131,1201150,0,0,0,0,0,-2110141,0,0,0,0,0,0,0,0,0,1181040,0,0,0,0,3080131,0,0,0,0,0,0,0,0,0,0,1201150,0,0,0,0
1,353,1025.76722233789,0,0,336853.312479496,336854.371273044,1,20,15,1,0,35,3,0,8281361,0,3071091,0,0,0,0,0,0,0,0,0,0,0,3010120,0,0,2200121,3071120,0,0,0,0,0,0,0,0,0,0,0,0,0,0,0,0,0,0,-3071091,0
1,354,683.226649358403,0,0,336856.441803666,336857.488831267,1,20,15,0,0,29,7,0,1010070,9462352,10351324,0,0,0,0,0,0,0,0,0,1010070,0,0,0,0,0,0,0,0,0,2201100,0,0,4151051,0,0,0,3110201,0,-3130051,4011051,0,0,1130161,0,2080061,0
1,355,899.343347991817,0,0,336859.347610648,336860.394624391,1,20,15,1,0,5,3,2161031,4361362,2010080,0,0,0,0,0,-2161031,0,0,0,0,0,0,1161181,0,0,3200181,0,0,0,2010080,0,0,0,0,0,0,0,0,0,0,0,0,0,0,0,0,0
1,356,1276.69209107989,1,0,336862.418175532,336863.465168872,1,20,15,1,1,4,7,5270341,7251250,3202242,4200171,0,0,0,-3130190,0,0,2140151,0,0,0,4080150,0,0,0,0,3171100,0,0,0,0,1090101,0,0,0,0,1031060,1081081,0,0,0,0,4200171,0,0,0,0
1,357,815.817213384435,0,0,336865.912136265,336866.959156937,1,20,15,0,0,8,3,4250261,1171161,2171130,0,0,0,0,0,0,0,1070100,-3180161,0,0,0,0,0,0,0,0,0,1171161,0,0,2171130,0,0,0,0,0,0,0,0,0,0,0,0,0,0,0
1,358,954.690340266097,1,0,336868.80622542,336869.853197202,1,20,15,1,1,2,7,7303342,3091011,5451411,4091090,0,-1201130,0,0,0,0,4061151,2041061,0,0,0,0,0,0,0,3091011,0,0,0,0,3140190,0,0,0,1131060,1180161,0,4091090,0,0,0,0,0,0,0,0
1,359,964.014094730373,1,0,336871.970790842,336873.017811128,1,20,15,1,1,12,3,3100171,5052190,0,2070011,3100171,0,0,0,0,0,0,0,0,0,0,-1021120,4031070,0,0,0,0,0,0,0,0,0,0,0,0,0,0,0,0,0,2070011,0,0,0,0,0
1,360,537.40921174176,1,0,336875.088345215,336876.135374741,1,20,15,1,1,31,3,0,5241381,1121141,3101061,0,0,0,0,0,0,0,0,0,0,0,0,3060190,0,0,0,2181191,0,0,0,0,0,1121141,0,0,0,0,0,0,0,-3101061,0,0,0,0,0
1,361,587.364055798389,0,0,336888.970310025,336890.017336087,1,20,16,1,0,21,7,5241201,3142231,5121041,6200242,0,0,0,1180080,4061121,0,0,0,0,1071101,2071130,0,0,0,0,0,0,0,0,0,-3010010,0,0,2111031,0,0,0,0,4070171,0,0,0,0,2130071,0,0
1,362,625.030945986509,1,0,336891.652587886,336892.699616257,1,20,16,0,1,29,7,7443222,6391362,1041071,2191040,0,3181010,0,0,0,3091041,1171171,0,0,3080030,0,0,0,0,2181191,1130141,0,0,0,1041071,0,0,0,0,0,0,0,0,-2191040,0,0,0,0,0,0,0
1,363,1330.44688479276,1,0,336894.370162816,336895.417185798,1,20,16,1,1,4,7,5270341,7251250,3202242,4200171,0,0,0,-3130190,0,0,2140151,0,0,0,4080150,0,0,0,0,3171100,0,0,0,0,1090101,0,0,0,0,1031060,1081081,0,0,0,0,4200171,0,0,0,0
1,364,580.19030833384,1,0,336897.899475669,336898.94649634,1,20,16,0,1,33,3,5230231,0,2161051,1010190,0,0,4110100,0,0,1120131,0,0,0,0,0,0,0,0,0,0,0,0,2161051,0,0,0,0,0,0,0,0,0,0,0,0,0,-1010190,0,0,0
1,365,505.420495697763,1,0,336900.55822356,336901.605249236,1,20,16,0,1,20,3,0,2170080,4351100,2131170,0,0,0,0,0,0,0,0,0,0,0,0,0,0,0,0,2170080,0,0,-3180080,0,0,0,0,1171020,0,0,0,0,0,2131170,0,0,0,0,0
1,366,637.864774558693,1,0,336903.287561358,336904.334585109,1,20,16,0,1,14,3,0,5281262,4130160,3011060,0,0,0,0,0,0,0,0,0,0,0,0,3091141,-2190121,0,0,0,0,0,0,0,0,0,0,4130160,0,0,3011060,0,0,0,0,0,0,0,0
1,367,716.280937369447,1,0,336906.005137059,336907.052150031,1,20,16,0,1,8,7,3131210,5201210,2101050,8270122,0,0,1021150,0,0,0,0,-2110060,0,0,0,3110180,0,0,0,0,0,2091030,0,0,0,0,0,2101050,0,0,0,0,3010030,0,0,3170031,2090061,0,0,0
1,368,555.575134523679,1,1,336908.816844953,336909.863838293,1,20,16,1,0,19,7,6461200,2231302,3130101,8261201,1140130,0,3201010,0,0,2120060,0,0,0,0,0,0,0,1071111,0,0,0,1160191,-3130101,0,0,0,0,0,0,0,0,4160101,0,0,0,0,0,4101100,0,0
1,369,948.101733461954,0,0,336911.48732684,336912.534353286,1,20,16,0,0,27,3,0,0,8292192,5140180,0,0,0,0,0,0,0,0,0,0,0,0,0,0,0,0,0,0,0,0,0,0,0,4091021,0,0,-4201171,2090170,0,0,0,0,0,3050010,0,0
1,370,666.471223521512,0,0,336914.604891992,336915.651920363,1,20,16,0,0,22,7,4061100,4150080,9421783,2180040,0,0,4061100,0,0,0,0,0,0,0,4150080,0,0,0,0,0,0,0,1020121,2060180,0,-2160131,0,0,0,3030181,1151170,0,2180040,0,0,0,0,0,0,0
1,371,844.515283126384,0,0,336917.357762069,336918.404777736,1,20,16,0,0,13,3,0,2101061,11402281,0,0,0,0,0,0,0,0,0,0,0,0,0,-2101061,0,0,0,0,0,0,0,4170140,4191051,0,0,0,0,3041090,0,0,0,0,0,0,0,0,0
1,372,1669.16287061758,0,0,336920.428262664,336921.475284106,1,20,16,0,0,32,7,6151091,0,7391351,9261282,0,3110061,3041030,0,0,0,0,0,0,0,0,0,0,0,0,0,0,0,0,0,0,4190180,2070031,1131140,0,0,0,2190111,0,0,0,-4061030,0,0,3010141,0
1,373,1042.66739351442,1,0,336924.298775656,336925.34576553,1,20,16,1,1,12,3,3100171,5052190,0,2070011,3100171,0,0,0,0,0,0,0,0,0,0,-1021120,4031070,0,0,0,0,0,0,0,0,0,0,0,0,0,0,0,0,0,2070011,0,0,0,0,0
1,374,586.728100315668,1,0,336927.498661245,336928.545673063,1,20,16,1,1,28,7,6221132,1141180,5251110,8131232,0,0,3120061,0,0,0,3101071,0,0,0,0,1141180,0,0,0,0,0,0,0,2091070,0,0,0,0,0,3160040,0,-3060061,1031111,4040060,0,0,0,0,0,0
1,375,941.251738055144,0,0,336930.275048972,336931.322063869,1,20,16,1,0,35,3,0,8281361,0,3071091,0,0,0,0,0,0,0,0,0,0,0,3010120,0,0,2200121,3071120,0,0,0,0,0,0,0,0,0,0,0,0,0,0,0,0,0,0,-3071091,0
1,376,1992.24097223487,1,0,336933.427898876,336934.474929942,1,20,16,0,1,36,7,1180101,6201151,8522553,8140131,1180101,0,0,0,0,0,0,0,0,3061051,3140100,0,0,0,0,0,0,0,3200191,0,0,1131171,4191191,0,0,0,0,0,0,0,0,0,0,4100090,0,-4040041
1,377,1629.6185257961,0,0,336937.545442471,336938.592458523,1,20,16,0,0,1,7,3222240,2162151,2131061,7200132,-1121150,0,0,0,0,1021030,1080060,0,0,0,0,0,1011140,0,0,1151011,0,0,0,0,0,0,2131061,0,0,0,0,0,3120081,4080051,0,0,0,0,0,0
1,378,740.955780085642,1,0,336941.357093007,336942.404111369,1,20,16,1,1,5,3,2161031,4361362,2010080,0,0,0,0,0,-2161031,0,0,0,0,0,0,1161181,0,0,3200181,0,0,0,2010080,0,0,0,0,0,0,0,0,0,0,0,0,0,0,0,0,0
1,379,984.983688220382,0,0,336944.204062941,336945.251096701,1,20,16,0,0,30,3,0,0,1070200,5331330,0,0,0,0,0,0,0,0,0,0,0,0,0,0,0,0,0,0,1070200,0,0,0,0,0,0,0,0,0,0,-2100080,0,0,0,0,2131140,1100110
1,380,570.115110022016,0,0,336947.309870616,336948.356885513,1,20,16,1,0,34,3,3051201,0,6242301,3171190,0,0,0,0,3051201,0,0,0,0,0,0,0,0,0,0,0,0,0,0,3091131,0,3151170,0,0,0,0,0,0,0,0,0,0,0,-3171190,0,0
1,381,754.750086227432,1,0,336949.980437193,336951.027431688,1,20,16,1,1,2,7,7303342,3091011,5451411,4091090,0,-1201130,0,0,0,0,4061151,2041061,0,0,0,0,0,0,0,3091011,0,0,0,0,3140190,0,0,0,1131060,1180161,0,4091090,0,0,0,0,0,0,0,0
1,382,769.082182785496,1,0,336952.803834813,336953.850860874,1,20,16,1,1,31,3,0,5241381,1121141,3101061,0,0,0,0,0,0,0,0,0,0,0,0,3060190,0,0,0,2181191,0,0,0,0,0,1121141,0,0,0,0,0,0,0,-3101061,0,0,0,0,0
1,383,1376.88511051238,0,0,336955.686096812,336956.733119409,1,20,16,1,0,24,7,2180131,2151191,11373561,6111201,2180131,0,0,0,0,0,0,0,0,0,0,0,0,0,0,0,0,2151191,3080100,0,0,0,3091180,-1121170,0,4081111,0,0,0,0,0,4041091,0,0,2070110,0
1,384,764.516930736136,1,0,336959.30953339,336960.356551367,1,20,16,1,1,6,3,2110141,1181040,3080131,1201150,0,0,0,0,0,-2110141,0,0,0,0,0,0,0,0,0,1181040,0,0,0,0,3080131,0,0,0,0,0,0,0,0,0,0,1201150,0,0,0,0
1,385,833.498470310587,1,0,336990.979230726,336992.026258712,1,20,17,0,1,33,3,0,0,5231351,4130101,0,0,0,0,0,0,0,0,0,0,0,0,0,0,0,0,0,0,0,1060040,2101121,0,0,0,2070190,0,0,0,0,0,0,0,-4130101,0,0,0
1,386,546.362248773221,0,0,336993.979154888,336995.02617556,1,20,17,0,0,27,3,0,5102232,1051010,1031120,0,0,0,0,0,0,0,0,0,4051191,0,0,0,0,0,1051041,0,0,0,0,0,0,0,0,0,0,-1051010,0,0,0,0,1031120,0,0,0,0
1,387,1142.22137775505,0,0,336996.720255938,336997.76727738,1,20,17,0,0,30,3,6251111,2150071,0,3140051,0,4140081,0,0,0,0,0,2111030,0,0,0,0,2150071,0,0,0,0,0,0,0,0,0,0,0,0,0,0,0,0,-3140051,0,0,0,0,0,0
1,388,727.899444114883,1,0,336999.990756457,337001.03780908,1,20,17,1,1,5,3,2161031,4361362,2010080,0,0,0,0,0,-2161031,0,0,0,0,0,0,1161181,0,0,3200181,0,0,0,2010080,0,0,0,0,0,0,0,0,0,0,0,0,0,0,0,0,0
1,389,762.51551869791,1,0,337002.920084169,337003.967104071,1,20,17,1,1,35,3,0,8281361,0,3071091,0,0,0,0,0,0,0,0,0,0,0,3010120,0,0,2200121,3071120,0,0,0,0,0,0,0,0,0,0,0,0,0,0,0,0,0,0,-3071091,0
1,390,758.340232132468,0,0,337005.861180522,337006.908200039,1,20,17,0,0,36,7,4362412,3051051,2131180,4400292,2171181,0,1050040,0,0,0,1141191,0,0,0,0,0,0,3051051,0,0,0,0,0,0,0,0,1041100,0,0,1090080,0,0,0,0,0,2200131,0,0,0,-2200161
1,391,690.535518224351,1,0,337008.672863394,337009.719889456,1,20,17,0,1,22,7,2020060,0,3181122,13393624,0,0,0,0,0,0,0,0,2020060,0,0,0,0,0,0,0,0,0,0,0,0,-2060081,0,1121041,0,0,0,3041101,0,0,3061121,1090140,0,4071071,0,2130191
1,392,1476.51262226282,0,0,337011.566895191,337012.613925871,1,20,17,0,0,32,7,9301232,4171331,4191181,3301152,2080061,0,0,3150121,0,0,0,4071050,0,0,0,0,0,2141191,0,0,0,2030140,0,0,0,0,0,0,0,4191181,0,0,0,0,0,-1100091,0,2201061,0,0
1,393,1091.99051663745,1,0,337015.284517857,337016.331459996,1,20,17,1,1,4,7,5270341,7251250,3202242,4200171,0,0,0,-3130190,0,0,2140151,0,0,0,4080150,0,0,0,0,3171100,0,0,0,0,1090101,0,0,0,0,1031060,1081081,0,0,0,0,4200171,0,0,0,0
1,394,702.741860353854,0,0,337018.519650087,337019.566732352,1,20,17,1,0,19,7,6461200,2231302,3130101,8261201,1140130,0,3201010,0,0,2120060,0,0,0,0,0,0,0,1071111,0,0,0,1160191,-3130101,0,0,0,0,0,0,0,0,4160101,0,0,0,0,0,4101100,0,0
1,395,1174.08613633597,0,0,337021.331338734,337022.378355171,1,20,17,1,0,2,7,7303342,3091011,5451411,4091090,0,-1201130,0,0,0,0,4061151,2041061,0,0,0,0,0,0,0,3091011,0,0,0,0,3140190,0,0,0,1131060,1180161,0,4091090,0,0,0,0,0,0,0,0
1,396,917.758725525346,1,0,337024.566577598,337025.613569013,1,20,17,0,1,1,7,10472370,3242120,9342251,0,-4191110,0,0,0,4191160,0,0,0,2090100,2111030,0,0,0,0,0,1131090,0,0,4141050,0,0,0,2170171,0,0,0,3031030,0,0,0,0,0,0,0,0,0
1,397,968.789150530938,0,0,337027.56645672,337028.613529362,1,20,17,1,0,6,3,2110141,1181040,3080131,1201150,0,0,0,0,0,-2110141,0,0,0,0,0,0,0,0,0,1181040,0,0,0,0,3080131,0,0,0,0,0,0,0,0,0,0,1201150,0,0,0,0
1,398,513.370324508287,1,0,337030.742840443,337031.789866119,1,20,17,1,1,21,7,5241201,3142231,5121041,6200242,0,0,0,1180080,4061121,0,0,0,0,1071101,2071130,0,0,0,0,0,0,0,0,0,-3010010,0,0,2111031,0,0,0,0,4070171,0,0,0,0,2130071,0,0
1,399,787.668097938877,0,0,337033.354540716,337034.401599498,1,20,17,0,0,13,3,0,6300371,0,3180151,0,0,0,0,0,0,0,0,0,0,0,2170040,-1050181,0,0,0,3080150,0,0,0,0,0,0,0,0,0,0,0,0,0,0,0,0,0,3180151,0
1,400,866.94041400915,1,0,337036.366211192,337037.413232634,1,20,17,1,1,24,7,2180131,2151191,11373561,6111201,2180131,0,0,0,0,0,0,0,0,0,0,0,0,0,0,0,0,2151191,3080100,0,0,0,3091180,-1121170,0,4081111,0,0,0,0,0,4041091,0,0,2070110,0
1,401,575.50725818146,1,0,337039.342603461,337040.389619513,1,20,17,0,1,29,3,4130030,4121150,2141121,1061200,0,0,0,0,0,0,0,4130030,0,0,0,0,0,4121150,0,0,0,0,0,0,0,0,0,0,0,0,2141121,0,-1061200,0,0,0,0,0,0,0
1,402,879.097096214537,0,0,337042.01311191,337043.060133736,1,20,17,1,0,31,3,0,5241381,1121141,3101061,0,0,0,0,0,0,0,0,0,0,0,0,3060190,0,0,0,2181191,0,0,0,0,0,1121141,0,0,0,0,0,0,0,-3101061,0,0,0,0,0
1,403,1145.35842463374,1,0,337044.977735152,337046.024761983,1,20,17,0,1,8,7,7451332,4320261,0,6292350,0,2180071,0,0,3030070,1200181,0,-1041010,0,0,0,0,0,0,1130170,3190091,0,0,0,0,0,0,0,0,0,0,0,4151160,0,0,0,2141190,0,0,0,0
1,404,1090.22008115426,1,0,337048.365879741,337049.412896563,1,20,17,1,1,12,3,3100171,5052190,0,2070011,3100171,0,0,0,0,0,0,0,0,0,0,-1021120,4031070,0,0,0,0,0,0,0,0,0,0,0,0,0,0,0,0,0,2070011,0,0,0,0,0
1,405,603.441950399429,0,0,337051.624611618,337052.671634599,1,20,17,1,0,34,3,3051201,0,6242301,3171190,0,0,0,0,3051201,0,0,0,0,0,0,0,0,0,0,0,0,0,0,3091131,0,3151170,0,0,0,0,0,0,0,0,0,0,0,-3171190,0,0
1,406,665.482643817086,0,0,337054.330416752,337055.377442428,1,20,17,1,0,28,7,6221132,1141180,5251110,8131232,0,0,3120061,0,0,0,3101071,0,0,0,0,1141180,0,0,0,0,0,0,0,2091070,0,0,0,0,0,3160040,0,-3060061,1031111,4040060,0,0,0,0,0,0
1,407,948.56753613567,0,0,337057.071517417,337058.118538474,1,20,17,0,0,14,7,7052262,8481481,7323360,0,0,0,0,3041161,4011101,0,0,0,0,0,0,0,1180120,-4170201,3131160,0,0,0,2201080,0,0,0,1081150,0,4041130,0,0,0,0,0,0,0,0,0,0,0
1,408,524.863334023394,0,0,337060.142020322,337061.189042534,1,20,17,0,0,20,3,7201161,0,3200342,0,0,0,0,0,4050081,0,3151080,0,0,0,0,0,0,0,0,0,0,0,0,-1180201,0,0,0,2020141,0,0,0,0,0,0,0,0,0,0,0,0
1,409,649.902888748329,1,0,337070.329963268,337071.376989329,1,20,18,1,1,34,3,3051201,0,6242301,3171190,0,0,0,0,3051201,0,0,0,0,0,0,0,0,0,0,0,0,0,0,3091131,0,3151170,0,0,0,0,0,0,0,0,0,0,0,-3171190,0,0
1,410,1041.38431861065,0,0,337073.106364853,337074.153392069,1,20,18,1,0,6,3,2110141,1181040,3080131,1201150,0,0,0,0,0,-2110141,0,0,0,0,0,0,0,0,0,1181040,0,0,0,0,3080131,0,0,0,0,0,0,0,0,0,0,1201150,0,0,0,0
1,411,771.960150916129,0,0,337076.376865757,337077.423884503,1,20,18,0,0,22,7,5231191,2081021,6382071,5340373,0,0,0,3140161,0,0,0,0,2091030,0,0,0,0,2081021,0,0,0,0,0,0,0,-4191041,2191030,0,0,0,0,2150141,0,0,0,0,1080101,2110131,0,0
1,412,1400.83199203946,0,0,337079.223834536,337080.270857132,1,20,18,0,0,1,7,8291361,6331252,7391131,0,-2090131,0,0,0,0,4060070,2141160,0,0,0,2031051,0,0,2170050,0,0,2130151,0,0,4201070,0,0,0,3190061,0,0,0,0,0,0,0,0,0,0,0,0
1,413,709.855553985108,0,0,337082.717859172,337083.764877918,1,20,18,1,0,28,7,6221132,1141180,5251110,8131232,0,0,3120061,0,0,0,3101071,0,0,0,0,1141180,0,0,0,0,0,0,0,2091070,0,0,0,0,0,3160040,0,-3060061,1031111,4040060,0,0,0,0,0,0
1,414,1033.41254702536,1,0,337085.494258447,337086.541302601,1,20,18,1,1,31,3,0,5241381,1121141,3101061,0,0,0,0,0,0,0,0,0,0,0,0,3060190,0,0,0,2181191,0,0,0,0,0,1121141,0,0,0,0,0,0,0,-3101061,0,0,0,0,0
1,415,652.820892864838,1,0,337088.611813206,337089.658835802,1,20,18,0,1,32,7,2031021,4133361,1121161,9342331,0,0,0,0,0,2031021,0,0,0,0,1021070,2021121,0,0,0,0,0,1091170,0,0,0,0,0,0,1121161,0,0,0,0,0,0,-2131131,0,0,3171040,4040160
1,416,408.554693916813,1,0,337091.494086369,337092.541112045,1,20,18,0,1,20,3,0,4140120,1201041,5131180,0,0,0,0,0,0,0,0,0,0,0,0,0,0,0,0,0,4140120,0,-1201041,0,0,0,0,0,0,0,1101090,0,4030090,0,0,0,0,0,0
1,417,762.093216530047,1,0,337094.070484567,337095.117516017,1,20,18,0,1,8,3,7192251,0,2130031,4021201,0,0,0,0,0,0,3061180,-4131071,0,0,0,0,0,0,0,0,0,0,0,2130031,0,0,0,0,0,0,0,0,0,0,0,4021201,0,0,0,0
1,418,997.994983743411,1,0,337096.905701642,337097.952723084,1,20,18,1,1,35,3,0,8281361,0,3071091,0,0,0,0,0,0,0,0,0,0,0,3010120,0,0,2200121,3071120,0,0,0,0,0,0,0,0,0,0,0,0,0,0,0,0,0,0,-3071091,0
1,419,880.491424817592,1,0,337100.082089215,337101.129111811,1,20,18,0,1,33,3,2190292,3111021,0,1031191,1020091,0,0,0,0,0,0,0,1170201,0,0,0,0,3111021,0,0,0,0,0,0,0,0,0,0,0,0,0,0,0,0,0,0,-1031191,0,0,0
1,420,1243.56620036997,0,0,337103.187928842,337104.234902548,1,20,18,0,0,13,7,7130371,1161020,1111141,9283380,0,0,0,0,0,0,4050181,3080190,0,0,0,0,-1161020,0,0,0,0,0,0,0,0,0,0,0,0,1111141,0,3091160,2081170,0,0,0,3011040,1100010,0,0
1,421,1577.65842007939,1,0,337106.634851964,337107.681863782,1,20,18,0,1,30,7,7322261,6230082,1020190,5180081,0,0,0,0,3141090,1060070,0,0,3121101,4110061,0,0,2120021,0,0,0,0,0,0,1020190,0,0,0,0,0,0,0,0,0,-4080040,0,0,0,1100041,0,0
1,422,1398.46024755389,0,0,337110.422970991,337111.469998207,1,20,18,1,0,4,7,5270341,7251250,3202242,4200171,0,0,0,-3130190,0,0,2140151,0,0,0,4080150,0,0,0,0,3171100,0,0,0,0,1090101,0,0,0,0,1031060,1081081,0,0,0,0,4200171,0,0,0,0
1,423,781.852107786108,0,0,337113.940526751,337114.987546268,1,20,18,0,0,14,3,0,6363371,2030160,0,0,0,0,0,0,0,0,0,0,0,0,1101140,4121100,-1141131,0,0,0,0,0,0,0,0,0,0,2030160,0,0,0,0,0,0,0,0,0,0,0
1,424,1276.12966310699,0,0,337116.905139984,337117.952166045,1,20,18,1,0,24,7,2180131,2151191,11373561,6111201,2180131,0,0,0,0,0,0,0,0,0,0,0,0,0,0,0,0,2151191,3080100,0,0,0,3091180,-1121170,0,4081111,0,0,0,0,0,4041091,0,0,2070110,0
1,425,921.958264603745,1,0,337120.340343355,337121.387362102,1,20,18,1,1,12,3,3100171,5052190,0,2070011,3100171,0,0,0,0,0,0,0,0,0,0,-1021120,4031070,0,0,0,0,0,0,0,0,0,0,0,0,0,0,0,0,0,2070011,0,0,0,0,0
1,426,718.19303848315,0,0,337123.340264053,337124.38728203,1,20,18,1,0,5,3,2161031,4361362,2010080,0,0,0,0,0,-2161031,0,0,0,0,0,0,1161181,0,0,3200181,0,0,0,2010080,0,0,0,0,0,0,0,0,0,0,0,0,0,0,0,0,0
1,427,448.71305138804,0,0,337126.222579948,337127.269563278,1,20,18,1,0,21,7,5241201,3142231,5121041,6200242,0,0,0,1180080,4061121,0,0,0,0,1071101,2071130,0,0,0,0,0,0,0,0,0,-3010010,0,0,2111031,0,0,0,0,4070171,0,0,0,0,2130071,0,0
1,428,776.851849863306,0,0,337128.775400826,337129.822420343,1,20,18,0,0,27,7,0,2080190,12520382,5450422,0,0,0,0,0,0,0,0,0,0,0,0,0,0,0,2080190,0,0,1120061,4080130,3120160,0,0,0,0,0,-4200031,0,0,1110171,0,0,1140140,0,0,3200111
1,429,658.418225240894,1,0,337131.704730463,337132.751757294,1,20,18,0,1,29,3,2180171,4180191,0,1020181,0,2180171,0,0,0,0,0,0,0,0,0,0,0,1050010,0,0,3130181,0,0,0,0,0,0,0,0,0,0,0,-1020181,0,0,0,0,0,0,0
1,430,800.724818895105,0,0,337134.45759592,337135.504622751,1,20,18,0,0,36,3,0,0,2031100,5242323,0,0,0,0,0,0,0,0,0,0,0,0,0,0,0,0,0,0,0,0,0,0,0,0,2031100,0,0,0,0,1090071,0,0,0,0,1021071,-3131181
1,431,920.873829629272,1,0,337137.422218777,337138.469242144,1,20,18,1,1,19,7,6461200,2231302,3130101,8261201,1140130,0,3201010,0,0,2120060,0,0,0,0,0,0,0,1071111,0,0,0,1160191,-3130101,0,0,0,0,0,0,0,0,4160101,0,0,0,0,0,4101100,0,0
1,432,1258.60739505151,0,0,337140.551559116,337141.598565544,1,20,18,1,0,2,7,7303342,3091011,5451411,4091090,0,-1201130,0,0,0,0,4061151,2041061,0,0,0,0,0,0,0,3091011,0,0,0,0,3140190,0,0,0,1131060,1180161,0,4091090,0,0,0,0,0,0,0,0
1,433,603.104724606965,0,0,337150.021861688,337151.068895448,1,20,19,0,0,22,7,5321211,1011121,5141351,9352320,0,0,0,0,0,3201070,0,0,2120141,0,0,0,0,0,0,0,0,1011121,0,2060200,0,-3081151,0,0,0,0,0,0,0,3191080,3111180,0,0,3050060,0,0
1,434,598.786232469138,1,0,337152.75120911,337153.798226316,1,20,19,0,1,29,7,3171152,1060081,5211350,9452150,2091111,0,1080041,0,0,0,0,0,0,0,0,0,0,0,1060081,0,0,0,0,0,0,0,0,2100180,0,0,3111170,0,-2111080,0,4190020,0,0,0,0,3151050
1,435,1070.78532705782,1,0,337155.49230939,337156.539330446,1,20,19,0,1,8,7,13412281,0,3210311,5170222,0,4140021,2180080,0,0,0,0,-3081170,4011010,0,0,0,0,0,0,0,0,0,1130181,0,0,0,0,0,0,0,2080130,0,0,0,0,0,0,2150021,0,3020201
1,436,851.96119803004,0,0,337158.751042421,337159.798056549,1,20,19,1,0,28,7,6221132,1141180,5251110,8131232,0,0,3120061,0,0,0,3101071,0,0,0,0,1141180,0,0,0,0,0,0,0,2091070,0,0,0,0,0,3160040,0,-3060061,1031111,4040060,0,0,0,0,0,0
1,437,772.64076191932,1,0,337161.833350924,337162.880326941,1,20,19,0,1,30,3,1201070,7401361,0,2091161,0,0,0,0,0,0,1201070,0,0,3201191,0,0,0,0,4200170,0,0,0,0,0,0,0,0,0,0,0,0,0,0,-2091161,0,0,0,0,0,0
1,438,1965.40110907517,1,0,337164.668520265,337165.715547481,1,20,19,0,1,32,7,5382101,4220280,4050091,7260182,0,0,0,0,1181041,0,0,0,4201060,1040070,0,0,0,0,1100160,0,2080050,0,0,0,0,0,0,4050091,0,0,0,0,0,0,0,-3200011,0,4060171,0,0
1,439,1153.86413701344,0,0,337168.83315267,337169.880131765,1,20,19,1,0,4,7,5270341,7251250,3202242,4200171,0,0,0,-3130190,0,0,2140151,0,0,0,4080150,0,0,0,0,3171100,0,0,0,0,1090101,0,0,0,0,1031060,1081081,0,0,0,0,4200171,0,0,0,0
1,440,1033.30129332608,1,0,337172.162430952,337173.209454704,1,20,19,1,1,24,7,2180131,2151191,11373561,6111201,2180131,0,0,0,0,0,0,0,0,0,0,0,0,0,0,0,0,2151191,3080100,0,0,0,3091180,-1121170,0,4081111,0,0,0,0,0,4041091,0,0,2070110,0
1,441,715.818599215709,0,0,337175.432926467,337176.479945983,1,20,19,1,0,19,7,6461200,2231302,3130101,8261201,1140130,0,3201010,0,0,2120060,0,0,0,0,0,0,0,1071111,0,0,0,1160191,-3130101,0,0,0,0,0,0,0,0,4160101,0,0,0,0,0,4101100,0,0
1,442,736.673089384567,0,0,337178.374061701,337179.421040797,1,20,19,0,0,14,3,2111110,5141190,3181100,0,0,2111110,0,0,0,0,0,0,0,0,0,4091140,0,-1050050,0,0,0,0,3181100,0,0,0,0,0,0,0,0,0,0,0,0,0,0,0,0,0
1,443,565.434369724244,1,0,337181.209236431,337182.256257103,1,20,19,0,1,20,3,3101091,6301290,1160090,0,0,0,0,0,0,0,3101091,0,0,3101100,0,0,3200190,0,0,0,0,0,0,-1160090,0,0,0,0,0,0,0,0,0,0,0,0,0,0,0,0
1,444,980.211712128948,1,0,337183.844456663,337184.891485419,1,20,19,0,1,13,7,4160181,8281521,10492550,4131130,0,4160181,0,0,0,0,0,0,0,4020150,0,0,-2190170,0,0,0,0,2071201,0,0,0,0,4171180,0,3120200,3201170,0,0,0,0,0,0,4131130,0,0,0
1,445,1181.52242724318,1,0,337187.0090729,337188.056101655,1,20,19,1,1,6,3,2110141,1181040,3080131,1201150,0,0,0,0,0,-2110141,0,0,0,0,0,0,0,0,0,1181040,0,0,0,0,3080131,0,0,0,0,0,0,0,0,0,0,1201150,0,0,0,0
1,446,779.957714898046,1,0,337190.267805931,337191.314825833,1,20,19,1,1,34,3,3051201,0,6242301,3171190,0,0,0,0,3051201,0,0,0,0,0,0,0,0,0,0,0,0,0,0,3091131,0,3151170,0,0,0,0,0,0,0,0,0,0,0,-3171190,0,0
1,447,1516.52777433628,0,0,337193.244192811,337194.291218487,1,20,19,1,0,2,7,7303342,3091011,5451411,4091090,0,-1201130,0,0,0,0,4061151,2041061,0,0,0,0,0,0,0,3091011,0,0,0,0,3140190,0,0,0,1131060,1180161,0,4091090,0,0,0,0,0,0,0,0
1,448,670.904049067758,1,0,337197.008858861,337198.055815629,1,20,19,0,1,27,3,0,0,5162260,5221290,0,0,0,0,0,0,0,0,0,0,0,0,0,0,0,0,0,0,2061160,0,0,0,0,0,0,0,-3101100,0,0,0,0,4121090,0,0,0,1100200
1,449,915.340015781112,0,0,337199.785204627,337200.832213365,1,20,19,1,0,12,3,3100171,5052190,0,2070011,3100171,0,0,0,0,0,0,0,0,0,0,-1021120,4031070,0,0,0,0,0,0,0,0,0,0,0,0,0,0,0,0,0,2070011,0,0,0,0,0
1,450,1219.97271297732,0,0,337202.855690979,337203.902707801,1,20,19,1,0,31,3,0,5241381,1121141,3101061,0,0,0,0,0,0,0,0,0,0,0,0,3060190,0,0,0,2181191,0,0,0,0,0,1121141,0,0,0,0,0,0,0,-3101061,0,0,0,0,0
1,451,1552.33915266581,1,0,337206.232066926,337207.279092217,1,20,19,0,1,1,7,4101340,6211230,4151092,6102150,-1050170,0,0,0,3051170,0,0,0,0,0,0,0,3151190,0,0,3060040,0,0,0,2071051,0,0,0,0,0,0,2080041,0,0,0,0,0,0,0,4021070,2081080
1,452,646.51099772891,0,0,337209.98490813,337211.03194574,1,20,19,1,0,21,7,5241201,3142231,5121041,6200242,0,0,0,1180080,4061121,0,0,0,0,1071101,2071130,0,0,0,0,0,0,0,0,0,-3010010,0,0,2111031,0,0,0,0,4070171,0,0,0,0,2130071,0,0
1,453,1002.5021067122,1,0,337212.773063343,337213.820084015,1,20,19,0,1,36,3,7251182,2190170,0,4130120,0,0,4080161,0,0,0,3171021,0,0,0,2190170,0,0,0,0,0,0,0,0,0,0,0,0,0,0,0,0,0,0,0,0,0,0,0,0,-4130120
1,454,546.784166013822,1,0,337215.890677386,337216.937681119,1,20,19,0,1,33,3,0,4101160,0,2301251,0,0,0,0,0,0,0,0,0,0,3071070,0,1030090,0,0,0,0,0,0,0,0,0,0,0,0,0,0,1121081,0,0,0,0,-1180170,0,0,0
1,455,648.46044004662,0,0,337218.525841029,337219.57286863,1,20,19,1,0,35,3,0,8281361,0,3071091,0,0,0,0,0,0,0,0,0,0,0,3010120,0,0,2200121,3071120,0,0,0,0,0,0,0,0,0,0,0,0,0,0,0,0,0,0,-3071091,0
1,456,779.625493567437,0,0,337221.278718035,337222.325730237,1,20,19,1,0,5,3,2161031,4361362,2010080,0,0,0,0,0,-2161031,0,0,0,0,0,0,1161181,0,0,3200181,0,0,0,2010080,0,0,0,0,0,0,0,0,0,0,0,0,0,0,0,0,0
1,457,781.928715005051,1,0,337229.184360639,337230.231387855,1,20,20,0,1,1,7,5351491,4192322,6142190,2110171,-1020201,2150100,0,2181190,0,0,0,0,0,2141151,0,0,0,2051171,0,0,0,0,0,0,0,3081150,0,0,0,0,3061040,0,0,0,0,0,0,2110171,0,0
1,458,954.529041599017,0,0,337232.113699899,337233.160723266,1,20,20,1,0,28,7,6221132,1141180,5251110,8131232,0,0,3120061,0,0,0,3101071,0,0,0,0,1141180,0,0,0,0,0,0,0,2091070,0,0,0,0,0,3160040,0,-3060061,1031111,4040060,0,0,0,0,0,0
1,459,714.167886646464,1,0,337235.195970676,337236.242991348,1,20,20,0,1,29,7,4231202,4041150,7263313,5362342,1130031,0,0,0,0,0,0,3101171,0,0,0,0,0,0,0,4041150,0,0,4121141,0,0,0,1031141,0,0,0,2111031,0,-1161201,0,4201141,0,0,0,0,0
1,460,845.943488238845,1,0,337238.031185827,337239.078204574,1,20,20,0,1,8,3,5082221,2020170,4081060,0,0,0,0,0,0,0,0,-4041160,1041061,0,0,0,0,0,0,0,2020170,0,0,0,4081060,0,0,0,0,0,0,0,0,0,0,0,0,0,0,0
1,461,1358.32075309008,1,0,337241.089924325,337242.136945767,1,20,20,0,1,32,3,0,1171190,5192271,3180160,0,0,0,0,0,0,0,0,0,0,0,0,0,0,1171190,0,0,0,0,0,0,0,2171160,3021111,0,0,0,0,0,0,0,-3180160,0,0,0,0
1,462,704.548097157385,1,0,337244.701581097,337245.748606773,1,20,20,1,1,34,3,3051201,0,6242301,3171190,0,0,0,0,3051201,0,0,0,0,0,0,0,0,0,0,0,0,0,0,3091131,0,3151170,0,0,0,0,0,0,0,0,0,0,0,-3171190,0,0
1,463,724.015188054182,0,0,337247.477979218,337248.525004124,1,20,20,0,0,20,3,1061091,3161140,4100071,1180180,0,0,0,0,1061091,0,0,0,0,0,0,0,0,3161140,0,0,0,0,0,-4100071,0,0,0,0,0,0,0,0,0,0,1180180,0,0,0,0,0
1,464,1030.54997732397,1,0,337250.289664015,337251.336687381,1,20,20,1,1,24,7,2180131,2151191,11373561,6111201,2180131,0,0,0,0,0,0,0,0,0,0,0,0,0,0,0,0,2151191,3080100,0,0,0,3091180,-1121170,0,4081111,0,0,0,0,0,4041091,0,0,2070110,0
1,465,1046.18054727325,0,0,337253.524868233,337254.571891599,1,20,20,0,0,14,7,2180272,4160040,7222342,4211250,1060151,1120121,0,0,0,0,0,0,0,0,0,0,0,-4160040,0,0,0,0,0,0,2120130,0,0,0,4091171,1011041,0,3010200,0,0,0,0,0,0,1201050,0
