sub_id,Trial,RT,Resp,Error,Fix_onset,Disp_onset,q1,q2,block,repeat,tid,tloc,d_setsize,quad1,quad2,quad3,quad4,loc1,loc2,loc3,loc4,loc5,loc6,loc7,loc8,loc9,loc10,loc11,loc12,loc13,loc14,loc15,loc16,loc17,loc18,loc19,loc20,loc21,loc22,loc23,loc24,loc25,loc26,loc27,loc28,loc29,loc30,loc31,loc32,loc33,loc34,loc35,loc36
18,1,1148.37731327862,0,0,773511.011666973,773512.058755579,0,50,1,0,0,19,7,5170220,4110030,6280281,9282331,4110020,0,0,0,0,0,1060200,0,0,4110030,0,0,0,0,0,0,0,0,-4090091,0,0,0,0,0,0,0,2190190,0,0,0,0,0,4080111,1031200,4171020,0
18,2,668.969339458272,1,0,773514.247025696,773515.294098519,0,50,1,0,1,16,7,6152211,5062340,0,7483304,0,0,0,2111020,0,4041191,0,0,0,0,0,2031170,0,0,0,-3031170,0,0,0,0,0,0,0,0,0,0,0,0,0,1161011,0,0,1131011,2041161,3150121,0
18,3,926.668203319423,0,0,773517.035295967,773518.08237033,0,50,1,0,0,25,7,5082321,4110310,4140191,2210131,0,0,0,0,0,0,0,4031141,1051180,0,3050200,0,0,0,0,0,1060110,0,0,0,0,0,0,0,-2060180,2080011,0,0,0,0,0,0,0,0,1050081,1160050
18,4,1396.4294034522,1,0,773520.188292746,773521.235360179,0,50,1,1,1,27,7,6191272,4180032,3171041,9232323,0,0,2040081,0,0,4151191,0,0,0,0,0,0,0,2010021,0,0,2170011,0,0,0,0,0,0,0,0,0,-3171041,4021101,0,2071171,0,0,0,3140051,0,0
18,5,482.896587694995,0,0,773523.658930506,773524.70603913,0,50,1,0,0,9,7,8441372,2060140,4181102,3251231,0,0,0,4100061,0,3151180,0,0,-1190131,0,2060140,0,0,0,0,0,0,0,1131081,0,0,0,0,0,0,3050021,0,0,2160060,0,0,0,0,0,1091171,0
18,6,503.26495047193,1,0,773526.376620223,773527.423686886,0,50,1,1,1,22,3,2130041,4111041,4112332,0,0,0,0,0,0,2130041,0,0,0,0,0,4111041,0,0,0,0,0,0,0,0,0,-2031191,0,0,0,0,2081141,0,0,0,0,0,0,0,0,0
18,7,866.64485919755,1,0,773529.047242122,773530.094323029,0,50,1,0,1,10,3,3140101,5190281,1091021,0,0,0,0,0,0,0,3140101,0,0,-4070141,0,0,0,0,0,1120140,0,0,0,0,0,0,0,1091021,0,0,0,0,0,0,0,0,0,0,0,0
18,8,805.013911915012,0,0,773532.129649107,773533.176713076,0,50,1,0,0,6,3,2010140,2090190,2171151,4191161,0,0,0,0,0,-2010140,0,0,0,0,0,0,0,0,0,0,2090190,0,0,0,0,0,0,0,2171151,0,0,0,0,0,0,0,4191161,0,0,0
18,9,525.767545215786,1,0,773535.059101275,773536.106169863,0,50,1,0,1,23,3,4111061,0,4190060,6211311,0,0,0,4111061,0,0,0,0,0,0,0,0,0,0,0,0,0,0,0,0,0,0,-4190060,0,0,0,0,2030121,0,0,4181190,0,0,0,0,0
18,10,1448.58257530723,0,1,773537.800321052,773538.847407733,0,50,1,1,1,1,7,2151241,4071010,4081111,8251210,-1020190,0,0,0,0,0,0,1131051,0,4071010,0,0,0,0,0,0,0,0,0,0,1071090,0,0,0,0,3010021,0,3200050,0,0,0,0,2030090,3021070,0,0
18,11,981.341339414939,0,0,773541.353308822,773542.400389729,0,50,1,1,0,18,3,0,4211280,1150201,4201140,0,0,0,0,0,0,0,0,0,0,0,0,3170200,0,0,0,0,-1041080,0,0,0,0,0,1150201,0,0,0,0,0,0,0,0,0,0,4201140,0
18,12,2195.51519455854,0,0,773544.518073133,773545.565142491,0,50,1,0,0,33,7,8271362,8062311,3022261,3201200,0,0,3170201,0,1040071,0,0,0,4061090,0,0,4041161,0,0,4021150,0,0,0,2011070,0,0,0,0,0,0,1011191,0,0,0,0,0,0,-3201200,0,0,0
18,13,1282.21027657855,0,0,773548.894612598,773549.941683495,0,50,1,1,0,34,3,3201031,3131170,0,7102280,0,0,0,0,3201031,0,0,0,0,0,0,3131170,0,0,0,0,0,0,0,0,0,0,0,0,0,0,0,0,0,3081130,0,0,0,-4021150,0,0
18,14,1270.54706949275,1,0,773552.377133763,773553.424089942,0,50,1,1,1,20,3,4101121,0,6282302,3121011,0,0,0,4101121,0,0,0,0,0,0,0,0,0,0,0,0,0,0,0,-3171201,0,0,0,3111101,0,0,0,3121011,0,0,0,0,0,0,0,0
18,15,451.730798115022,0,0,773555.730007661,773556.777075864,0,50,1,0,0,15,3,0,1011100,6272152,3151200,0,0,0,0,0,0,0,0,0,0,0,0,0,0,-1011100,0,0,0,0,0,4111091,0,0,0,0,0,2161061,0,0,0,0,3151200,0,0,0,0
18,16,587.933205300942,0,0,773558.400715792,773559.447701998,0,50,1,1,0,8,7,8211180,6142311,3080171,8320161,0,0,0,0,0,0,4181100,-4030080,0,0,0,3061201,0,0,0,0,0,3081110,0,0,0,0,3080171,0,0,0,0,0,4100081,1140070,0,0,0,3080010,0,0
18,17,709.535141824745,1,0,773561.071274173,773562.118335831,0,50,1,1,1,14,7,5102131,11290362,10330361,0,0,1041021,4061110,0,0,0,0,0,0,0,4140031,0,4120141,-3030190,0,0,0,0,0,0,3200130,0,3090141,0,0,0,4040090,0,0,0,0,0,0,0,0,0
18,18,1530.6515636621,0,0,773563.883122239,773564.930146556,0,50,1,0,0,17,7,1010191,7340241,7232412,2100170,0,0,0,0,0,0,1010191,0,0,0,4170090,0,0,1150050,0,0,-2020101,0,0,1071151,0,0,4101190,0,0,0,2060071,0,0,0,0,0,2100170,0,0,0
18,19,983.992190798745,1,0,773567.612542146,773568.659614969,0,50,1,1,1,36,3,0,2080111,0,5521252,0,0,0,0,0,0,0,0,0,0,0,0,0,0,0,0,0,2080111,0,0,0,0,0,0,0,0,0,0,0,3170040,0,0,0,0,1180181,-1171031
18,20,626.031398307532,0,0,773570.718476111,773571.765546239,0,50,1,0,0,28,3,1070101,0,1191171,3171270,0,0,0,0,0,0,0,0,1070101,0,0,0,0,0,0,0,0,0,0,0,0,1191171,0,0,0,0,0,-2101170,0,0,1070100,0,0,0,0,0
18,21,911.334379226901,0,0,773573.43615197,773574.483231722,0,50,1,1,0,7,3,7231300,0,0,1061031,0,2061050,0,4130170,0,0,-1040080,0,0,0,0,0,0,0,0,0,0,0,0,0,0,0,0,0,0,0,0,0,0,0,0,1061031,0,0,0,0
18,22,1129.98688756488,1,0,773576.577391611,773577.624459044,0,50,1,1,1,2,7,9281351,8401302,3242191,0,0,-2121021,0,4070180,0,0,0,3090150,0,0,0,0,2121050,0,0,2170111,0,4110141,0,0,0,0,2151141,0,0,1091050,0,0,0,0,0,0,0,0,0,0
18,23,728.297441382892,1,0,773579.895083022,773580.942154689,0,50,1,0,1,29,3,0,3130131,0,7462192,0,0,0,0,0,0,0,0,0,0,0,0,0,3130131,0,0,0,0,0,0,0,0,0,0,0,0,0,0,-4150021,2181031,0,0,0,0,0,1131140
18,24,641.478786361404,1,0,773582.848066404,773583.895145386,0,50,1,1,1,21,7,5330272,2180161,3131220,6270431,0,3140171,0,0,0,0,0,0,2190101,2180161,0,0,0,0,0,0,0,0,0,0,-2010140,0,0,0,1121080,0,0,0,2040131,2110130,0,0,0,0,2120170,0
18,25,1023.55940057896,1,0,773607.977859571,773609.024932394,0,50,2,1,1,18,3,0,4211280,1150201,4201140,0,0,0,0,0,0,0,0,0,0,0,0,3170200,0,0,0,0,-1041080,0,0,0,0,0,1150201,0,0,0,0,0,0,0,0,0,0,4201140,0
18,26,860.60402856674,1,0,773611.18968477,773612.236751433,0,50,2,1,1,36,3,0,2080111,0,5521252,0,0,0,0,0,0,0,0,0,0,0,0,0,0,0,0,0,2080111,0,0,0,0,0,0,0,0,0,0,0,3170040,0,0,0,0,1180181,-1171031
18,27,1394.9727055151,1,0,773614.201512741,773615.248564006,0,50,2,1,1,1,7,2151241,4071010,4081111,8251210,-1020190,0,0,0,0,0,0,1131051,0,4071010,0,0,0,0,0,0,0,0,0,0,1071090,0,0,0,0,3010021,0,3200050,0,0,0,0,2030090,3021070,0,0
18,28,1605.04671069793,0,0,773617.672137027,773618.719199841,0,50,2,1,0,2,7,9281351,8401302,3242191,0,0,-2121021,0,4070180,0,0,0,3090150,0,0,0,0,2121050,0,0,2170111,0,4110141,0,0,0,0,2151141,0,0,1091050,0,0,0,0,0,0,0,0,0,0
18,29,561.598694534041,1,0,773621.389834444,773622.436901492,0,50,2,1,1,8,7,8211180,6142311,3080171,8320161,0,0,0,0,0,0,4181100,-4030080,0,0,0,3061201,0,0,0,0,0,3081110,0,0,0,0,3080171,0,0,0,0,0,4100081,1140070,0,0,0,3080010,0,0
18,30,630.380319198594,0,0,773624.142825987,773625.1898888,0,50,2,1,0,14,7,5102131,11290362,10330361,0,0,1041021,4061110,0,0,0,0,0,0,0,4140031,0,4120141,-3030190,0,0,0,0,0,0,3200130,0,3090141,0,0,0,4040090,0,0,0,0,0,0,0,0,0
18,31,408.958391053602,1,0,773626.978160997,773628.02521996,0,50,2,0,1,10,3,0,2182161,0,7160042,0,0,0,0,0,0,0,0,0,-1081131,0,0,1101030,0,0,0,0,0,0,0,0,0,0,0,0,0,0,0,0,0,0,0,3020011,0,4140031,0
18,32,1263.31978454255,0,1,773629.495844631,773630.542912064,0,50,2,1,1,20,3,4101121,0,6282302,3121011,0,0,0,4101121,0,0,0,0,0,0,0,0,0,0,0,0,0,0,0,-3171201,0,0,0,3111101,0,0,0,3121011,0,0,0,0,0,0,0,0
18,33,817.489004810341,1,0,773632.907665904,773633.954727948,0,50,2,0,1,29,7,5241161,5140101,0,11353481,0,3131040,0,2110121,0,0,0,0,0,0,0,0,0,4020080,0,1120021,0,0,0,0,0,0,0,0,0,0,0,0,-1051160,0,2151141,0,4110120,0,0,4041060
18,34,498.009443283081,1,0,773635.790074506,773636.837127311,0,50,2,0,1,15,3,3201030,3280290,4081110,0,0,0,0,0,0,0,3201030,0,0,1200170,0,0,0,0,-2080120,0,0,0,0,0,4081110,0,0,0,0,0,0,0,0,0,0,0,0,0,0,0
18,35,1943.76669521444,0,0,773638.484213761,773639.531335474,0,50,2,0,0,33,3,0,0,0,6383273,0,0,0,0,0,0,0,0,0,0,0,0,0,0,0,0,0,0,0,0,0,0,0,0,0,0,0,0,0,2061061,1070051,2181111,-1071050,0,0,0
18,36,645.746095106006,0,0,773642.578404062,773643.625463411,0,50,2,1,0,21,7,5330272,2180161,3131220,6270431,0,3140171,0,0,0,0,0,0,2190101,2180161,0,0,0,0,0,0,0,0,0,0,-2010140,0,0,0,1121080,0,0,0,2040131,2110130,0,0,0,0,2120170,0
18,37,838.322787312791,0,0,773645.413799126,773646.460803425,0,50,2,1,0,27,7,6191272,4180032,3171041,9232323,0,0,2040081,0,0,4151191,0,0,0,0,0,0,0,2010021,0,0,2170011,0,0,0,0,0,0,0,0,0,-3171041,4021101,0,2071171,0,0,0,3140051,0,0
18,38,515.945998369716,0,0,773648.437301083,773649.48437737,0,50,2,1,0,34,3,3201031,3131170,0,7102280,0,0,0,0,3201031,0,0,0,0,0,0,3131170,0,0,0,0,0,0,0,0,0,0,0,0,0,0,0,0,0,3081130,0,0,0,-4021150,0,0
18,39,1224.60180195048,0,0,773651.178533948,773652.225593297,0,50,2,0,0,19,3,6282291,0,3181142,0,0,0,0,4111161,0,0,0,0,2171130,0,0,0,0,0,0,0,0,0,-1150011,0,0,0,2031131,0,0,0,0,0,0,0,0,0,0,0,0,0
18,40,1465.49243561458,1,0,773654.637445367,773655.684480848,0,50,2,0,1,17,7,4151031,9290481,3212132,5151092,0,0,0,0,0,4151031,0,0,0,0,0,0,4030200,3120091,0,0,-2140190,0,0,0,2111071,0,0,0,1101061,0,0,0,4100071,0,0,1051021,0,0,0,0
18,41,505.741028930061,0,0,773658.2962878,773659.343351384,0,50,2,1,0,22,3,2130041,4111041,4112332,0,0,0,0,0,0,2130041,0,0,0,0,0,4111041,0,0,0,0,0,0,0,0,0,-2031191,0,0,0,0,2081141,0,0,0,0,0,0,0,0,0
18,42,1002.07811128348,0,0,773661.061087681,773662.108099295,0,50,2,0,0,9,7,11554594,2131150,0,8362261,3181161,0,3151181,0,0,0,0,3051201,-2171051,0,0,0,0,0,0,0,0,2131150,0,0,0,0,0,0,0,0,0,0,3151030,0,0,3060170,0,0,0,2151061
18,43,1285.04821972456,0,0,773664.119895699,773665.166969291,0,50,2,0,0,6,3,1151110,0,4150011,3310281,0,0,0,0,0,-1151110,0,0,0,0,0,0,0,0,0,0,0,0,0,0,0,0,0,0,0,4150011,0,0,0,0,0,2120111,0,0,1190170,0
18,44,1021.37281396426,1,0,773667.590540773,773668.637608206,0,50,2,0,1,28,7,6280181,7250282,11160273,2011131,0,4100010,0,0,0,2180171,0,0,0,3080111,0,4170171,0,0,0,0,0,0,4040061,3020061,0,0,0,0,4100151,0,0,-2011131,0,0,0,0,0,0,0,0
18,45,677.71799582988,0,0,773670.708244965,773671.755302774,0,50,2,0,0,16,7,2060101,7282422,2030160,11251492,0,0,0,0,0,0,0,0,2060101,0,4031140,0,0,1120191,0,-2131091,0,0,0,0,0,0,0,2030160,0,0,0,4120161,0,0,3041151,0,4090180,0,0,0
18,46,1505.58511912823,1,0,773673.55540987,773674.602409935,0,50,2,1,1,7,3,7231300,0,0,1061031,0,2061050,0,4130170,0,0,-1040080,0,0,0,0,0,0,0,0,0,0,0,0,0,0,0,0,0,0,0,0,0,0,0,0,1061031,0,0,0,0
18,47,1132.68239446916,1,0,773677.214243449,773678.261291634,0,50,2,0,1,23,7,9251481,4161362,4080050,4281111,0,4020140,0,0,0,0,2060180,3171161,0,0,0,3031181,0,0,0,0,1130181,0,0,0,0,0,-4080050,0,0,0,0,0,0,3110010,1171101,0,0,0,0,0
18,48,1188.86881798971,0,0,773680.520210444,773681.567219363,0,50,2,0,0,25,3,5241271,2191171,2120150,0,0,2051151,0,0,0,0,0,3190120,0,0,0,0,0,2191171,0,0,0,0,0,0,0,0,0,0,-2120150,0,0,0,0,0,0,0,0,0,0,0
18,49,1084.34574026614,0,1,773690.155649856,773691.202663394,0,50,3,1,1,1,7,2151241,4071010,4081111,8251210,-1020190,0,0,0,0,0,0,1131051,0,4071010,0,0,0,0,0,0,0,0,0,0,1071090,0,0,0,0,3010021,0,3200050,0,0,0,0,2030090,3021070,0,0
18,50,1005.35722135101,1,0,773693.308578496,773694.355648239,0,50,3,1,1,20,3,4101121,0,6282302,3121011,0,0,0,4101121,0,0,0,0,0,0,0,0,0,0,0,0,0,0,0,-3171201,0,0,0,3111101,0,0,0,3121011,0,0,0,0,0,0,0,0
18,51,434.827482327819,1,0,773696.438181877,773697.485109184,0,50,3,0,1,16,3,3110190,7131372,2200131,0,0,0,0,0,3110190,0,0,0,0,0,0,0,3081171,0,0,-4050201,0,0,2200131,0,0,0,0,0,0,0,0,0,0,0,0,0,0,0,0,0
18,52,439.703031559475,1,0,773699.09697157,773700.144030149,0,50,3,0,1,15,7,3190081,7271262,5331241,8151271,0,0,0,0,0,0,3190081,0,0,0,0,0,4060071,0,-1140150,0,2071041,0,0,0,0,0,3160100,2171141,0,0,0,0,4050180,0,4101091,0,0,0,0,0
18,53,964.408381376415,1,0,773701.77932212,773702.826362221,0,50,3,0,1,25,7,7341080,4171070,6593512,2111121,0,3170010,4171070,0,0,0,0,0,0,0,0,0,0,4171070,0,0,0,0,2191100,0,2191200,0,0,0,-1200021,0,1011191,0,0,0,0,0,0,0,2111121,0
18,54,1237.73364070803,0,0,773704.838165555,773705.885240302,0,50,3,1,0,18,3,0,4211280,1150201,4201140,0,0,0,0,0,0,0,0,0,0,0,0,3170200,0,0,0,0,-1041080,0,0,0,0,0,1150201,0,0,0,0,0,0,0,0,0,0,4201140,0
18,55,1214.83376494143,0,0,773708.249991832,773709.29705888,0,50,3,1,0,36,3,0,2080111,0,5521252,0,0,0,0,0,0,0,0,0,0,0,0,0,0,0,0,0,2080111,0,0,0,0,0,0,0,0,0,0,0,3170040,0,0,0,0,1180181,-1171031
18,56,909.534679842182,1,0,773711.544155108,773712.591226006,0,50,3,1,1,27,7,6191272,4180032,3171041,9232323,0,0,2040081,0,0,4151191,0,0,0,0,0,0,0,2010021,0,0,2170011,0,0,0,0,0,0,0,0,0,-3171041,4021101,0,2071171,0,0,0,3140051,0,0
18,57,780.973007320426,1,0,773714.673612973,773715.720678097,0,50,3,0,1,28,7,4152180,5241100,1091090,5321310,0,0,0,0,0,3131110,0,0,1021070,0,0,0,0,0,1110020,0,4131080,0,0,0,0,0,0,0,0,1091090,0,-1151060,1150180,0,0,3020070,0,0,0,0
18,58,614.314681501128,0,0,773717.591303383,773718.638375051,0,50,3,0,0,10,3,7341041,3040261,0,0,0,0,0,0,4161031,0,3180010,0,0,-2030200,1010061,0,0,0,0,0,0,0,0,0,0,0,0,0,0,0,0,0,0,0,0,0,0,0,0,0
18,59,1153.46536203288,1,0,773720.403114493,773721.450188471,0,50,3,0,1,29,7,2240171,2120101,3110211,6422301,0,0,0,0,0,1040031,0,1200140,0,2120101,0,0,0,0,0,0,0,0,0,0,0,0,0,1040141,0,2070070,0,1131160,-2091031,0,0,0,0,3200110,0,0
18,60,968.005085480399,0,0,773723.673754254,773724.720822842,0,50,3,0,0,19,3,0,0,7170141,5171091,0,0,0,0,0,0,0,0,0,0,0,0,0,0,0,0,0,0,-3070050,0,0,0,4100091,0,0,0,0,2090041,0,0,0,0,0,3081050,0,0
18,61,763.765571056865,1,0,773726.814964638,773727.862035151,0,50,3,0,1,9,7,6271251,7232261,4140021,8162363,4080081,0,0,0,0,0,0,0,-2191170,0,4131160,0,0,0,0,0,3101101,0,0,0,0,0,0,0,0,4140021,0,1121081,0,0,3011101,0,0,4030181,0,0
18,62,822.455405257642,0,0,773729.662079884,773730.709150011,0,50,3,0,0,17,3,0,7072360,3190081,3051201,0,0,0,0,0,0,0,0,0,0,0,0,0,0,4031200,0,-3041160,0,0,0,0,3190081,0,0,0,0,0,0,0,0,0,0,0,0,3051201,0
18,63,1448.35313770454,0,0,773732.662121074,773733.709190047,0,50,3,0,0,6,7,10502463,7091201,1191071,7301241,0,0,0,3201151,0,-3151201,0,0,4150111,0,0,0,0,0,0,3031131,4060070,0,0,0,0,0,0,0,0,0,1191071,0,0,0,3131110,0,4170131,0,0,0
18,64,737.187379039824,0,0,773736.297467325,773737.344533218,0,50,3,1,0,7,3,7231300,0,0,1061031,0,2061050,0,4130170,0,0,-1040080,0,0,0,0,0,0,0,0,0,0,0,0,0,0,0,0,0,0,0,0,0,0,0,0,1061031,0,0,0,0
18,65,606.37791082263,0,0,773739.121040577,773740.168118019,0,50,3,1,0,8,7,8211180,6142311,3080171,8320161,0,0,0,0,0,0,4181100,-4030080,0,0,0,3061201,0,0,0,0,0,3081110,0,0,0,0,3080171,0,0,0,0,0,4100081,1140070,0,0,0,3080010,0,0
18,66,768.694630241953,0,0,773741.791676335,773742.838746463,0,50,3,1,0,2,7,9281351,8401302,3242191,0,0,-2121021,0,4070180,0,0,0,3090150,0,0,0,0,2121050,0,0,2170111,0,4110141,0,0,0,0,2151141,0,0,1091050,0,0,0,0,0,0,0,0,0,0
18,67,888.207760523073,1,0,773744.768187082,773745.815263369,0,50,3,0,1,33,3,0,3060011,8211362,4140020,0,0,0,0,0,0,0,0,0,0,0,0,0,0,0,0,0,3060011,0,0,0,0,0,4091191,4120171,0,0,0,0,0,0,0,-4140020,0,0,0
18,68,431.116444407962,0,0,773747.768219418,773748.815328427,0,50,3,1,0,34,3,3201031,3131170,0,7102280,0,0,0,0,3201031,0,0,0,0,0,0,3131170,0,0,0,0,0,0,0,0,0,0,0,0,0,0,0,0,0,3081130,0,0,0,-4021150,0,0
18,69,398.76651042141,0,0,773750.438907916,773751.485935698,0,50,3,1,0,21,7,5330272,2180161,3131220,6270431,0,3140171,0,0,0,0,0,0,2190101,2180161,0,0,0,0,0,0,0,0,0,0,-2010140,0,0,0,1121080,0,0,0,2040131,2110130,0,0,0,0,2120170,0
18,70,778.36950623896,0,0,773753.074189878,773754.12126424,0,50,3,0,0,23,3,0,7401251,4120110,4141100,0,0,0,0,0,0,0,0,0,0,0,0,3201200,0,0,4200051,0,0,0,0,0,0,-4120110,0,0,0,0,0,0,0,0,0,0,0,0,4141100
18,71,479.973952751607,1,0,773755.909535282,773756.956638131,0,50,3,1,1,22,3,2130041,4111041,4112332,0,0,0,0,0,0,2130041,0,0,0,0,0,4111041,0,0,0,0,0,0,0,0,0,-2031191,0,0,0,0,2081141,0,0,0,0,0,0,0,0,0
18,72,778.30329281278,0,0,773758.438985294,773759.486048492,0,50,3,1,0,14,7,5102131,11290362,10330361,0,0,1041021,4061110,0,0,0,0,0,0,0,4140031,0,4120141,-3030190,0,0,0,0,0,0,3200130,0,3090141,0,0,0,4040090,0,0,0,0,0,0,0,0,0
18,73,1027.53182803281,1,0,773766.203804038,773767.25088148,0,50,4,1,1,36,3,0,2080111,0,5521252,0,0,0,0,0,0,0,0,0,0,0,0,0,0,0,0,0,2080111,0,0,0,0,0,0,0,0,0,0,0,3170040,0,0,0,0,1180181,-1171031
18,74,877.602045191452,1,0,773769.40386132,773770.450930293,0,50,4,1,1,18,3,0,4211280,1150201,4201140,0,0,0,0,0,0,0,0,0,0,0,0,3170200,0,0,0,0,-1041080,0,0,0,0,0,1150201,0,0,0,0,0,0,0,0,0,0,4201140,0
18,75,368.050741963089,1,0,773772.392144988,773773.439217811,0,50,4,1,1,22,3,2130041,4111041,4112332,0,0,0,0,0,0,2130041,0,0,0,0,0,4111041,0,0,0,0,0,0,0,0,0,-2031191,0,0,0,0,2081141,0,0,0,0,0,0,0,0,0
18,76,981.800599489361,0,0,773774.827473223,773775.874537576,0,50,4,0,0,6,3,2131161,7190160,0,4200101,0,0,0,0,0,-2131161,0,0,0,4050050,0,3140110,0,0,0,0,0,0,0,0,0,0,0,0,0,0,0,0,0,0,0,0,0,0,0,4200101
18,77,718.050895957276,1,0,773777.992210201,773779.039307661,0,50,4,0,1,9,3,7330241,2071141,2060130,0,0,0,0,0,0,0,0,3160100,-4170141,0,2071141,0,0,0,0,0,0,0,0,0,0,0,2060130,0,0,0,0,0,0,0,0,0,0,0,0,0
18,78,778.238234110177,1,0,773780.945205517,773781.99227372,0,50,4,1,1,2,7,9281351,8401302,3242191,0,0,-2121021,0,4070180,0,0,0,3090150,0,0,0,0,2121050,0,0,2170111,0,4110141,0,0,0,0,2151141,0,0,1091050,0,0,0,0,0,0,0,0,0,0
18,79,484.439517138526,1,0,773783.968779847,773785.015856519,0,50,4,0,1,10,3,5182191,7200251,0,0,0,4071091,0,0,0,0,1111100,0,0,-3130150,0,0,0,0,0,0,0,4070101,0,0,0,0,0,0,0,0,0,0,0,0,0,0,0,0,0,0
18,80,659.191678278148,0,0,773786.651177747,773787.69824903,0,50,4,0,0,23,3,0,4212111,3181180,3120050,0,0,0,0,0,0,0,0,0,0,0,0,0,0,2121021,0,2091090,0,0,0,0,0,-3181180,0,0,0,0,0,0,0,0,0,0,0,3120050,0
18,81,612.943830317818,0,0,773789.404157741,773790.451239418,0,50,4,0,0,17,7,5181092,4131180,6322281,3210181,3131011,0,0,2050081,0,0,0,0,0,0,0,0,0,0,0,0,-4131180,0,2091140,0,0,0,1030090,3201051,0,0,0,0,0,0,0,1010100,0,0,0,2200081
18,82,1386.40998583287,1,0,773792.07478888,773793.121857853,0,50,4,0,1,33,7,3190190,5260312,5122241,11320210,0,0,0,0,3190190,0,0,0,0,0,2130151,3130161,0,0,0,0,0,0,0,0,0,2011201,0,0,0,3111040,0,0,0,3100140,0,0,-4100060,0,4120010,0
18,83,1380.9847101802,1,0,773795.557196481,773796.604261989,0,50,4,0,1,28,7,3120271,6141162,2050011,10372421,0,1010171,0,0,0,0,2110100,0,0,0,0,0,0,2030051,0,0,4111111,0,0,0,0,0,0,0,2050011,0,0,-4100190,0,0,0,3201160,3071071,0,0,0
18,84,1397.42915087845,0,0,773799.13372663,773800.180789828,0,50,4,1,0,14,7,5102131,11290362,10330361,0,0,1041021,4061110,0,0,0,0,0,0,0,4140031,0,4120141,-3030190,0,0,0,0,0,0,3200130,0,3090141,0,0,0,4040090,0,0,0,0,0,0,0,0,0
18,85,1267.35303609166,1,0,773802.639656591,773803.686727104,0,50,4,1,1,27,7,6191272,4180032,3171041,9232323,0,0,2040081,0,0,4151191,0,0,0,0,0,0,0,2010021,0,0,2170011,0,0,0,0,0,0,0,0,0,-3171041,4021101,0,2071171,0,0,0,3140051,0,0
18,86,1241.15210724995,1,0,773805.980887686,773807.027957043,0,50,4,0,1,16,3,3141151,5302271,2150091,0,0,0,0,0,3141151,0,0,0,0,0,0,0,0,2101160,0,-3201111,0,0,0,0,0,0,0,0,0,0,2150091,0,0,0,0,0,0,0,0,0
18,87,871.424167882651,0,0,773809.298578712,773810.345684641,0,50,4,1,0,7,3,7231300,0,0,1061031,0,2061050,0,4130170,0,0,-1040080,0,0,0,0,0,0,0,0,0,0,0,0,0,0,0,0,0,0,0,0,0,0,0,0,1061031,0,0,0,0
18,88,590.858149924316,0,0,773812.310392824,773813.357458332,0,50,4,1,0,20,3,4101121,0,6282302,3121011,0,0,0,4101121,0,0,0,0,0,0,0,0,0,0,0,0,0,0,0,-3171201,0,0,0,3111101,0,0,0,3121011,0,0,0,0,0,0,0,0
18,89,1748.68466740008,1,0,773815.004546707,773816.051617605,0,50,4,0,1,19,7,6362373,5072351,6320341,4091170,1101121,0,3190121,0,0,2071131,0,0,0,0,0,3011171,2061180,0,0,0,0,0,-2200151,0,0,4120190,0,0,0,0,0,0,4091170,0,0,0,0,0,0,0
18,90,656.889987760223,0,0,773818.92226368,773819.969335733,0,50,4,1,0,8,7,8211180,6142311,3080171,8320161,0,0,0,0,0,0,4181100,-4030080,0,0,0,3061201,0,0,0,0,0,3081110,0,0,0,0,3080171,0,0,0,0,0,4100081,1140070,0,0,0,3080010,0,0
18,91,1091.02098899893,0,0,773821.816407862,773822.863495698,0,50,4,1,0,34,3,3201031,3131170,0,7102280,0,0,0,0,3201031,0,0,0,0,0,0,3131170,0,0,0,0,0,0,0,0,0,0,0,0,0,0,0,0,0,3081130,0,0,0,-4021150,0,0
18,92,849.671480129473,0,0,773825.028245765,773826.075340531,0,50,4,0,0,29,7,4381060,4151111,7242312,2311121,0,3190010,0,0,0,0,1191050,0,0,0,0,4151111,0,0,0,0,0,0,0,0,3170060,0,1021051,0,0,3051201,0,0,-1131060,0,0,0,0,1180061,0,0
18,93,2142.77649472933,0,0,773828.087100363,773829.134208603,0,50,4,0,0,25,7,4161070,10161241,3140251,4182090,0,0,0,0,4161070,0,0,0,0,0,4071070,0,0,3040080,0,0,0,3050091,0,0,0,0,2080111,0,-1060140,0,0,3121070,0,0,0,0,0,1061020,0,0
18,94,1525.3325374797,0,0,773832.41657586,773833.463648682,0,50,4,1,0,1,7,2151241,4071010,4081111,8251210,-1020190,0,0,0,0,0,0,1131051,0,4071010,0,0,0,0,0,0,0,0,0,0,1071090,0,0,0,0,3010021,0,3200050,0,0,0,0,2030090,3021070,0,0
18,95,456.560536986217,0,0,773836.122523068,773837.169580107,0,50,4,0,0,15,3,6341322,5112200,0,0,0,4171201,0,0,0,0,0,2170121,0,0,3051090,0,0,0,-2061110,0,0,0,0,0,0,0,0,0,0,0,0,0,0,0,0,0,0,0,0,0
18,96,623.747416189872,0,0,773838.699027809,773839.746138743,0,50,4,1,0,21,7,5330272,2180161,3131220,6270431,0,3140171,0,0,0,0,0,0,2190101,2180161,0,0,0,0,0,0,0,0,0,0,-2010140,0,0,0,1121080,0,0,0,2040131,2110130,0,0,0,0,2120170,0
18,97,570.097125368193,0,0,773844.875585059,773845.922665196,0,50,5,1,0,34,3,3201031,3131170,0,7102280,0,0,0,0,3201031,0,0,0,0,0,0,3131170,0,0,0,0,0,0,0,0,0,0,0,0,0,0,0,0,0,3081130,0,0,0,-4021150,0,0
18,98,723.029615241103,1,0,773847.510923225,773848.557992198,0,50,5,1,1,7,3,7231300,0,0,1061031,0,2061050,0,4130170,0,0,-1040080,0,0,0,0,0,0,0,0,0,0,0,0,0,0,0,0,0,0,0,0,0,0,0,0,1061031,0,0,0,0
18,99,1308.04703105241,0,0,773850.310971423,773851.358066958,0,50,5,0,0,23,7,0,12642501,8373102,2100030,0,0,0,0,0,0,0,0,0,4191121,0,1101100,0,4200080,3150200,0,0,0,2181030,0,0,0,-4181051,2011021,0,0,0,0,0,0,0,2100030,0,0,0,0
18,100,2356.20968218427,1,0,773853.87572865,773854.922801857,0,50,5,0,1,10,7,1151160,9574482,2081060,5281112,0,0,0,0,0,1151160,0,0,0,-4151100,0,0,0,0,0,2181191,1051021,2191170,0,0,0,0,2081060,0,0,0,0,1080021,0,0,0,0,0,0,0,4201091
18,101,773.639472783543,1,0,773858.452336946,773859.499337011,0,50,5,0,1,16,3,1160100,2100010,3050060,4070040,1160100,0,0,0,0,0,0,0,0,0,0,0,0,0,0,-2100010,0,0,0,0,3050060,0,0,0,0,0,0,0,0,4070040,0,0,0,0,0,0
18,102,1075.1693904167,1,0,773861.44055594,773862.487618754,0,50,5,1,1,18,3,0,4211280,1150201,4201140,0,0,0,0,0,0,0,0,0,0,0,0,3170200,0,0,0,0,-1041080,0,0,0,0,0,1150201,0,0,0,0,0,0,0,0,0,0,4201140,0
18,103,1585.68887412548,1,0,773864.711189927,773865.758255436,0,50,5,1,1,8,7,8211180,6142311,3080171,8320161,0,0,0,0,0,0,4181100,-4030080,0,0,0,3061201,0,0,0,0,0,3081110,0,0,0,0,3080171,0,0,0,0,0,4100081,1140070,0,0,0,3080010,0,0
18,104,1962.1432623826,0,0,773868.546539181,773869.593614698,0,50,5,1,0,27,7,6191272,4180032,3171041,9232323,0,0,2040081,0,0,4151191,0,0,0,0,0,0,0,2010021,0,0,2170011,0,0,0,0,0,0,0,0,0,-3171041,4021101,0,2071171,0,0,0,3140051,0,0
18,105,490.678603411652,0,0,773872.676018219,773873.723084112,0,50,5,1,0,21,7,5330272,2180161,3131220,6270431,0,3140171,0,0,0,0,0,0,2190101,2180161,0,0,0,0,0,0,0,0,0,0,-2010140,0,0,0,1121080,0,0,0,2040131,2110130,0,0,0,0,2120170,0
18,106,1030.44637863059,0,0,773875.417285346,773876.464314283,0,50,5,1,0,2,7,9281351,8401302,3242191,0,0,-2121021,0,4070180,0,0,0,3090150,0,0,0,0,2121050,0,0,2170111,0,4110141,0,0,0,0,2151141,0,0,1091050,0,0,0,0,0,0,0,0,0,0
18,107,2463.21807743516,0,0,773878.664340383,773879.711701927,0,50,5,0,0,33,7,5151191,4091020,1101110,10481324,4050010,0,0,0,0,1101181,0,0,0,0,0,0,0,0,0,0,0,4091020,0,0,0,0,0,0,1101110,0,0,0,2130131,0,4130091,0,-1201041,0,3020061,0
18,108,1258.91003978904,0,0,773883.346769465,773884.393861151,0,50,5,0,0,6,3,1030120,0,8331142,3080011,0,0,0,0,0,-1030120,0,0,0,0,0,0,0,0,0,0,0,0,0,0,0,0,0,0,4131041,0,4200101,0,0,0,0,0,3080011,0,0,0
18,109,1035.59563634917,0,0,773886.8409804,773887.888003177,0,50,5,0,0,28,3,4090041,4231281,0,3031020,4090041,0,0,0,0,0,0,0,0,0,0,3090171,1141110,0,0,0,0,0,0,0,0,0,0,0,0,0,0,-3031020,0,0,0,0,0,0,0,0
18,110,779.925524606369,0,0,773890.111573196,773891.158744184,0,50,5,0,0,17,3,7282101,1151180,0,4181131,0,4151061,0,0,0,0,3131040,0,0,0,0,0,0,0,0,0,-1151180,0,0,0,0,0,0,0,0,0,0,0,0,0,0,0,0,0,0,4181131
18,111,1494.09937974997,1,0,773892.970440575,773894.017510318,0,50,5,1,1,20,3,4101121,0,6282302,3121011,0,0,0,4101121,0,0,0,0,0,0,0,0,0,0,0,0,0,0,0,-3171201,0,0,0,3111101,0,0,0,3121011,0,0,0,0,0,0,0,0
18,112,1174.33148121927,1,0,773896.535194722,773897.582271395,0,50,5,1,1,36,3,0,2080111,0,5521252,0,0,0,0,0,0,0,0,0,0,0,0,0,0,0,0,0,2080111,0,0,0,0,0,0,0,0,0,0,0,3170040,0,0,0,0,1180181,-1171031
18,113,1343.65836670622,0,0,773899.852894218,773900.899963961,0,50,5,0,0,9,7,16482300,6061212,8371271,0,0,0,0,0,4131020,4100070,0,4160030,-4091180,0,0,3040121,3021091,0,0,0,0,0,0,0,0,0,0,4180101,4191170,0,0,0,0,0,0,0,0,0,0,0
18,114,851.264069671743,1,0,773903.441188434,773904.488254327,0,50,5,0,1,29,7,4201050,7061022,3241310,9541440,0,0,0,0,0,0,4201050,0,0,0,0,0,4021011,0,0,0,0,3040011,0,0,0,1071170,2170140,0,0,0,0,3160180,-4190090,0,0,0,0,0,0,2191170
18,115,397.447629016824,1,0,773906.39417374,773907.441260037,0,50,5,0,1,15,3,2190051,3060160,6172220,0,0,0,0,0,2190051,0,0,0,0,0,0,0,0,0,-3060160,0,0,0,0,0,0,0,0,0,4061050,2111170,0,0,0,0,0,0,0,0,0,0
18,116,905.88485088665,0,0,773908.864803416,773909.911871234,0,50,5,1,0,14,7,5102131,11290362,10330361,0,0,1041021,4061110,0,0,0,0,0,0,0,4140031,0,4120141,-3030190,0,0,0,0,0,0,3200130,0,3090141,0,0,0,4040090,0,0,0,0,0,0,0,0,0
18,117,1298.49264805671,0,0,773911.900133344,773912.947211556,0,50,5,1,0,1,7,2151241,4071010,4081111,8251210,-1020190,0,0,0,0,0,0,1131051,0,4071010,0,0,0,0,0,0,0,0,0,0,1071090,0,0,0,0,3010021,0,3200050,0,0,0,0,2030090,3021070,0,0
18,118,902.507190476172,0,0,773915.253130046,773916.300199019,0,50,5,0,0,25,3,2101040,0,5482411,0,0,0,0,2101040,0,0,0,0,0,0,0,0,0,0,0,0,0,0,0,0,3111111,0,0,1171140,-1200160,0,0,0,0,0,0,0,0,0,0,0
18,119,637.208782951348,1,0,773918.300289485,773919.347303408,0,50,5,1,1,22,3,2130041,4111041,4112332,0,0,0,0,0,0,2130041,0,0,0,0,0,4111041,0,0,0,0,0,0,0,0,0,-2031191,0,0,0,0,2081141,0,0,0,0,0,0,0,0,0
18,120,936.18562980555,1,0,773920.994397173,773922.041463451,0,50,5,0,1,19,7,2081111,0,12693343,4112340,0,0,0,0,0,0,0,2081111,0,0,0,0,0,0,0,0,0,0,-2041180,0,4150041,3181030,1140021,0,0,0,2181071,3061160,0,0,0,1051180,0,0,0,0
18,121,601.530078682117,1,0,773927.22981364,773928.276851816,0,50,6,1,1,14,7,5102131,11290362,10330361,0,0,1041021,4061110,0,0,0,0,0,0,0,4140031,0,4120141,-3030190,0,0,0,0,0,0,3200130,0,3090141,0,0,0,4040090,0,0,0,0,0,0,0,0,0
18,122,1612.60698805563,0,0,773930.076885,773931.123955128,0,50,6,0,0,23,7,2120030,5060221,11393372,2021071,0,0,0,0,0,0,0,2120030,0,0,3050080,0,0,0,0,0,0,2010141,1080100,0,4161111,0,-3061091,0,0,0,3091070,0,0,0,0,0,0,2021071,0,0
18,123,887.108692666516,1,0,773933.865176059,773934.912242338,0,50,6,1,1,36,3,0,2080111,0,5521252,0,0,0,0,0,0,0,0,0,0,0,0,0,0,0,0,0,2080111,0,0,0,0,0,0,0,0,0,0,0,3170040,0,0,0,0,1180181,-1171031
18,124,1223.41265296564,0,0,773936.876984782,773937.92405799,0,50,6,0,0,19,3,5232191,0,6232110,0,0,0,0,0,0,0,1041080,4191111,0,0,0,0,0,0,0,0,0,0,-3151010,0,0,0,3081100,0,0,0,0,0,0,0,0,0,0,0,0,0
18,125,1332.75892504025,1,0,773940.194681583,773941.241750556,0,50,6,0,1,25,7,4362121,2070051,11252393,6120342,1161010,0,0,3201111,0,0,0,0,0,0,0,0,0,0,2070051,0,0,0,0,0,0,0,3131061,4110201,-4011131,0,0,4090181,0,0,0,0,0,0,0,2030161
18,126,1276.94129571319,0,0,773943.618266923,773944.665328966,0,50,6,0,0,16,7,4030200,9220373,4112340,3140072,0,0,0,4030200,0,0,0,0,0,4030031,0,0,0,0,0,-3060171,0,2130171,0,0,3071170,0,0,0,0,1041170,0,2080041,0,0,0,0,0,1060031,0,0
18,127,976.023853174411,0,0,773947.077165253,773948.124217672,0,50,6,1,0,20,3,4101121,0,6282302,3121011,0,0,0,4101121,0,0,0,0,0,0,0,0,0,0,0,0,0,0,0,-3171201,0,0,0,3111101,0,0,0,3121011,0,0,0,0,0,0,0,0
18,128,1159.14586768486,1,0,773950.183071501,773951.230140858,0,50,6,0,1,9,3,1011101,1100080,0,4172371,0,0,0,0,0,0,0,0,-1011101,0,0,0,0,0,1100080,0,0,0,0,0,0,0,0,0,0,0,0,0,3141201,0,1031170,0,0,0,0,0
18,129,749.631674960256,1,0,773953.512576639,773954.559601726,0,50,6,1,1,27,7,6191272,4180032,3171041,9232323,0,0,2040081,0,0,4151191,0,0,0,0,0,0,0,2010021,0,0,2170011,0,0,0,0,0,0,0,0,0,-3171041,4021101,0,2071171,0,0,0,3140051,0,0
18,130,369.691836996935,1,0,773956.371433239,773957.418475649,0,50,6,1,1,21,7,5330272,2180161,3131220,6270431,0,3140171,0,0,0,0,0,0,2190101,2180161,0,0,0,0,0,0,0,0,0,0,-2010140,0,0,0,1121080,0,0,0,2040131,2110130,0,0,0,0,2120170,0
18,131,528.571611619554,1,0,773958.912618446,773959.959684339,0,50,6,0,1,28,7,4261241,3030030,2362140,8371161,0,3150180,0,0,1111061,0,0,0,0,0,0,0,0,0,0,3030030,0,0,1161070,0,0,0,0,1201070,0,0,0,-1201041,0,4060110,0,0,3110010,0,0,0
18,132,900.440327008255,0,0,773961.653842457,773962.700902191,0,50,6,1,0,7,3,7231300,0,0,1061031,0,2061050,0,4130170,0,0,-1040080,0,0,0,0,0,0,0,0,0,0,0,0,0,0,0,0,0,0,0,0,0,0,0,0,1061031,0,0,0,0
18,133,871.15623394493,1,0,773964.65386517,773965.700944922,0,50,6,0,1,29,7,2331271,3090011,8153302,7210252,0,0,0,0,0,1180091,0,0,1151180,0,0,0,0,0,3090011,0,0,0,0,0,4081181,0,3031031,0,0,0,1041090,0,-3200171,0,0,0,0,0,4010081,0
18,134,886.691393330693,0,0,773967.677489545,773968.724524256,0,50,6,0,0,10,3,0,10220383,0,1121111,0,0,0,0,0,0,0,0,0,-2010141,0,0,4080101,0,0,4130141,0,0,0,0,0,0,0,0,0,0,0,0,0,0,1121111,0,0,0,0,0
18,135,1340.52169276401,0,0,773970.771618252,773971.818684145,0,50,6,1,0,34,3,3201031,3131170,0,7102280,0,0,0,0,3201031,0,0,0,0,0,0,3131170,0,0,0,0,0,0,0,0,0,0,0,0,0,0,0,0,0,3081130,0,0,0,-4021150,0,0
18,136,1307.39952414297,0,0,773974.324601403,773975.37167769,0,50,6,1,0,1,7,2151241,4071010,4081111,8251210,-1020190,0,0,0,0,0,0,1131051,0,4071010,0,0,0,0,0,0,0,0,0,0,1071090,0,0,0,0,3010021,0,3200050,0,0,0,0,2030090,3021070,0,0
18,137,1032.6398947509,1,1,773977.73642845,773978.783503197,0,50,6,0,0,6,3,5352061,0,2130081,2141200,0,0,0,0,0,-1171040,0,0,4181021,0,0,0,0,0,0,0,0,0,0,0,0,0,0,2130081,0,0,0,0,0,2141200,0,0,0,0,0,0
18,138,1407.6991789043,1,0,773980.924712426,773981.971785249,0,50,6,1,1,18,3,0,4211280,1150201,4201140,0,0,0,0,0,0,0,0,0,0,0,0,3170200,0,0,0,0,-1041080,0,0,0,0,0,1150201,0,0,0,0,0,0,0,0,0,0,4201140,0
18,139,1303.39822452515,1,0,773984.536537856,773985.583612989,0,50,6,1,1,2,7,9281351,8401302,3242191,0,0,-2121021,0,4070180,0,0,0,3090150,0,0,0,0,2121050,0,0,2170111,0,4110141,0,0,0,0,2151141,0,0,1091050,0,0,0,0,0,0,0,0,0,0
18,140,1040.78531498089,0,0,773987.960117807,773989.00723259,0,50,6,0,0,33,3,4121061,0,3132290,1110201,0,0,0,0,0,0,0,0,4121061,0,0,0,0,0,0,0,0,0,2061130,0,0,0,1071160,0,0,0,0,0,0,0,0,0,-1110201,0,0,0
18,141,446.122665307485,1,0,773991.066030599,773992.113114971,0,50,6,1,1,22,3,2130041,4111041,4112332,0,0,0,0,0,0,2130041,0,0,0,0,0,4111041,0,0,0,0,0,0,0,0,0,-2031191,0,0,0,0,2081141,0,0,0,0,0,0,0,0,0
18,142,405.901404330507,0,0,773993.607250453,773994.654326355,0,50,6,0,0,15,7,3051140,9500370,4332151,5211231,0,0,0,0,0,0,0,3051140,0,0,4140130,0,0,0,-2190160,0,0,3170080,2141131,0,0,0,0,2191020,0,0,0,0,0,0,4030200,1181031,0,0,0,0
18,143,1275.53849248216,1,0,773996.242597088,773997.289657592,0,50,6,1,1,8,7,8211180,6142311,3080171,8320161,0,0,0,0,0,0,4181100,-4030080,0,0,0,3061201,0,0,0,0,0,3081110,0,0,0,0,3080171,0,0,0,0,0,4100081,1140070,0,0,0,3080010,0,0
18,144,691.146640805528,1,0,773999.677931482,774000.725008154,0,50,6,0,1,17,3,4111120,4130061,2191070,1160061,0,0,0,0,4111120,0,0,0,0,0,0,0,0,0,0,0,-4130061,0,0,0,0,0,2191070,0,0,0,0,0,1160061,0,0,0,0,0,0,0
18,145,543.970109312795,1,0,774008.736898104,774009.783970542,0,50,7,0,1,15,3,1080190,4141180,3180010,4080110,0,0,0,0,0,0,0,1080190,0,0,0,0,0,0,-4141180,0,0,0,0,0,0,0,0,0,0,0,3180010,4080110,0,0,0,0,0,0,0,0
18,146,1039.42601266317,1,0,774011.360469894,774012.407536557,0,50,7,0,1,33,7,4072190,2161040,1101120,5292431,0,3051010,0,0,0,0,1021180,0,0,0,0,0,2161040,0,0,0,0,0,0,1101120,0,0,0,0,0,0,0,0,0,0,0,1150171,-1101090,1010030,0,2031140
18,147,537.51852363348,1,0,774014.513455893,774015.560522556,0,50,7,1,1,18,3,0,4211280,1150201,4201140,0,0,0,0,0,0,0,0,0,0,0,0,3170200,0,0,0,0,-1041080,0,0,0,0,0,1150201,0,0,0,0,0,0,0,0,0,0,4201140,0
18,148,946.604253258556,1,0,774017.219375769,774018.266446666,0,50,7,0,1,9,7,5211180,7300352,7373560,4011101,0,0,0,0,1030140,0,0,0,-4181040,0,0,4160161,0,0,0,3140191,0,0,0,3011180,0,0,0,0,2171190,2191190,0,0,0,0,0,0,0,0,4011101,0
18,149,544.352762051858,0,0,774020.372368313,774021.419441135,0,50,7,1,0,21,7,5330272,2180161,3131220,6270431,0,3140171,0,0,0,0,0,0,2190101,2180161,0,0,0,0,0,0,0,0,0,0,-2010140,0,0,0,1121080,0,0,0,2040131,2110130,0,0,0,0,2120170,0
18,150,1100.30281858053,0,0,774023.160699023,774024.207714871,0,50,7,1,0,36,3,0,2080111,0,5521252,0,0,0,0,0,0,0,0,0,0,0,0,0,0,0,0,0,2080111,0,0,0,0,0,0,0,0,0,0,0,3170040,0,0,0,0,1180181,-1171031
18,151,1087.25374657661,0,0,774026.513639135,774027.560700794,0,50,7,1,0,27,7,6191272,4180032,3171041,9232323,0,0,2040081,0,0,4151191,0,0,0,0,0,0,0,2010021,0,0,2170011,0,0,0,0,0,0,0,0,0,-3171041,4021101,0,2071171,0,0,0,3140051,0,0
18,152,791.75003094133,1,0,774029.654872232,774030.701980856,0,50,7,1,1,14,7,5102131,11290362,10330361,0,0,1041021,4061110,0,0,0,0,0,0,0,4140031,0,4120141,-3030190,0,0,0,0,0,0,3200130,0,3090141,0,0,0,4040090,0,0,0,0,0,0,0,0,0
18,153,911.074914503843,0,0,774032.572568801,774033.61962507,0,50,7,1,0,8,7,8211180,6142311,3080171,8320161,0,0,0,0,0,0,4181100,-4030080,0,0,0,3061201,0,0,0,0,0,3081110,0,0,0,0,3080171,0,0,0,0,0,4100081,1140070,0,0,0,3080010,0,0
18,154,1283.03486609366,0,0,774035.572624236,774036.619674346,0,50,7,0,0,10,7,8222292,6152192,9311252,0,0,0,4041131,0,0,2051150,2130011,0,0,-3111121,0,0,3041071,0,0,0,0,0,3120150,0,0,0,0,0,0,2061011,4130091,0,0,0,0,0,0,0,0,0
18,155,617.199205094948,0,0,774039.031477525,774040.078540724,0,50,7,1,0,34,3,3201031,3131170,0,7102280,0,0,0,0,3201031,0,0,0,0,0,0,3131170,0,0,0,0,0,0,0,0,0,0,0,0,0,0,0,0,0,3081130,0,0,0,-4021150,0,0
18,156,552.927030483261,1,0,774041.819750876,774042.866815999,0,50,7,0,1,29,7,5151221,0,8411231,10231441,0,3070180,0,0,0,0,2081041,0,0,0,0,0,0,0,0,0,0,0,4090040,0,0,0,0,0,1121071,3200120,0,0,-2071200,0,4010040,4150201,0,0,0,0
18,157,430.133635178208,0,0,774044.584491473,774045.631566605,0,50,7,1,0,22,3,2130041,4111041,4112332,0,0,0,0,0,0,2130041,0,0,0,0,0,4111041,0,0,0,0,0,0,0,0,0,-2031191,0,0,0,0,2081141,0,0,0,0,0,0,0,0,0
18,158,791.547155589797,1,0,774047.255121456,774048.302202363,0,50,7,0,1,25,3,1111081,3020150,4170080,0,0,1111081,0,0,0,0,0,0,0,0,0,0,0,0,0,3020150,0,0,1040040,0,0,0,0,0,-3130040,0,0,0,0,0,0,0,0,0,0,0
18,159,470.024598413147,1,0,774050.184605191,774051.231647601,0,50,7,0,1,28,3,2200070,3060091,1011131,1181011,0,0,2200070,0,0,0,0,0,0,0,0,0,0,0,0,3060091,0,0,1011131,0,0,0,0,0,0,0,0,-1181011,0,0,0,0,0,0,0,0
18,160,897.165836533532,0,0,774052.843447624,774053.890517752,0,50,7,1,0,7,3,7231300,0,0,1061031,0,2061050,0,4130170,0,0,-1040080,0,0,0,0,0,0,0,0,0,0,0,0,0,0,0,0,0,0,0,0,0,0,0,0,1061031,0,0,0,0
18,161,1306.43211351708,0,0,774055.961146427,774057.008218864,0,50,7,0,0,23,7,8230311,4190172,9410373,4171190,0,4030200,0,4200111,0,0,0,0,0,0,0,1090011,0,0,0,0,0,3100161,3030151,0,0,0,-4200171,0,0,0,2180051,0,0,0,0,0,0,0,0,4171190
18,162,1349.85433728434,0,0,774059.525902884,774060.572968392,0,50,7,1,0,2,7,9281351,8401302,3242191,0,0,-2121021,0,4070180,0,0,0,3090150,0,0,0,0,2121050,0,0,2170111,0,4110141,0,0,0,0,2151141,0,0,1091050,0,0,0,0,0,0,0,0,0,0
18,163,430.330351111479,0,0,774063.114195175,774064.161264533,0,50,7,0,0,16,3,5300180,3190040,1201160,0,0,0,3200130,0,2100050,0,0,0,0,0,0,0,0,0,0,-3190040,0,0,0,0,0,0,1201160,0,0,0,0,0,0,0,0,0,0,0,0,0
18,164,1204.67037137132,1,0,774065.737767349,774066.784886368,0,50,7,0,1,19,7,6111161,3060031,10591560,4021150,0,0,4020040,0,0,0,0,2091121,0,0,0,0,0,3060031,0,0,0,0,-4081190,1190180,0,3170060,0,0,2150130,0,0,0,0,0,0,0,0,0,0,4021150
18,165,427.627529716119,1,0,774069.090746343,774070.13787152,0,50,7,1,1,20,3,4101121,0,6282302,3121011,0,0,0,4101121,0,0,0,0,0,0,0,0,0,0,0,0,0,0,0,-3171201,0,0,0,3111101,0,0,0,3121011,0,0,0,0,0,0,0,0
18,166,801.727102487348,1,0,774071.643741813,774072.690847742,0,50,7,0,1,17,3,0,5231081,3011131,1081181,0,0,0,0,0,0,0,0,0,0,0,0,2030021,0,0,0,-3201060,0,0,3011131,0,0,0,0,0,0,0,0,0,0,0,0,1081181,0,0,0
18,167,951.173757552169,1,0,774074.561433763,774075.608490417,0,50,7,0,1,6,3,6401232,0,2191130,0,0,0,0,1091030,0,-4200091,0,1110111,0,0,0,0,0,0,0,0,0,0,0,2191130,0,0,0,0,0,0,0,0,0,0,0,0,0,0,0,0
18,168,1388.13269289676,0,0,774077.667362723,774078.714411678,0,50,7,1,0,1,7,2151241,4071010,4081111,8251210,-1020190,0,0,0,0,0,0,1131051,0,4071010,0,0,0,0,0,0,0,0,0,0,1071090,0,0,0,0,3010021,0,3200050,0,0,0,0,2030090,3021070,0,0
18,169,823.759658029303,1,0,774084.314503838,774085.361642489,0,50,8,0,1,23,7,2030091,9371462,4291240,7150112,0,0,0,0,0,0,2030091,0,0,0,0,0,4101121,3180181,0,0,2090160,0,0,0,3130130,0,-1161110,0,0,0,0,3080051,0,0,0,0,0,0,0,4070061
18,170,567.427025875077,0,0,774087.291049231,774088.338092412,0,50,8,0,0,17,3,1191091,4211151,0,2110161,0,0,0,0,0,0,1191091,0,0,0,0,0,0,1071010,0,0,-3140141,0,0,0,0,0,0,0,0,0,0,2110161,0,0,0,0,0,0,0,0
18,171,893.625721917488,0,0,774090.055767115,774091.102848022,0,50,8,1,0,36,3,0,2080111,0,5521252,0,0,0,0,0,0,0,0,0,0,0,0,0,0,0,0,0,2080111,0,0,0,0,0,0,0,0,0,0,0,3170040,0,0,0,0,1180181,-1171031
18,172,701.521763578057,0,0,774093.208761584,774094.255832482,0,50,8,1,0,34,3,3201031,3131170,0,7102280,0,0,0,0,3201031,0,0,0,0,0,0,3131170,0,0,0,0,0,0,0,0,0,0,0,0,0,0,0,0,0,3081130,0,0,0,-4021150,0,0
18,173,855.55832576938,1,0,774096.114677918,774097.161831968,0,50,8,1,1,27,7,6191272,4180032,3171041,9232323,0,0,2040081,0,0,4151191,0,0,0,0,0,0,0,2010021,0,0,2170011,0,0,0,0,0,0,0,0,0,-3171041,4021101,0,2071171,0,0,0,3140051,0,0
18,174,937.062189215794,1,0,774099.138265722,774100.18532815,0,50,8,0,1,33,7,1180071,7290364,0,10372371,0,0,0,0,0,0,1180071,0,0,1080091,4050041,0,1050181,0,0,0,0,1110051,0,0,0,0,0,0,0,0,0,0,0,4190090,0,0,-4011171,2171110,0,0
18,175,827.79290957842,1,0,774102.220661928,774103.267734366,0,50,8,0,1,28,3,4030171,0,1080110,5321262,4030171,0,0,0,0,0,0,0,0,0,0,0,0,0,0,0,0,0,0,0,0,0,0,0,0,1080110,0,-1181161,4140101,0,0,0,0,0,0,0
18,176,1256.41740788706,0,0,774105.114823819,774106.161897026,0,50,8,1,0,1,7,2151241,4071010,4081111,8251210,-1020190,0,0,0,0,0,0,1131051,0,4071010,0,0,0,0,0,0,0,0,0,0,1071090,0,0,0,0,3010021,0,3200050,0,0,0,0,2030090,3021070,0,0
18,177,860.59902398847,0,0,774108.479640022,774109.52665664,0,50,8,1,0,2,7,9281351,8401302,3242191,0,0,-2121021,0,4070180,0,0,0,3090150,0,0,0,0,2121050,0,0,2170111,0,4110141,0,0,0,0,2151141,0,0,1091050,0,0,0,0,0,0,0,0,0,0
18,178,1205.74172190391,0,0,774111.491395235,774112.538491926,0,50,8,0,0,19,3,2191081,7262221,2181120,0,0,2191081,0,0,0,0,0,0,0,0,0,0,3101131,0,0,0,0,4161090,-2181120,0,0,0,0,0,0,0,0,0,0,0,0,0,0,0,0,0
18,179,1313.37876082398,1,0,774114.914977496,774115.962044159,0,50,8,0,1,6,7,8231270,4181111,3330121,6102232,0,3101010,0,2010170,0,-3120090,0,0,0,0,0,0,4181111,0,0,0,0,0,0,0,0,0,0,2190061,1140060,0,0,0,4031041,2071191,0,0,0,0,0,0
18,180,1025.9896684438,0,0,774118.456204664,774119.503268632,0,50,8,1,0,20,3,4101121,0,6282302,3121011,0,0,0,4101121,0,0,0,0,0,0,0,0,0,0,0,0,0,0,0,-3171201,0,0,0,3111101,0,0,0,3121011,0,0,0,0,0,0,0,0
18,181,948.868217412382,1,0,774121.644554853,774122.691563002,0,50,8,0,1,10,7,3150141,6081111,5132221,6391333,0,0,0,0,0,3150141,0,0,0,-3021010,0,0,0,0,0,0,0,3060101,0,0,0,0,0,0,0,2081180,3051041,0,0,0,3160081,1101181,0,0,2130071,0
18,182,1057.39605950657,1,0,774124.679830502,774125.726901784,0,50,8,0,1,25,7,5072322,3201060,5161211,10411332,0,4051151,0,0,0,0,0,0,1021171,0,0,3201060,0,0,0,0,0,0,0,0,0,0,0,3031020,-2130191,0,0,4170031,4200121,2041180,0,0,0,0,0,0
18,183,814.75461658556,1,0,774127.997524992,774129.044626302,0,50,8,0,1,29,3,0,4362172,0,3120170,0,0,0,0,0,0,0,0,0,0,0,0,0,0,1030030,1181101,2151041,0,0,0,0,0,0,0,0,0,0,0,-3120170,0,0,0,0,0,0,0
18,184,876.962622511201,1,0,774130.962278601,774132.009384145,0,50,8,0,1,15,3,0,3181031,1190171,6331101,0,0,0,0,0,0,0,0,0,0,0,0,0,0,-3181031,0,0,0,0,1190171,0,0,0,0,0,0,0,2151071,0,0,0,0,0,0,4180030,0
18,185,1372.11671529803,0,0,774134.03290843,774135.079983563,0,50,8,1,0,7,3,7231300,0,0,1061031,0,2061050,0,4130170,0,0,-1040080,0,0,0,0,0,0,0,0,0,0,0,0,0,0,0,0,0,0,0,0,0,0,0,0,1061031,0,0,0,0
18,186,497.636799584143,0,0,774137.656521796,774138.703578065,0,50,8,1,0,22,3,2130041,4111041,4112332,0,0,0,0,0,0,2130041,0,0,0,0,0,4111041,0,0,0,0,0,0,0,0,0,-2031191,0,0,0,0,2081141,0,0,0,0,0,0,0,0,0
18,187,565.541094751097,1,0,774140.409471763,774141.456544586,0,50,8,0,1,16,3,3141170,4121320,1031061,0,0,0,0,3141170,0,0,0,0,0,0,0,0,0,1070180,0,-3051140,0,0,0,1031061,0,0,0,0,0,0,0,0,0,0,0,0,0,0,0,0
18,188,662.775678560138,1,0,774143.103647204,774144.162466771,0,50,8,1,1,8,7,8211180,6142311,3080171,8320161,0,0,0,0,0,0,4181100,-4030080,0,0,0,3061201,0,0,0,0,0,3081110,0,0,0,0,3080171,0,0,0,0,0,4100081,1140070,0,0,0,3080010,0,0
18,189,497.66759655904,0,0,774145.974289044,774147.021394204,0,50,8,1,0,21,7,5330272,2180161,3131220,6270431,0,3140171,0,0,0,0,0,0,2190101,2180161,0,0,0,0,0,0,0,0,0,0,-2010140,0,0,0,1121080,0,0,0,2040131,2110130,0,0,0,0,2120170,0
18,190,589.440333191305,0,0,774148.715486493,774149.762561625,0,50,8,0,0,9,7,8292242,3081070,0,12531313,2011021,0,0,0,0,0,0,2171030,-4110191,0,0,0,0,0,0,0,3081070,0,0,0,0,0,0,0,0,0,0,0,3140011,0,2191131,0,0,3030111,4170060,0
18,191,682.270176708698,1,0,774151.456698955,774152.503764464,0,50,8,1,1,18,3,0,4211280,1150201,4201140,0,0,0,0,0,0,0,0,0,0,0,0,3170200,0,0,0,0,-1041080,0,0,0,0,0,1150201,0,0,0,0,0,0,0,0,0,0,4201140,0
18,192,830.149649525993,0,0,774154.197924891,774155.244991555,0,50,8,1,0,14,7,5102131,11290362,10330361,0,0,1041021,4061110,0,0,0,0,0,0,0,4140031,0,4120141,-3030190,0,0,0,0,0,0,3200130,0,3090141,0,0,0,4040090,0,0,0,0,0,0,0,0,0
18,193,725.44833435677,1,0,774182.951291003,774183.998362671,0,50,9,0,1,6,3,3150031,3080150,2111190,4040161,0,0,0,0,0,-3150031,0,0,0,0,0,0,0,0,0,0,0,3080150,0,0,0,0,0,0,0,2111190,0,0,0,0,0,4040161,0,0,0,0
18,194,1525.73405345902,0,0,774185.868992192,774186.916055006,0,50,9,0,0,29,7,3151031,7273421,1090011,6272361,0,0,0,0,0,0,3151031,0,0,0,0,1071170,0,0,3061050,0,3141201,0,0,0,0,0,0,1090011,0,0,0,0,-1101081,2161090,0,0,3010190,0,0,0
18,195,1118.21088637225,0,0,774189.539629105,774190.586701927,0,50,9,1,0,8,7,8211180,6142311,3080171,8320161,0,0,0,0,0,0,4181100,-4030080,0,0,0,3061201,0,0,0,0,0,3081110,0,0,0,0,3080171,0,0,0,0,0,4100081,1140070,0,0,0,3080010,0,0
18,196,810.643602628261,1,0,774192.869125004,774193.916158946,0,50,9,1,1,18,3,0,4211280,1150201,4201140,0,0,0,0,0,0,0,0,0,0,0,0,3170200,0,0,0,0,-1041080,0,0,0,0,0,1150201,0,0,0,0,0,0,0,0,0,0,4201140,0
18,197,457.674618344754,0,0,774195.927995386,774196.975088996,0,50,9,0,0,15,7,8150321,7121222,3041061,4200090,0,4130150,0,3010011,0,0,0,1010160,0,2021051,0,0,0,0,-4010050,0,1090121,0,0,3041061,0,0,0,0,0,0,0,0,0,0,4200090,0,0,0,0,0
18,198,1198.94290016964,1,0,774198.539760377,774199.586837819,0,50,9,1,1,7,3,7231300,0,0,1061031,0,2061050,0,4130170,0,0,-1040080,0,0,0,0,0,0,0,0,0,0,0,0,0,0,0,0,0,0,0,0,0,0,0,0,1061031,0,0,0,0
18,199,678.093334194273,1,0,774201.951586654,774202.998653702,0,50,9,0,1,17,7,10362304,4201341,4021040,2170050,0,0,2161021,1101081,4080131,0,3020071,0,0,0,0,0,1120151,0,0,0,-3081190,0,0,0,0,0,0,0,0,4021040,0,0,2170050,0,0,0,0,0,0,0
18,200,1237.95345425606,0,0,774204.845747775,774205.892812513,0,50,9,1,0,34,3,3201031,3131170,0,7102280,0,0,0,0,3201031,0,0,0,0,0,0,3131170,0,0,0,0,0,0,0,0,0,0,0,0,0,0,0,0,0,3081130,0,0,0,-4021150,0,0
18,201,1038.58910431154,0,0,774208.281087558,774209.328160766,0,50,9,0,0,10,3,0,4020100,1191200,7142101,0,0,0,0,0,0,0,0,0,-4020100,0,0,0,0,0,0,0,0,0,0,1191200,0,0,0,0,0,0,0,4041041,0,0,0,0,0,0,3101060
18,202,382.101486204192,0,0,774211.410552737,774212.457620171,0,50,9,0,0,16,3,2041130,2040060,3011080,4061170,0,2041130,0,0,0,0,0,0,0,0,0,0,0,0,0,-2040060,0,0,0,0,0,0,0,0,3011080,0,0,0,0,4061170,0,0,0,0,0,0
18,203,402.928339317441,0,1,774213.857640804,774214.904702078,0,50,9,1,1,21,7,5330272,2180161,3131220,6270431,0,3140171,0,0,0,0,0,0,2190101,2180161,0,0,0,0,0,0,0,0,0,0,-2010140,0,0,0,1121080,0,0,0,2040131,2110130,0,0,0,0,2120170,0
18,204,719.008297543041,0,0,774216.410622416,774217.457692929,0,50,9,0,0,23,7,2181160,8412292,5283301,2070041,2181160,0,0,0,0,0,0,0,0,2130021,0,4201180,0,0,0,0,0,2081091,0,2171041,0,2101100,-1011160,0,0,0,0,0,0,0,2070041,0,0,0,0,0
18,205,908.394036116079,0,0,774219.234251487,774220.281260406,0,50,9,0,0,9,3,4140160,1150151,1010181,2050181,0,0,0,0,0,0,0,0,-4140160,0,0,0,0,0,0,0,1150151,0,0,0,1010181,0,0,0,0,0,0,0,0,0,0,0,0,0,0,2050181
18,206,1152.05100993626,1,0,774222.37542222,774223.422486958,0,50,9,1,1,1,7,2151241,4071010,4081111,8251210,-1020190,0,0,0,0,0,0,1131051,0,4071010,0,0,0,0,0,0,0,0,0,0,1071090,0,0,0,0,3010021,0,3200050,0,0,0,0,2030090,3021070,0,0
18,207,602.671107510105,0,0,774225.693118635,774226.740182604,0,50,9,1,0,14,7,5102131,11290362,10330361,0,0,1041021,4061110,0,0,0,0,0,0,0,4140031,0,4120141,-3030190,0,0,0,0,0,0,3200130,0,3090141,0,0,0,4040090,0,0,0,0,0,0,0,0,0
18,208,655.972237465903,0,0,774228.422572035,774229.469639468,0,50,9,0,0,28,7,3222281,2080140,9502491,4280230,0,0,0,1201080,0,0,2021201,0,0,0,0,0,0,0,0,0,2080140,0,3200200,0,4111200,0,0,2191091,0,0,0,-2170080,0,2110150,0,0,0,0,0,0
18,209,990.670134196989,1,0,774231.257903965,774232.304971398,0,50,9,1,1,20,3,4101121,0,6282302,3121011,0,0,0,4101121,0,0,0,0,0,0,0,0,0,0,0,0,0,0,0,-3171201,0,0,0,3111101,0,0,0,3121011,0,0,0,0,0,0,0,0
18,210,694.690989912488,1,0,774234.505015592,774235.55207956,0,50,9,1,1,2,7,9281351,8401302,3242191,0,0,-2121021,0,4070180,0,0,0,3090150,0,0,0,0,2121050,0,0,2170111,0,4110141,0,0,0,0,2151141,0,0,1091050,0,0,0,0,0,0,0,0,0,0
18,211,819.055801955983,1,0,774237.340355991,774238.387427274,0,50,9,1,1,27,7,6191272,4180032,3171041,9232323,0,0,2040081,0,0,4151191,0,0,0,0,0,0,0,2010021,0,0,2170011,0,0,0,0,0,0,0,0,0,-3171041,4021101,0,2071171,0,0,0,3140051,0,0
18,212,866.089358343743,0,0,774240.293337833,774241.340402956,0,50,9,0,0,19,3,0,7201370,5192131,0,0,0,0,0,0,0,0,0,0,3120200,0,4081170,0,0,0,0,0,0,-1071031,0,0,0,0,0,4121100,0,0,0,0,0,0,0,0,0,0,0
18,213,714.262480498292,0,0,774243.305140781,774244.352219763,0,50,9,0,0,33,3,2120151,0,1051071,3081221,0,2120151,0,0,0,0,0,0,0,0,0,0,0,0,0,0,0,0,1051071,0,0,0,0,0,0,0,0,0,0,0,0,0,-2041170,0,0,1040051
18,214,491.801538853906,1,0,774246.18753745,774247.234611042,0,50,9,1,1,22,3,2130041,4111041,4112332,0,0,0,0,0,0,2130041,0,0,0,0,0,4111041,0,0,0,0,0,0,0,0,0,-2031191,0,0,0,0,2081141,0,0,0,0,0,0,0,0,0
18,215,817.7553989226,1,0,774248.822877926,774249.869944974,0,50,9,0,1,25,7,6082202,0,8102171,5111371,0,3071171,0,3011031,0,0,0,0,0,0,0,0,0,0,0,0,0,0,0,0,2051150,0,3021011,0,-3030010,0,0,0,0,1041190,2030140,0,0,0,2040041,0
18,216,973.103913012892,0,0,774251.846450716,774252.893510065,0,50,9,1,0,36,3,0,2080111,0,5521252,0,0,0,0,0,0,0,0,0,0,0,0,0,0,0,0,0,2080111,0,0,0,0,0,0,0,0,0,0,0,3170040,0,0,0,0,1180181,-1171031
18,217,982.279877876863,0,0,774259.364207494,774260.411280701,0,50,10,1,0,27,7,6191272,4180032,3171041,9232323,0,0,2040081,0,0,4151191,0,0,0,0,0,0,0,2010021,0,0,2170011,0,0,0,0,0,0,0,0,0,-3171041,4021101,0,2071171,0,0,0,3140051,0,0
18,218,585.663081728853,0,0,774262.540722398,774263.587800995,0,50,10,1,0,34,3,3201031,3131170,0,7102280,0,0,0,0,3201031,0,0,0,0,0,0,3131170,0,0,0,0,0,0,0,0,0,0,0,0,0,0,0,0,0,3081130,0,0,0,-4021150,0,0
18,219,1339.16739490815,0,0,774265.317236301,774266.364322983,0,50,10,0,0,6,7,8281262,4011150,0,8451433,0,0,0,0,4010071,-2180060,0,2091131,0,0,0,0,0,0,4011150,0,0,0,0,0,0,0,0,0,0,0,0,0,0,3130180,0,2151051,1100181,0,2070021,0
18,220,770.597499562427,0,0,774268.846700172,774269.893779924,0,50,10,0,0,28,3,2160101,0,4291241,1041171,0,2160101,0,0,0,0,0,0,0,0,0,0,0,0,0,0,0,0,0,3091140,0,1200101,0,0,0,0,0,-1041171,0,0,0,0,0,0,0,0
18,221,1142.91238645092,1,0,774271.811497666,774272.858523138,0,50,10,0,1,10,3,3231130,7141181,0,0,0,0,0,1190060,0,2041070,0,0,0,-3131021,0,0,0,0,0,0,0,4010160,0,0,0,0,0,0,0,0,0,0,0,0,0,0,0,0,0,0
18,222,517.613270669244,0,0,774275.199744224,774276.246824746,0,50,10,0,0,15,3,1121200,4161191,0,4220220,1121200,0,0,0,0,0,0,0,0,0,0,0,0,0,-4161191,0,0,0,0,0,0,0,0,0,0,0,0,1100020,0,0,3120200,0,0,0,0,0
18,223,487.489959457889,1,0,774277.893902727,774278.94097016,0,50,10,1,1,21,7,5330272,2180161,3131220,6270431,0,3140171,0,0,0,0,0,0,2190101,2180161,0,0,0,0,0,0,0,0,0,0,-2010140,0,0,0,1121080,0,0,0,2040131,2110130,0,0,0,0,2120170,0
18,224,2420.33287626691,1,0,774280.599828377,774281.646900814,0,50,10,0,1,23,7,0,6333271,7302190,8301211,0,0,0,0,0,0,0,0,0,0,1161070,0,4121190,0,0,0,1051011,0,0,0,1131070,0,-2120080,0,0,0,4051040,0,0,0,4131110,0,4170101,0,0,0
18,225,675.719270831905,0,0,774285.223451366,774286.270552676,0,50,10,1,0,18,3,0,4211280,1150201,4201140,0,0,0,0,0,0,0,0,0,0,0,0,3170200,0,0,0,0,-1041080,0,0,0,0,0,1150201,0,0,0,0,0,0,0,0,0,0,4201140,0
18,226,816.898087505251,1,0,774288.035234759,774289.082298342,0,50,10,0,1,25,3,0,3081200,3241262,4181161,0,0,0,0,0,0,0,0,0,0,0,0,3081200,0,0,0,0,0,0,1061121,0,0,0,0,-2180141,0,0,4181161,0,0,0,0,0,0,0,0
18,227,966.220784466714,0,0,774290.941154942,774291.988227764,0,50,10,1,0,8,7,8211180,6142311,3080171,8320161,0,0,0,0,0,0,4181100,-4030080,0,0,0,3061201,0,0,0,0,0,3081110,0,0,0,0,3080171,0,0,0,0,0,4100081,1140070,0,0,0,3080010,0,0
18,228,676.769063342363,1,0,774293.976494879,774295.023568857,0,50,10,0,1,17,3,0,4481532,0,2091180,0,0,0,0,0,0,0,0,0,0,0,0,0,1190141,1181201,0,-2110190,0,0,0,0,0,0,0,0,0,0,0,0,0,2091180,0,0,0,0,0
18,229,854.503143695183,0,0,774296.87065369,774297.917728437,0,50,10,1,0,2,7,9281351,8401302,3242191,0,0,-2121021,0,4070180,0,0,0,3090150,0,0,0,0,2121050,0,0,2170111,0,4110141,0,0,0,0,2151141,0,0,1091050,0,0,0,0,0,0,0,0,0,0
18,230,1049.32416696101,1,0,774299.8707072,774300.917775403,0,50,10,1,1,20,3,4101121,0,6282302,3121011,0,0,0,4101121,0,0,0,0,0,0,0,0,0,0,0,0,0,0,0,-3171201,0,0,0,3111101,0,0,0,3121011,0,0,0,0,0,0,0,0
18,231,497.028558980674,1,0,774303.047219409,774304.094329958,0,50,10,0,1,16,7,7321182,7221501,9271301,0,0,0,0,0,0,0,4141091,3180091,0,0,0,0,0,2051151,0,-4110160,1060190,0,0,2070031,0,0,0,3020130,4181140,0,0,0,0,0,0,0,0,0,0,0
18,232,545.67356815096,1,0,774305.670789274,774306.717862481,0,50,10,1,1,14,7,5102131,11290362,10330361,0,0,1041021,4061110,0,0,0,0,0,0,0,4140031,0,4120141,-3030190,0,0,0,0,0,0,3200130,0,3090141,0,0,0,4040090,0,0,0,0,0,0,0,0,0
18,233,976.303720846772,1,0,774308.470832467,774309.517899515,0,50,10,0,1,19,7,4331041,4101131,12482484,4121011,0,1200020,0,0,0,0,3131021,0,0,0,0,0,4101131,0,0,0,0,0,-2201171,4020111,0,4191111,0,0,0,2070091,0,0,0,0,4121011,0,0,0,0,0
18,234,424.616353353485,0,0,774311.647400111,774312.694419423,0,50,10,0,0,9,3,3141110,5111081,0,0,0,0,0,2120070,0,0,0,0,-1021040,3051011,0,0,0,0,0,2060070,0,0,0,0,0,0,0,0,0,0,0,0,0,0,0,0,0,0,0,0
18,235,384.811621741392,0,0,774314.247404114,774315.294461538,0,50,10,1,0,22,3,2130041,4111041,4112332,0,0,0,0,0,0,2130041,0,0,0,0,0,4111041,0,0,0,0,0,0,0,0,0,-2031191,0,0,0,0,2081141,0,0,0,0,0,0,0,0,0
18,236,1001.38825864997,1,0,774316.741540751,774317.788612034,0,50,10,1,1,36,3,0,2080111,0,5521252,0,0,0,0,0,0,0,0,0,0,0,0,0,0,0,0,0,2080111,0,0,0,0,0,0,0,0,0,0,0,3170040,0,0,0,0,1180181,-1171031
18,237,1555.82233297173,1,0,774319.859236859,774320.906353182,0,50,10,1,1,1,7,2151241,4071010,4081111,8251210,-1020190,0,0,0,0,0,0,1131051,0,4071010,0,0,0,0,0,0,0,0,0,0,1071090,0,0,0,0,3010021,0,3200050,0,0,0,0,2030090,3021070,0,0
18,238,1940.78631594311,0,0,774323.518115864,774324.565219483,0,50,10,0,0,33,7,4070011,5182342,9243223,6211111,0,0,0,0,0,0,0,4070011,0,0,0,0,1151141,0,4031201,0,0,0,3141061,0,0,0,0,0,2031111,0,4071051,0,2160070,0,0,0,-4051041,0,0,0
18,239,1458.17391457967,1,0,774327.529937675,774328.577004723,0,50,10,1,1,7,3,7231300,0,0,1061031,0,2061050,0,4130170,0,0,-1040080,0,0,0,0,0,0,0,0,0,0,0,0,0,0,0,0,0,0,0,0,0,0,0,0,1061031,0,0,0,0
18,240,732.656371081248,1,0,774331.05940655,774332.106475523,0,50,10,0,1,29,7,0,3080150,5212311,10513663,0,0,0,0,0,0,0,0,0,0,0,0,3080150,0,0,0,0,0,0,0,2181181,0,0,0,3031130,0,0,3131140,-1050180,1170051,0,0,0,0,4141101,1021191
18,241,962.579424725845,0,0,774336.965366385,774338.012443827,0,50,11,1,0,27,7,6191272,4180032,3171041,9232323,0,0,2040081,0,0,4151191,0,0,0,0,0,0,0,2010021,0,0,2170011,0,0,0,0,0,0,0,0,0,-3171041,4021101,0,2071171,0,0,0,3140051,0,0
18,242,629.427537089214,0,0,774340.106603331,774341.153670764,0,50,11,1,0,20,3,4101121,0,6282302,3121011,0,0,0,4101121,0,0,0,0,0,0,0,0,0,0,0,0,0,0,0,-3171201,0,0,0,3111101,0,0,0,3121011,0,0,0,0,0,0,0,0
18,243,1165.80802784301,0,0,774342.883114154,774343.930225473,0,50,11,0,0,10,3,0,9182311,0,4010101,0,0,0,0,0,0,0,0,0,-3091170,0,0,0,2050100,0,4041041,0,0,0,0,0,0,0,0,0,0,0,0,0,0,0,4010101,0,0,0,0
18,244,587.510516517796,0,0,774346.17728359,774347.224353718,0,50,11,0,0,17,3,0,4031131,1121200,4241180,0,0,0,0,0,0,0,0,0,0,0,0,0,0,0,0,-4031131,0,0,0,1121200,0,0,0,0,0,0,0,0,0,0,0,0,2080070,0,2161110
18,245,408.60230079852,1,0,774348.930265124,774349.977331402,0,50,11,1,1,22,3,2130041,4111041,4112332,0,0,0,0,0,0,2130041,0,0,0,0,0,4111041,0,0,0,0,0,0,0,0,0,-2031191,0,0,0,0,2081141,0,0,0,0,0,0,0,0,0
18,246,1095.76603607275,0,0,774351.53030262,774352.577370438,0,50,11,1,0,8,7,8211180,6142311,3080171,8320161,0,0,0,0,0,0,4181100,-4030080,0,0,0,3061201,0,0,0,0,0,3081110,0,0,0,0,3080171,0,0,0,0,0,4100081,1140070,0,0,0,3080010,0,0
18,247,1447.89002789184,1,0,774354.753878798,774355.801012444,0,50,11,0,1,33,7,6212343,7142232,5110281,1011010,0,1130201,4041051,0,0,0,0,1041091,0,0,0,0,3041141,0,0,4101091,0,0,0,0,0,0,4040180,0,0,0,1070101,0,0,0,0,0,-1011010,0,0,0
18,248,930.540155502968,1,0,774358.283342283,774359.330417415,0,50,11,0,1,25,7,4221222,8191270,8422452,2111090,0,0,0,0,1161091,3060131,0,0,0,0,0,0,0,4101080,0,4090190,0,0,0,0,0,0,0,3201151,-4070190,1151111,0,0,0,0,0,0,0,0,0,2111090
18,249,373.237725929357,1,0,774361.377501402,774362.424577689,0,50,11,0,1,15,3,1070081,1111171,0,2172190,0,0,0,0,0,0,0,0,1070081,0,0,0,0,0,-1111171,0,0,0,0,0,0,0,0,0,0,0,0,0,0,0,0,1101110,0,0,0,1071080
18,250,1440.30780764297,0,0,774363.824597553,774364.871667681,0,50,11,0,0,23,7,3180030,7330521,9433340,4130021,0,0,0,0,0,3180030,0,0,0,0,0,0,1140171,3010160,0,0,3180190,0,0,0,2161110,0,-4091120,0,0,0,3181110,0,0,0,0,0,0,0,4130021,0
18,251,772.620862117037,1,0,774367.448187051,774368.495253714,0,50,11,1,1,14,7,5102131,11290362,10330361,0,0,1041021,4061110,0,0,0,0,0,0,0,4140031,0,4120141,-3030190,0,0,0,0,0,0,3200130,0,3090141,0,0,0,4040090,0,0,0,0,0,0,0,0,0
18,252,873.755885404535,0,0,774370.354112624,774371.401187756,0,50,11,1,0,36,3,0,2080111,0,5521252,0,0,0,0,0,0,0,0,0,0,0,0,0,0,0,0,0,2080111,0,0,0,0,0,0,0,0,0,0,0,3170040,0,0,0,0,1180181,-1171031
18,253,926.678597345017,0,0,774373.460048514,774374.507111712,0,50,11,1,0,18,3,0,4211280,1150201,4201140,0,0,0,0,0,0,0,0,0,0,0,0,3170200,0,0,0,0,-1041080,0,0,0,0,0,1150201,0,0,0,0,0,0,0,0,0,0,4201140,0
18,254,508.535856264643,1,0,774376.460109338,774377.507154828,0,50,11,0,1,16,7,4251351,9401282,3281231,3190120,2111200,0,0,0,0,0,0,0,2140151,0,0,0,0,4030111,0,-1190090,4181081,0,0,0,0,0,2101110,1180121,0,0,0,0,0,3190120,0,0,0,0,0,0
18,255,768.605318968184,1,0,774379.118961395,774380.166021514,0,50,11,0,1,29,7,2200161,1191181,6404384,4350340,0,0,0,0,0,0,2200161,0,0,0,0,0,0,1191181,0,0,0,0,1171041,0,0,1031181,0,2121101,0,2081061,0,0,-3180200,0,0,1170140,0,0,0,0
18,256,1501.27315474674,1,0,774381.954301794,774383.001369612,0,50,11,1,1,1,7,2151241,4071010,4081111,8251210,-1020190,0,0,0,0,0,0,1131051,0,4071010,0,0,0,0,0,0,0,0,0,0,1071090,0,0,0,0,3010021,0,3200050,0,0,0,0,2030090,3021070,0,0
18,257,702.191598247737,1,0,774385.542573298,774386.589644195,0,50,11,0,1,19,3,0,2120080,1091111,3160101,0,0,0,0,0,0,0,0,0,0,0,0,0,0,2120080,0,0,0,-1091111,0,0,0,0,0,0,0,0,0,0,0,0,1090070,0,0,2070031,0
18,258,1807.15083831456,1,0,774388.401445296,774389.448510034,0,50,11,0,1,6,7,8232241,5290232,7072231,5142140,0,0,4151191,0,0,-4081050,0,0,0,0,0,0,2130101,0,0,3160131,0,0,0,0,4051101,3021130,0,0,0,0,0,0,0,1011040,0,0,0,0,4131100,0
18,259,1261.25215133652,0,0,774392.366214303,774393.413277502,0,50,11,1,0,21,7,5330272,2180161,3131220,6270431,0,3140171,0,0,0,0,0,0,2190101,2180161,0,0,0,0,0,0,0,0,0,0,-2010140,0,0,0,1121080,0,0,0,2040131,2110130,0,0,0,0,2120170,0
18,260,1225.99960048683,0,0,774395.848611125,774396.895677789,0,50,11,0,0,9,3,4130061,0,1100070,6240251,0,0,0,0,0,0,0,0,-4130061,0,0,0,0,0,0,0,0,0,0,0,0,1100070,0,0,0,0,0,0,0,2070060,0,4170191,0,0,0,0
18,261,747.414291254245,0,0,774399.178080078,774400.22514905,0,50,11,1,0,7,3,7231300,0,0,1061031,0,2061050,0,4130170,0,0,-1040080,0,0,0,0,0,0,0,0,0,0,0,0,0,0,0,0,0,0,0,0,0,0,0,0,1061031,0,0,0,0
18,262,777.20037533436,0,1,774402.013417397,774403.060476746,0,50,11,1,1,2,7,9281351,8401302,3242191,0,0,-2121021,0,4070180,0,0,0,3090150,0,0,0,0,2121050,0,0,2170111,0,4110141,0,0,0,0,2151141,0,0,1091050,0,0,0,0,0,0,0,0,0,0
18,263,786.697013885714,0,0,774404.942867255,774405.989943927,0,50,11,0,0,28,3,0,5220271,4081191,4021031,0,0,0,0,0,0,0,0,0,0,0,0,0,4160110,1060161,0,0,0,0,0,0,0,0,0,0,0,4081191,-4021031,0,0,0,0,0,0,0,0
18,264,1027.45021600276,0,0,774407.978205652,774409.025280015,0,50,11,1,0,34,3,3201031,3131170,0,7102280,0,0,0,0,3201031,0,0,0,0,0,0,3131170,0,0,0,0,0,0,0,0,0,0,0,0,0,0,0,0,0,3081130,0,0,0,-4021150,0,0
18,265,929.451481788419,0,0,774414.543014849,774415.590081898,0,50,12,0,0,16,7,3272171,6313511,6302142,3131100,0,1141041,0,0,0,0,0,2131130,0,0,0,0,0,0,1111190,-4111151,0,1091170,0,0,0,2171071,0,0,0,0,4131071,0,0,0,0,0,3131100,0,0,0
18,266,885.106888017617,1,0,774417.637172813,774418.684286057,0,50,12,1,1,7,3,7231300,0,0,1061031,0,2061050,0,4130170,0,0,-1040080,0,0,0,0,0,0,0,0,0,0,0,0,0,0,0,0,0,0,0,0,0,0,0,0,1061031,0,0,0,0
18,267,1386.18978741579,1,0,774420.743107933,774421.790181141,0,50,12,0,1,6,7,8151311,5121292,1090151,1121021,2090050,2021101,0,0,0,-4040160,0,0,0,0,1060110,0,0,3011061,0,0,1050121,0,0,0,1090151,0,0,0,0,0,0,0,0,0,0,0,0,0,0,1121021
18,268,565.833281376399,0,0,774424.366702435,774425.413761784,0,50,12,1,0,22,3,2130041,4111041,4112332,0,0,0,0,0,0,2130041,0,0,0,0,0,4111041,0,0,0,0,0,0,0,0,0,-2031191,0,0,0,0,2081141,0,0,0,0,0,0,0,0,0
18,269,1257.71165173501,1,0,774427.025604923,774428.072629625,0,50,12,0,1,33,3,0,5381180,0,6281210,0,0,0,0,0,0,0,0,0,0,0,0,0,0,3191070,0,0,2190110,0,0,0,0,0,0,0,0,0,0,0,0,0,0,-2150040,0,0,4131170
18,270,1408.35746470839,0,0,774430.355015746,774431.402087028,0,50,12,1,0,34,3,3201031,3131170,0,7102280,0,0,0,0,3201031,0,0,0,0,0,0,3131170,0,0,0,0,0,0,0,0,0,0,0,0,0,0,0,0,0,3081130,0,0,0,-4021150,0,0
18,271,949.623513733968,0,0,774433.966835786,774435.013906299,0,50,12,1,0,18,3,0,4211280,1150201,4201140,0,0,0,0,0,0,0,0,0,0,0,0,3170200,0,0,0,0,-1041080,0,0,0,0,0,1150201,0,0,0,0,0,0,0,0,0,0,4201140,0
18,272,1387.73387169931,1,0,774436.978645664,774438.025723106,0,50,12,1,1,1,7,2151241,4071010,4081111,8251210,-1020190,0,0,0,0,0,0,1131051,0,4071010,0,0,0,0,0,0,0,0,0,0,1071090,0,0,0,0,3010021,0,3200050,0,0,0,0,2030090,3021070,0,0
18,273,769.85529193189,1,0,774440.437520511,774441.484636065,0,50,12,1,1,36,3,0,2080111,0,5521252,0,0,0,0,0,0,0,0,0,0,0,0,0,0,0,0,0,2080111,0,0,0,0,0,0,0,0,0,0,0,3170040,0,0,0,0,1180181,-1171031
18,274,841.173434164375,0,0,774443.308151573,774444.355219391,0,50,12,0,0,19,7,5221102,4241220,11343544,0,0,0,2170091,0,0,0,3051011,0,0,2160200,0,0,0,0,2081020,0,0,0,-2041181,4130091,0,1061111,0,0,4111161,0,0,0,0,0,0,0,0,0,0,0
18,275,910.672243800946,1,0,774446.343493435,774447.390598594,0,50,12,0,1,28,3,0,5221321,0,5211382,0,0,0,0,0,0,0,0,0,0,0,0,0,0,0,0,1140190,4081131,0,0,0,0,0,0,0,0,0,-3180181,0,0,0,2031201,0,0,0,0
18,276,515.492897597142,0,0,774449.425892336,774450.472960539,0,50,12,0,0,10,7,5140122,11431562,0,4091181,0,0,0,2050041,0,3090081,0,0,0,-2120021,0,3090180,1100160,0,0,0,4030151,1091050,0,0,0,0,0,0,0,0,0,0,0,0,4091181,0,0,0,0,0
18,277,1250.81966910511,1,0,774452.049460276,774453.096531558,0,50,12,0,1,25,3,5152222,2131130,1101100,0,0,0,0,1061141,0,0,4091081,0,0,2131130,0,0,0,0,0,0,0,0,0,0,0,0,0,0,-1101100,0,0,0,0,0,0,0,0,0,0,0
18,278,687.119933543727,1,0,774455.473042151,774456.520112279,0,50,12,1,1,20,3,4101121,0,6282302,3121011,0,0,0,4101121,0,0,0,0,0,0,0,0,0,0,0,0,0,0,0,-3171201,0,0,0,3111101,0,0,0,3121011,0,0,0,0,0,0,0,0
18,279,467.296369606629,0,0,774458.2260233,774459.273093428,0,50,12,0,0,15,3,0,5200252,0,6250181,0,0,0,0,0,0,0,0,0,0,0,3040141,0,0,-2160111,0,0,0,0,0,0,0,0,0,0,0,0,0,4110091,0,0,0,2140090,0,0,0
18,280,1113.55476570316,0,0,774460.849592395,774461.896663677,0,50,12,0,0,23,7,1131111,4290091,10221302,2040070,0,1131111,0,0,0,0,0,0,0,0,1090031,0,0,3200060,0,0,0,0,0,3020110,0,2140041,-1050090,4011061,0,0,0,0,0,0,0,2040070,0,0,0,0
18,281,1099.44204252679,1,0,774464.06141259,774465.108491572,0,50,12,0,1,9,7,6121231,5241231,8202211,5372202,0,0,0,0,4040111,0,0,0,-2081120,0,0,1110070,0,0,4131161,0,0,0,0,0,4161010,0,4041201,0,0,0,0,0,3201131,0,0,0,0,0,2171071,0
18,282,832.939087413251,1,0,774467.320336404,774468.367344168,0,50,12,0,1,17,3,4161171,2191010,2091060,3051200,0,0,4161171,0,0,0,0,0,0,0,0,0,0,0,0,0,-2191010,0,0,2091060,0,0,0,0,0,0,0,0,0,0,0,3051200,0,0,0,0
18,283,1127.35258950852,0,0,774470.296794026,774471.343869158,0,50,12,1,0,8,7,8211180,6142311,3080171,8320161,0,0,0,0,0,0,4181100,-4030080,0,0,0,3061201,0,0,0,0,0,3081110,0,0,0,0,3080171,0,0,0,0,0,4100081,1140070,0,0,0,3080010,0,0
18,284,902.603046153672,0,0,774473.567430707,774474.614499295,0,50,12,1,0,27,7,6191272,4180032,3171041,9232323,0,0,2040081,0,0,4151191,0,0,0,0,0,0,0,2010021,0,0,2170011,0,0,0,0,0,0,0,0,0,-3171041,4021101,0,2071171,0,0,0,3140051,0,0
18,285,444.323735777289,1,0,774476.708655335,774477.755728927,0,50,12,1,1,21,7,5330272,2180161,3131220,6270431,0,3140171,0,0,0,0,0,0,2190101,2180161,0,0,0,0,0,0,0,0,0,0,-2010140,0,0,0,1121080,0,0,0,2040131,2110130,0,0,0,0,2120170,0
18,286,615.695156739093,0,0,774479.320460362,774480.36752741,0,50,12,1,0,14,7,5102131,11290362,10330361,0,0,1041021,4061110,0,0,0,0,0,0,0,4140031,0,4120141,-3030190,0,0,0,0,0,0,3200130,0,3090141,0,0,0,4040090,0,0,0,0,0,0,0,0,0
18,287,920.610049273819,1,0,774482.014619635,774483.061678984,0,50,12,0,1,29,3,0,0,4311320,6251370,0,0,0,0,0,0,0,0,0,0,0,0,0,0,0,0,0,0,0,0,2151180,2160140,0,0,0,0,0,0,-2181180,0,0,4070190,0,0,0,0
18,288,930.030465358868,0,0,774485.002897143,774486.049966501,0,50,12,1,0,2,7,9281351,8401302,3242191,0,0,-2121021,0,4070180,0,0,0,3090150,0,0,0,0,2121050,0,0,2170111,0,4110141,0,0,0,0,2151141,0,0,1091050,0,0,0,0,0,0,0,0,0,0
18,289,1365.15466950368,1,0,774491.108866525,774492.155937423,0,50,13,0,1,29,7,10481270,13570401,0,3061030,3160130,3180060,0,4141080,0,0,0,0,0,0,4130100,0,0,4130061,1180100,4130140,0,0,0,0,0,0,0,0,0,0,0,0,-3061030,0,0,0,0,0,0,0
18,290,1665.35762173589,0,0,774494.626575952,774495.673638766,0,50,13,0,0,19,3,2181090,6220341,4091180,0,0,0,0,0,2181090,0,0,0,0,0,0,0,2080151,0,0,0,0,4140190,-4091180,0,0,0,0,0,0,0,0,0,0,0,0,0,0,0,0,0
18,291,1012.73926114663,0,0,774498.497230881,774499.54428792,0,50,13,0,0,25,7,2242072,2100171,5081301,8362342,1091011,0,0,1151061,0,0,0,0,0,0,0,0,0,0,0,2100171,0,0,0,0,0,0,0,2071130,-3010171,0,0,0,0,0,1071061,0,3110121,4181160,0,0
18,292,574.583862675354,1,0,774501.650198788,774502.697283159,0,50,13,1,1,8,7,8211180,6142311,3080171,8320161,0,0,0,0,0,0,4181100,-4030080,0,0,0,3061201,0,0,0,0,0,3081110,0,0,0,0,3080171,0,0,0,0,0,4100081,1140070,0,0,0,3080010,0,0
18,293,611.650741309859,1,0,774504.297302946,774505.344376539,0,50,13,1,1,2,7,9281351,8401302,3242191,0,0,-2121021,0,4070180,0,0,0,3090150,0,0,0,0,2121050,0,0,2170111,0,4110141,0,0,0,0,2151141,0,0,1091050,0,0,0,0,0,0,0,0,0,0
18,294,632.263940293342,1,0,774507.026792917,774508.073831478,0,50,13,1,1,22,3,2130041,4111041,4112332,0,0,0,0,0,0,2130041,0,0,0,0,0,4111041,0,0,0,0,0,0,0,0,0,-2031191,0,0,0,0,2081141,0,0,0,0,0,0,0,0,0
18,295,746.536961873062,0,0,774509.803274099,774510.850344611,0,50,13,0,0,28,7,2021141,9312341,7240120,7230131,2021141,0,0,0,0,0,0,0,0,0,2100080,0,3151140,0,0,0,4061121,0,0,0,3110030,0,4130090,0,0,0,0,-3110120,0,0,0,0,0,0,4120011,0
18,296,851.536623202264,0,0,774512.756252861,774513.803327608,0,50,13,0,0,23,7,3250251,1040101,1021030,8284442,0,0,0,1070101,0,0,0,0,2180150,0,0,0,0,0,0,1040101,0,0,0,0,0,0,-1021030,0,0,0,0,4041110,1131110,0,0,0,0,0,1061161,2051061
18,297,1134.63222933933,1,0,774515.768071593,774516.815171363,0,50,13,0,1,6,7,10202191,4240241,7241090,2100070,0,0,0,0,4061100,-3090030,0,0,3051061,0,0,0,3120070,1120171,0,0,0,0,0,0,0,0,0,0,4120020,3121070,0,2100070,0,0,0,0,0,0,0,0
18,298,956.723761046305,1,0,774519.12105944,774520.16815921,0,50,13,1,1,18,3,0,4211280,1150201,4201140,0,0,0,0,0,0,0,0,0,0,0,0,3170200,0,0,0,0,-1041080,0,0,0,0,0,1150201,0,0,0,0,0,0,0,0,0,0,4201140,0
18,299,711.284796125256,1,0,774522.14463762,774523.191701204,0,50,13,0,1,33,3,2180010,0,1100171,4091241,0,0,0,2180010,0,0,0,0,0,0,0,0,0,0,0,0,0,0,0,1100171,0,0,0,0,0,0,0,0,0,0,0,3021110,-1070131,0,0,0
18,300,870.829785824753,1,0,774525.027027744,774526.074097487,0,50,13,1,1,34,3,3201031,3131170,0,7102280,0,0,0,0,3201031,0,0,0,0,0,0,3131170,0,0,0,0,0,0,0,0,0,0,0,0,0,0,0,0,0,3081130,0,0,0,-4021150,0,0
18,301,581.545138498768,0,0,774528.062373071,774529.109443199,0,50,13,0,0,17,3,3020030,4040141,1071060,1161110,0,0,0,0,0,0,0,0,3020030,0,0,0,0,0,0,0,-4040141,0,0,0,0,1071060,0,0,0,0,0,0,0,0,0,0,0,0,1161110,0
18,302,1056.4101706259,0,0,774530.862414339,774531.909477152,0,50,13,1,0,14,7,5102131,11290362,10330361,0,0,1041021,4061110,0,0,0,0,0,0,0,4140031,0,4120141,-3030190,0,0,0,0,0,0,3200130,0,3090141,0,0,0,4040090,0,0,0,0,0,0,0,0,0
18,303,543.675228022039,0,0,774534.07422414,774535.121295422,0,50,13,0,0,10,3,0,5231222,0,4210102,0,0,0,0,0,0,0,0,0,-4191121,1040101,0,0,0,0,0,0,0,0,0,0,0,0,0,0,0,0,3090041,0,0,0,0,0,0,0,1120061
18,304,902.231557294726,0,0,774536.756637823,774537.803692938,0,50,13,1,0,27,7,6191272,4180032,3171041,9232323,0,0,2040081,0,0,4151191,0,0,0,0,0,0,0,2010021,0,0,2170011,0,0,0,0,0,0,0,0,0,-3171041,4021101,0,2071171,0,0,0,3140051,0,0
18,305,1286.19001829065,1,0,774539.709601572,774540.756675935,0,50,13,1,1,7,3,7231300,0,0,1061031,0,2061050,0,4130170,0,0,-1040080,0,0,0,0,0,0,0,0,0,0,0,0,0,0,0,0,0,0,0,0,0,0,0,0,1061031,0,0,0,0
18,306,1054.22165920027,1,0,774543.227324858,774544.274391521,0,50,13,1,1,36,3,0,2080111,0,5521252,0,0,0,0,0,0,0,0,0,0,0,0,0,0,0,0,0,2080111,0,0,0,0,0,0,0,0,0,0,0,3170040,0,0,0,0,1180181,-1171031
18,307,881.949426024221,1,0,774546.509720603,774547.556852709,0,50,13,1,1,20,3,4101121,0,6282302,3121011,0,0,0,4101121,0,0,0,0,0,0,0,0,0,0,0,0,0,0,0,-3171201,0,0,0,3111101,0,0,0,3121011,0,0,0,0,0,0,0,0
18,308,480.7280942332,1,1,774549.556860409,774550.603879337,0,50,13,0,0,16,7,2181311,4281141,1110041,10202432,0,1090150,1091161,0,0,0,0,0,0,0,0,0,3191041,0,0,-1090100,0,0,0,1110041,0,0,0,0,0,0,0,0,4140190,0,0,3031201,0,0,3031041,0
18,309,411.635804921389,0,0,774552.145084562,774553.192150455,0,50,13,1,0,21,7,5330272,2180161,3131220,6270431,0,3140171,0,0,0,0,0,0,2190101,2180161,0,0,0,0,0,0,0,0,0,0,-2010140,0,0,0,1121080,0,0,0,2040131,2110130,0,0,0,0,2120170,0
18,310,1466.82325075381,1,0,774554.803975115,774555.851013291,0,50,13,1,1,1,7,2151241,4071010,4081111,8251210,-1020190,0,0,0,0,0,0,1131051,0,4071010,0,0,0,0,0,0,0,0,0,0,1071090,0,0,0,0,3010021,0,3200050,0,0,0,0,2030090,3021070,0,0
18,311,547.964864526875,0,0,774558.41580247,774559.462838721,0,50,13,0,0,9,3,3131201,0,0,8462421,0,0,0,0,0,0,0,0,-3131201,0,0,0,0,0,0,0,0,0,0,0,0,0,0,0,0,0,0,3201191,0,0,0,2101120,0,3160110,0,0
18,312,503.69110389147,1,0,774561.15698529,774562.204052724,0,50,13,0,1,15,3,2100030,7360180,0,4181021,0,0,0,0,0,0,0,2100030,0,4160090,0,0,0,0,-3200090,0,0,0,0,0,0,0,0,0,0,0,0,4181021,0,0,0,0,0,0,0,0
18,313,651.770757278427,1,0,774567.615901714,774568.662972611,0,50,14,0,1,25,7,5151052,2041121,7452462,8081140,0,0,0,2081011,3070041,0,0,0,0,0,0,0,0,0,0,0,0,2041121,2131171,0,0,0,0,0,-3170140,2151151,0,0,0,0,0,4041060,4040080,0,0,0
18,314,373.061028192751,1,0,774570.439480355,774571.486538164,0,50,14,1,1,21,7,5330272,2180161,3131220,6270431,0,3140171,0,0,0,0,0,0,2190101,2180161,0,0,0,0,0,0,0,0,0,0,-2010140,0,0,0,1121080,0,0,0,2040131,2110130,0,0,0,0,2120170,0
18,315,927.388083073311,1,0,774573.015987021,774574.063053684,0,50,14,0,1,10,7,2030080,5271182,4190160,9303483,0,0,0,0,0,2030080,0,0,0,-1200141,0,0,0,0,0,0,0,4071041,3050080,0,0,0,0,0,0,1140080,0,0,3021101,2121201,0,0,0,0,4161181,0
18,316,709.379232022911,1,0,774576.168976101,774577.216045459,0,50,14,0,1,28,3,0,1200150,5151230,3111111,0,0,0,0,0,0,0,0,0,0,0,0,1200150,0,0,0,0,0,0,0,1051120,4100110,0,0,0,0,0,-3111111,0,0,0,0,0,0,0,0
18,317,1284.04616250191,0,0,774578.945483075,774579.992551278,0,50,14,1,0,14,7,5102131,11290362,10330361,0,0,1041021,4061110,0,0,0,0,0,0,0,4140031,0,4120141,-3030190,0,0,0,0,0,0,3200130,0,3090141,0,0,0,4040090,0,0,0,0,0,0,0,0,0
18,318,1667.53381444141,0,0,774582.369062255,774583.416136233,0,50,14,1,0,1,7,2151241,4071010,4081111,8251210,-1020190,0,0,0,0,0,0,1131051,0,4071010,0,0,0,0,0,0,0,0,0,0,1071090,0,0,0,0,3010021,0,3200050,0,0,0,0,2030090,3021070,0,0
18,319,680.089364526793,0,0,774586.11029743,774587.157368713,0,50,14,0,0,16,3,7272361,2121050,0,2061100,0,0,3161171,0,0,4111190,0,0,0,0,0,0,0,0,0,-2121050,0,0,0,0,0,0,0,0,0,0,0,0,0,2061100,0,0,0,0,0,0
18,320,455.575803061947,0,0,774589.039761532,774590.08682396,0,50,14,0,0,9,7,9283353,0,12383142,4120091,0,4071201,0,0,0,2151051,0,0,-3061101,0,0,0,0,0,0,0,0,0,0,0,0,0,2080041,0,4111050,4031011,2161040,4120091,0,0,0,0,0,0,0,0
18,321,658.292790991254,0,0,774591.569205384,774592.616268968,0,50,14,0,0,29,3,4200201,0,1070170,2141121,0,2180160,0,0,0,0,2020041,0,0,0,0,0,0,0,0,0,0,0,0,0,1070170,0,0,0,0,0,0,0,-2141121,0,0,0,0,0,0,0
18,322,1097.52415958792,1,0,774594.439832981,774595.486901569,0,50,14,1,1,34,3,3201031,3131170,0,7102280,0,0,0,0,3201031,0,0,0,0,0,0,3131170,0,0,0,0,0,0,0,0,0,0,0,0,0,0,0,0,0,3081130,0,0,0,-4021150,0,0
18,323,1240.241286112,0,0,774597.769295773,774598.816361282,0,50,14,1,0,36,3,0,2080111,0,5521252,0,0,0,0,0,0,0,0,0,0,0,0,0,0,0,0,0,2080111,0,0,0,0,0,0,0,0,0,0,0,3170040,0,0,0,0,1180181,-1171031
18,324,729.774542269297,0,0,774601.157581597,774602.2046498,0,50,14,1,0,20,3,4101121,0,6282302,3121011,0,0,0,4101121,0,0,0,0,0,0,0,0,0,0,0,0,0,0,0,-3171201,0,0,0,3111101,0,0,0,3121011,0,0,0,0,0,0,0,0
18,325,1145.29183926061,1,0,774604.08703646,774605.134107742,0,50,14,0,1,33,3,4180170,0,2112141,1180200,0,0,0,0,0,4180170,0,0,0,0,0,0,0,0,0,0,0,0,1091111,0,0,0,0,0,1021030,0,0,0,0,0,0,0,-1180200,0,0,0
18,326,1189.08632185776,0,0,774607.334141927,774608.381212055,0,50,14,1,0,27,7,6191272,4180032,3171041,9232323,0,0,2040081,0,0,4151191,0,0,0,0,0,0,0,2010021,0,0,2170011,0,0,0,0,0,0,0,0,0,-3171041,4021101,0,2071171,0,0,0,3140051,0,0
18,327,2064.7199699888,0,0,774610.710664839,774611.757740741,0,50,14,0,0,23,7,10561451,6151130,4142151,4131200,3201141,3190200,0,0,0,0,0,4170110,0,0,3080010,0,0,0,0,3071120,0,0,2011081,0,0,0,-2131070,0,0,0,0,0,0,0,4131200,0,0,0,0,0
18,328,1211.49614045862,1,0,774615.004850058,774616.051924035,0,50,14,1,1,8,7,8211180,6142311,3080171,8320161,0,0,0,0,0,0,4181100,-4030080,0,0,0,3061201,0,0,0,0,0,3081110,0,0,0,0,3080171,0,0,0,0,0,4100081,1140070,0,0,0,3080010,0,0
18,329,721.092869178392,1,0,774618.334310926,774619.381376434,0,50,14,1,1,22,3,2130041,4111041,4112332,0,0,0,0,0,0,2130041,0,0,0,0,0,4111041,0,0,0,0,0,0,0,0,0,-2031191,0,0,0,0,2081141,0,0,0,0,0,0,0,0,0
18,330,993.39720827993,0,0,774621.263770793,774622.310836686,0,50,14,0,0,15,3,3413272,3190080,0,0,0,1191021,0,0,0,0,1201100,1021151,0,0,0,0,0,0,-3190080,0,0,0,0,0,0,0,0,0,0,0,0,0,0,0,0,0,0,0,0,0
18,331,1181.88829405699,1,0,774624.334401007,774625.381516175,0,50,14,1,1,2,7,9281351,8401302,3242191,0,0,-2121021,0,4070180,0,0,0,3090150,0,0,0,0,2121050,0,0,2170111,0,4110141,0,0,0,0,2151141,0,0,1091050,0,0,0,0,0,0,0,0,0,0
18,332,644.345986656845,1,0,774627.616800601,774628.663873808,0,50,14,0,1,19,3,4201222,0,3061171,4101131,1100181,0,0,0,0,0,3101041,0,0,0,0,0,0,0,0,0,0,0,-3061171,0,0,0,0,0,0,0,0,0,0,0,0,0,0,4101131,0,0
18,333,1760.66084892955,0,0,774630.440380397,774631.487488637,0,50,14,0,0,17,7,7071252,2142162,3282240,7321231,4030181,0,0,0,0,0,0,3041071,0,0,0,0,0,1081021,0,0,-1061141,0,0,1141150,0,0,0,0,2141090,0,0,0,0,4150171,0,0,3171060,0,0,0
18,334,2317.18757923227,0,0,774634.358082741,774635.40513978,0,50,14,0,0,6,7,6152342,8122233,7142191,2011051,0,0,4101171,0,0,-2051171,0,0,0,4081191,1031031,0,0,0,0,3010011,0,0,0,3131030,0,0,4011161,0,0,0,0,0,2011051,0,0,0,0,0,0,0
18,335,1121.01995735429,1,0,774638.816967213,774639.864038495,0,50,14,1,1,7,3,7231300,0,0,1061031,0,2061050,0,4130170,0,0,-1040080,0,0,0,0,0,0,0,0,0,0,0,0,0,0,0,0,0,0,0,0,0,0,0,0,1061031,0,0,0,0
18,336,1363.20752953179,1,0,774642.075839827,774643.122903795,0,50,14,1,1,18,3,0,4211280,1150201,4201140,0,0,0,0,0,0,0,0,0,0,0,0,3170200,0,0,0,0,-1041080,0,0,0,0,0,1150201,0,0,0,0,0,0,0,0,0,0,4201140,0
18,337,574.523423565552,0,0,774648.699468976,774649.746542953,0,50,15,1,0,22,3,2130041,4111041,4112332,0,0,0,0,0,0,2130041,0,0,0,0,0,4111041,0,0,0,0,0,0,0,0,0,-2031191,0,0,0,0,2081141,0,0,0,0,0,0,0,0,0
18,338,790.456172195263,1,0,774651.487748101,774652.534815149,0,50,15,1,1,27,7,6191272,4180032,3171041,9232323,0,0,2040081,0,0,4151191,0,0,0,0,0,0,0,2010021,0,0,2170011,0,0,0,0,0,0,0,0,0,-3171041,4021101,0,2071171,0,0,0,3140051,0,0
18,339,812.529533635825,1,0,774654.393675984,774655.440745342,0,50,15,0,1,16,7,6291272,7090252,3051060,6402421,0,0,4181141,0,0,0,2110131,0,0,0,0,0,0,4060161,0,-3030091,0,0,0,0,0,0,0,3051060,0,0,0,0,1121140,0,0,0,1110191,0,0,4171090
18,340,1394.8164107278,0,0,774657.276066878,774658.323140085,0,50,15,0,0,6,7,4180241,3201211,6331482,3061100,0,0,0,0,0,-1070051,0,0,3110190,0,0,0,1160150,0,0,0,2041061,0,0,0,0,1181151,1050201,0,4100130,0,0,0,0,3061100,0,0,0,0,0,0
18,341,950.637889793143,0,0,774660.770296291,774661.81730213,0,50,15,0,0,28,3,0,4181111,4121202,4141111,0,0,0,0,0,0,0,0,0,0,0,0,0,0,0,0,0,4181111,2081061,0,0,0,0,2040141,0,0,0,-4141111,0,0,0,0,0,0,0,0
18,342,998.226947034709,0,0,774663.899704111,774664.946768079,0,50,15,0,0,19,7,9271301,3170020,3060141,5361331,0,0,0,0,4070051,1020140,4181110,0,0,0,0,0,0,0,3170020,0,0,0,-3060141,0,0,0,0,0,0,0,0,1151171,0,1150050,3060110,0,0,0,0,0
18,343,727.818163111806,0,0,774666.982101472,774668.029167365,0,50,15,1,0,21,7,5330272,2180161,3131220,6270431,0,3140171,0,0,0,0,0,0,2190101,2180161,0,0,0,0,0,0,0,0,0,0,-2010140,0,0,0,1121080,0,0,0,2040131,2110130,0,0,0,0,2120170,0
18,344,865.249755326658,1,0,774669.899787263,774670.946854311,0,50,15,0,1,29,7,1110181,8301521,0,6211431,0,0,0,0,0,0,1110181,0,0,0,0,0,0,0,3050151,1020060,1090120,3141190,0,0,0,0,0,0,0,0,0,0,-3090120,0,0,2011191,0,0,0,1110120
18,345,2488.51973400451,1,0,774672.864527398,774673.911599065,0,50,15,0,1,17,7,8580301,5310210,0,6122242,0,1200131,0,2090040,2130110,3160020,0,0,0,0,0,0,0,0,0,1150130,-4160080,0,0,0,0,0,0,0,0,0,0,4041181,0,0,0,0,0,0,0,2081061
18,346,1266.31363749038,1,0,774677.570495008,774678.617562826,0,50,15,1,1,7,3,7231300,0,0,1061031,0,2061050,0,4130170,0,0,-1040080,0,0,0,0,0,0,0,0,0,0,0,0,0,0,0,0,0,0,0,0,0,0,0,0,1061031,0,0,0,0
18,347,783.830583444797,0,0,774680.994069185,774682.041147397,0,50,15,1,0,20,3,4101121,0,6282302,3121011,0,0,0,4101121,0,0,0,0,0,0,0,0,0,0,0,0,0,0,0,-3171201,0,0,0,3111101,0,0,0,3121011,0,0,0,0,0,0,0,0
18,348,457.007863442414,1,0,774683.852943108,774684.900038643,0,50,15,0,1,9,3,4060141,1161041,0,5201312,0,0,0,0,0,0,0,0,-4060141,0,0,0,1161041,0,0,0,0,0,0,0,0,0,0,0,0,0,0,1021201,0,0,4180111,0,0,0,0,0
18,349,1107.91352600791,1,0,774686.453019869,774687.500040337,0,50,15,1,1,18,3,0,4211280,1150201,4201140,0,0,0,0,0,0,0,0,0,0,0,0,3170200,0,0,0,0,-1041080,0,0,0,0,0,1150201,0,0,0,0,0,0,0,0,0,0,4201140,0
18,350,557.486140634865,0,0,774689.641265734,774690.688318924,0,50,15,0,0,10,3,1050050,3070050,3041101,3170120,0,0,0,0,0,0,0,1050050,0,-3070050,0,0,0,0,0,0,0,0,0,0,0,3041101,0,0,0,0,0,0,0,0,0,0,0,0,0,3170120
18,351,1014.74068092648,0,0,774692.347188689,774693.394250733,0,50,15,1,0,2,7,9281351,8401302,3242191,0,0,-2121021,0,4070180,0,0,0,3090150,0,0,0,0,2121050,0,0,2170111,0,4110141,0,0,0,0,2151141,0,0,1091050,0,0,0,0,0,0,0,0,0,0
18,352,745.32933474984,1,0,774695.582529319,774696.629592903,0,50,15,1,1,36,3,0,2080111,0,5521252,0,0,0,0,0,0,0,0,0,0,0,0,0,0,0,0,0,2080111,0,0,0,0,0,0,0,0,0,0,0,3170040,0,0,0,0,1180181,-1171031
18,353,824.52188374009,1,0,774698.394361987,774699.441399393,0,50,15,0,1,23,3,1150020,1051131,5150300,0,0,1150020,0,0,0,0,0,0,0,0,1051131,0,0,0,0,0,0,0,0,0,0,0,-1120130,4030170,0,0,0,0,0,0,0,0,0,0,0,0
18,354,1298.22163446806,0,0,774701.39438239,774702.441450978,0,50,15,1,0,8,7,8211180,6142311,3080171,8320161,0,0,0,0,0,0,4181100,-4030080,0,0,0,3061201,0,0,0,0,0,3081110,0,0,0,0,3080171,0,0,0,0,0,4100081,1140070,0,0,0,3080010,0,0
18,355,1401.46086248569,0,0,774704.806189034,774705.853268786,0,50,15,1,0,1,7,2151241,4071010,4081111,8251210,-1020190,0,0,0,0,0,0,1131051,0,4071010,0,0,0,0,0,0,0,0,0,0,1071090,0,0,0,0,3010021,0,3200050,0,0,0,0,2030090,3021070,0,0
18,356,959.014672553167,0,0,774708.28859625,774709.335665608,0,50,15,0,0,15,3,7131210,2030191,4061061,0,4110160,0,0,0,0,0,3021050,0,0,0,0,0,0,0,-2030191,0,0,0,0,0,0,0,0,0,4061061,0,0,0,0,0,0,0,0,0,0,0
18,357,1255.23826805875,1,0,774711.500426454,774712.547481569,0,50,15,1,1,34,3,3201031,3131170,0,7102280,0,0,0,0,3201031,0,0,0,0,0,0,3131170,0,0,0,0,0,0,0,0,0,0,0,0,0,0,0,0,0,3081130,0,0,0,-4021150,0,0
18,358,926.738651352935,1,1,774714.971053435,774716.018123178,0,50,15,0,0,33,3,2180190,0,3090140,5231061,0,0,0,2180190,0,0,0,0,0,0,0,0,0,0,0,0,0,0,0,3090140,0,0,0,0,0,0,0,0,0,0,0,3030010,-2201051,0,0,0
18,359,758.322587003931,1,0,774718.053476589,774719.100526314,0,50,15,1,1,14,7,5102131,11290362,10330361,0,0,1041021,4061110,0,0,0,0,0,0,0,4140031,0,4120141,-3030190,0,0,0,0,0,0,3200130,0,3090141,0,0,0,4040090,0,0,0,0,0,0,0,0,0
18,360,1569.5574079873,1,0,774720.924084167,774721.97115314,0,50,15,0,1,25,7,5311231,2150030,2351201,6382351,0,0,0,2180120,0,0,0,3131111,0,0,0,2150030,0,0,0,0,0,0,0,0,1181131,0,0,0,-1170070,0,0,0,0,0,1201110,0,0,0,2051131,3130110
18,361,921.72952007968,0,0,774747.065654106,774748.112726543,0,50,16,1,0,36,3,0,2080111,0,5521252,0,0,0,0,0,0,0,0,0,0,0,0,0,0,0,0,0,2080111,0,0,0,0,0,0,0,0,0,0,0,3170040,0,0,0,0,1180181,-1171031
18,362,563.667482580058,0,0,774750.053935079,774751.101003667,0,50,16,1,0,14,7,5102131,11290362,10330361,0,0,1041021,4061110,0,0,0,0,0,0,0,4140031,0,4120141,-3030190,0,0,0,0,0,0,3200130,0,3090141,0,0,0,4040090,0,0,0,0,0,0,0,0,0
18,363,1083.56118679512,1,0,774752.71279907,774753.759869583,0,50,16,1,1,18,3,0,4211280,1150201,4201140,0,0,0,0,0,0,0,0,0,0,0,0,3170200,0,0,0,0,-1041080,0,0,0,0,0,1150201,0,0,0,0,0,0,0,0,0,0,4201140,0
18,364,443.583837943152,0,0,774755.912845574,774756.959904923,0,50,16,0,0,15,7,5190302,4161180,4231190,7352231,2180121,0,0,3010181,0,0,0,0,0,0,0,0,0,0,-3051010,1110170,0,0,0,3100090,0,0,0,1131100,0,0,0,3181061,0,0,0,0,0,0,0,4171170
18,365,430.311487871222,0,0,774758.54817989,774759.595249248,0,50,16,0,0,16,3,4110200,3192111,0,2140030,0,4110200,0,0,0,0,0,0,0,0,0,0,0,0,0,-1091050,0,2101061,0,0,0,0,0,0,0,0,0,0,0,2140030,0,0,0,0,0,0
18,366,1172.44247056078,1,0,774761.218812184,774762.265877307,0,50,16,1,1,8,7,8211180,6142311,3080171,8320161,0,0,0,0,0,0,4181100,-4030080,0,0,0,3061201,0,0,0,0,0,3081110,0,0,0,0,3080171,0,0,0,0,0,4100081,1140070,0,0,0,3080010,0,0
18,367,572.138581192121,1,0,774764.642385975,774765.689439164,0,50,16,1,1,22,3,2130041,4111041,4112332,0,0,0,0,0,0,2130041,0,0,0,0,0,4111041,0,0,0,0,0,0,0,0,0,-2031191,0,0,0,0,2081141,0,0,0,0,0,0,0,0,0
18,368,897.798329824582,0,0,774767.442431862,774768.489543566,0,50,16,0,0,10,7,3201111,9392352,5101271,2170121,0,0,0,0,0,0,0,3201111,0,-3180080,0,1051171,0,0,0,4150031,0,1011070,1020170,0,0,0,4081101,0,0,0,0,0,0,0,0,0,0,0,2170121,0
18,369,1055.36692240275,1,0,774770.560118731,774771.607187704,0,50,16,1,1,34,3,3201031,3131170,0,7102280,0,0,0,0,3201031,0,0,0,0,0,0,3131170,0,0,0,0,0,0,0,0,0,0,0,0,0,0,0,0,0,3081130,0,0,0,-4021150,0,0
18,370,483.747354592197,1,0,774773.842529489,774774.889621175,0,50,16,0,1,9,3,6341411,4131181,0,0,0,0,0,1171090,0,4030160,0,0,-1140161,0,0,0,0,4131181,0,0,0,0,0,0,0,0,0,0,0,0,0,0,0,0,0,0,0,0,0,0
18,371,1079.79009475093,1,0,774776.501385011,774777.548478621,0,50,16,0,1,6,7,13371632,1160101,0,5331212,0,0,3131131,2010161,3090090,-4040060,1100190,0,0,0,0,0,0,0,1160101,0,0,0,0,0,0,0,0,0,0,0,0,0,0,0,2150131,0,0,0,0,3181081
18,372,843.562896014191,0,0,774779.642607713,774780.689681306,0,50,16,0,0,33,3,3031190,3081110,3140170,4161101,3031190,0,0,0,0,0,0,0,0,0,0,0,0,0,0,3081110,0,0,0,0,0,0,0,0,0,0,3140170,0,0,0,0,0,-4161101,0,0,0
18,373,3214.37027002685,1,0,774782.689715567,774783.736784155,0,50,16,0,1,28,7,5111120,4030091,3020070,11331721,0,0,2090110,3021010,0,0,0,0,0,0,0,0,0,4030091,0,0,0,0,0,0,0,0,0,0,0,0,3020070,-4170200,2140201,0,0,1010140,0,0,4011180,0
18,374,632.557666744106,1,0,774788.042730747,774789.089817428,0,50,16,0,1,29,3,4111170,2080190,0,5221312,0,4111170,0,0,0,0,0,0,0,0,0,0,0,0,0,0,0,2080190,0,0,0,0,0,0,0,0,0,0,-2200121,0,0,3021191,0,0,0,0
18,375,358.441309537739,1,0,774790.889837908,774791.936912656,0,50,16,1,1,21,7,5330272,2180161,3131220,6270431,0,3140171,0,0,0,0,0,0,2190101,2180161,0,0,0,0,0,0,0,0,0,0,-2010140,0,0,0,1121080,0,0,0,2040131,2110130,0,0,0,0,2120170,0
18,376,1126.87254138291,0,0,774793.36050839,774794.407528472,0,50,16,1,0,27,7,6191272,4180032,3171041,9232323,0,0,2040081,0,0,4151191,0,0,0,0,0,0,0,2010021,0,0,2170011,0,0,0,0,0,0,0,0,0,-3171041,4021101,0,2071171,0,0,0,3140051,0,0
18,377,995.892919716425,0,0,774796.619367915,774797.666409556,0,50,16,1,0,2,7,9281351,8401302,3242191,0,0,-2121021,0,4070180,0,0,0,3090150,0,0,0,0,2121050,0,0,2170111,0,4110141,0,0,0,0,2151141,0,0,1091050,0,0,0,0,0,0,0,0,0,0
18,378,1378.08478809893,0,0,774799.737025527,774800.784097579,0,50,16,1,0,1,7,2151241,4071010,4081111,8251210,-1020190,0,0,0,0,0,0,1131051,0,4071010,0,0,0,0,0,0,0,0,0,0,1071090,0,0,0,0,3010021,0,3200050,0,0,0,0,2030090,3021070,0,0
18,379,834.464693674818,0,0,774803.195898064,774804.254737649,0,50,16,0,0,19,3,5301221,3121100,4160100,0,0,0,0,0,0,0,3131200,0,2170021,0,0,0,0,0,3121100,0,0,0,-4160100,0,0,0,0,0,0,0,0,0,0,0,0,0,0,0,0,0
18,380,873.024071799591,1,0,774806.137128158,774807.184191356,0,50,16,0,1,25,3,4191201,7222051,2140150,0,0,0,0,0,0,0,4191201,0,0,0,0,0,0,0,4031031,0,0,3191020,0,0,0,0,0,0,-2140150,0,0,0,0,0,0,0,0,0,0,0
18,381,1359.06841338146,1,0,774809.195997769,774810.243061738,0,50,16,0,1,23,7,10352211,4150050,1120040,3270391,0,0,0,0,3071020,4180140,0,0,3101051,0,0,0,0,0,4150050,0,0,0,0,0,0,0,-1120040,0,0,0,0,0,1100171,1120090,0,1050130,0,0,0,0
18,382,3302.18289804179,1,0,774812.760756152,774813.807815116,0,50,16,0,1,17,7,6230272,3331141,0,8293290,0,2050041,0,1010111,3170120,0,0,0,0,0,0,0,0,0,0,1141121,-2190020,0,0,0,0,0,0,0,0,0,0,0,0,0,1101050,4151180,0,3041060,0,0
18,383,991.720311809331,0,0,774818.231422013,774819.278496376,0,50,16,1,0,20,3,4101121,0,6282302,3121011,0,0,0,4101121,0,0,0,0,0,0,0,0,0,0,0,0,0,0,0,-3171201,0,0,0,3111101,0,0,0,3121011,0,0,0,0,0,0,0,0
18,384,716.767816222273,0,0,774821.443240283,774822.490316956,0,50,16,1,0,7,3,7231300,0,0,1061031,0,2061050,0,4130170,0,0,-1040080,0,0,0,0,0,0,0,0,0,0,0,0,0,0,0,0,0,0,0,0,0,0,0,0,1061031,0,0,0,0
18,385,546.809207298793,0,0,774827.502183808,774828.549222369,0,50,17,1,0,20,3,4101121,0,6282302,3121011,0,0,0,4101121,0,0,0,0,0,0,0,0,0,0,0,0,0,0,0,-3171201,0,0,0,3111101,0,0,0,3121011,0,0,0,0,0,0,0,0
18,386,1047.68615181092,1,0,774830.255160723,774831.302263572,0,50,17,0,1,10,7,5171211,12341101,2160220,4111160,1101050,0,0,0,0,0,4070161,0,0,-4100060,0,0,0,4111011,0,4130030,0,0,1060180,1100040,0,0,0,0,0,0,0,0,0,0,4111160,0,0,0,0,0
18,387,1081.31531591062,0,0,774833.525775461,774834.57284097,0,50,17,1,0,18,3,0,4211280,1150201,4201140,0,0,0,0,0,0,0,0,0,0,0,0,3170200,0,0,0,0,-1041080,0,0,0,0,0,1150201,0,0,0,0,0,0,0,0,0,0,4201140,0
18,388,3750.2722524805,1,0,774836.737582952,774837.784652695,0,50,17,0,1,33,7,10521341,7210180,7180251,1180161,0,0,0,0,4130050,0,4191181,2200110,0,3080010,0,0,0,0,0,4130170,0,0,0,0,0,0,3090070,4090181,0,0,0,0,0,0,0,0,-1180161,0,0,0
18,389,1581.96205273271,0,0,774842.725910121,774843.772979094,0,50,17,1,0,2,7,9281351,8401302,3242191,0,0,-2121021,0,4070180,0,0,0,3090150,0,0,0,0,2121050,0,0,2170111,0,4110141,0,0,0,0,2151141,0,0,1091050,0,0,0,0,0,0,0,0,0,0
18,390,1091.37900406495,0,0,774846.455394318,774847.502447122,0,50,17,0,0,28,7,3090121,6281290,3221241,9332211,0,0,0,0,3090121,0,0,0,0,0,0,0,2171090,0,0,0,0,4110200,0,0,0,2061200,0,1160041,0,0,0,-4071150,0,0,4070010,0,0,1191051,0,0
18,391,592.175491387025,1,0,774849.690727634,774850.737792757,0,50,17,0,1,9,3,4252150,4131050,0,4031190,0,0,0,0,0,0,3201070,0,-1051080,4131050,0,0,0,0,0,0,0,0,0,0,0,0,0,0,0,0,0,0,0,0,0,0,0,0,4031190,0
18,392,1464.06268503051,1,0,774852.443702623,774853.490771596,0,50,17,1,1,1,7,2151241,4071010,4081111,8251210,-1020190,0,0,0,0,0,0,1131051,0,4071010,0,0,0,0,0,0,0,0,0,0,1071090,0,0,0,0,3010021,0,3200050,0,0,0,0,2030090,3021070,0,0
18,393,747.775771073066,1,0,774856.126107838,774857.173172961,0,50,17,1,1,8,7,8211180,6142311,3080171,8320161,0,0,0,0,0,0,4181100,-4030080,0,0,0,3061201,0,0,0,0,0,3081110,0,0,0,0,3080171,0,0,0,0,0,4100081,1140070,0,0,0,3080010,0,0
18,394,1591.30239661317,0,0,774859.102625514,774860.149686788,0,50,17,0,0,6,7,7351081,0,5583392,1120081,3160040,0,0,0,0,-4191041,0,0,0,0,0,0,0,0,0,0,0,0,1141071,1091130,0,0,1200100,1050051,0,1101040,0,0,1120081,0,0,0,0,0,0,0
18,395,653.574306285009,1,0,774862.773270126,774863.820336019,0,50,17,0,1,23,3,0,1071011,5151231,4200150,0,0,0,0,0,0,0,0,0,0,0,0,0,0,0,1071011,0,0,0,0,0,0,-1080101,4071130,0,0,0,0,0,0,0,0,0,0,0,4200150
18,396,885.895290994085,1,0,774865.596832984,774866.643950077,0,50,17,1,1,34,3,3201031,3131170,0,7102280,0,0,0,0,3201031,0,0,0,0,0,0,3131170,0,0,0,0,0,0,0,0,0,0,0,0,0,0,0,0,0,3081130,0,0,0,-4021150,0,0
18,397,3164.73860212136,1,0,774868.59692037,774869.643955467,0,50,17,1,1,7,3,7231300,0,0,1061031,0,2061050,0,4130170,0,0,-1040080,0,0,0,0,0,0,0,0,0,0,0,0,0,0,0,0,0,0,0,0,0,0,0,0,1061031,0,0,0,0
18,398,1332.22151757218,0,0,774873.973440202,774875.020509945,0,50,17,0,0,17,3,0,3140150,9322231,0,0,0,0,0,0,0,0,0,0,0,0,0,0,0,0,0,-3140150,0,0,3151091,0,3070010,0,0,3101130,0,0,0,0,0,0,0,0,0,0,0
18,399,977.61413292028,1,0,774877.549963422,774878.59702508,0,50,17,0,1,29,3,3130150,0,1071181,5161192,0,0,3130150,0,0,0,0,0,0,0,0,0,0,0,0,0,0,0,0,0,1071181,0,0,0,0,0,0,0,-3131081,0,0,0,0,0,2030111,0
18,400,461.025331402197,1,0,774880.620592481,774881.667662994,0,50,17,0,1,15,7,2191161,5280040,2210181,8193453,0,0,0,0,0,0,2191161,0,0,1140010,0,0,0,0,-4140030,0,0,0,0,1070121,0,1140060,0,0,0,0,0,0,0,3071131,2061181,0,0,0,3061141,0
18,401,1420.17927637789,0,0,774883.220632286,774884.26769587,0,50,17,0,0,19,3,0,4141021,8240121,3141171,0,0,0,0,0,0,0,0,0,0,4141021,0,0,0,0,0,0,0,-4080020,0,0,0,0,0,0,4160101,0,0,0,0,0,0,0,0,3141171,0
18,402,2193.79672221839,1,0,774886.867834225,774887.914836215,0,50,17,1,1,36,3,0,2080111,0,5521252,0,0,0,0,0,0,0,0,0,0,0,0,0,0,0,0,0,2080111,0,0,0,0,0,0,0,0,0,0,0,3170040,0,0,0,0,1180181,-1171031
18,403,709.795376402326,0,0,774891.161921664,774892.208991792,0,50,17,1,0,14,7,5102131,11290362,10330361,0,0,1041021,4061110,0,0,0,0,0,0,0,4140031,0,4120141,-3030190,0,0,0,0,0,0,3200130,0,3090141,0,0,0,4040090,0,0,0,0,0,0,0,0,0
18,404,2125.06244785618,0,0,774894.032557345,774895.079627473,0,50,17,1,0,21,7,5330272,2180161,3131220,6270431,0,3140171,0,0,0,0,0,0,2190101,2180161,0,0,0,0,0,0,0,0,0,0,-2010140,0,0,0,1121080,0,0,0,2040131,2110130,0,0,0,0,2120170,0
18,405,909.371455782093,0,0,774898.397328123,774899.444395171,0,50,17,1,0,27,7,6191272,4180032,3171041,9232323,0,0,2040081,0,0,4151191,0,0,0,0,0,0,0,2010021,0,0,2170011,0,0,0,0,0,0,0,0,0,-3171041,4021101,0,2071171,0,0,0,3140051,0,0
18,406,727.32656612061,0,0,774901.562082424,774902.609154862,0,50,17,0,0,16,3,2171110,2061031,2090081,2190110,0,0,0,0,2171110,0,0,0,0,0,0,0,0,0,0,-2061031,0,0,0,0,0,0,0,2090081,0,0,0,0,0,0,0,2190110,0,0,0,0
18,407,568.273173295893,1,0,774904.350380028,774905.397442841,0,50,17,1,1,22,3,2130041,4111041,4112332,0,0,0,0,0,0,2130041,0,0,0,0,0,4111041,0,0,0,0,0,0,0,0,0,-2031191,0,0,0,0,2081141,0,0,0,0,0,0,0,0,0
18,408,1062.74280278012,1,0,774907.138688796,774908.185709263,0,50,17,0,1,25,7,11372423,0,5431171,1121130,4141200,4190141,0,0,1020051,0,0,0,2021031,0,0,0,0,0,0,0,0,0,0,2150030,2081041,0,0,0,-1200100,0,0,0,0,0,1121130,0,0,0,0,0
18,409,1055.96168932971,1,0,774936.974371426,774938.021503533,0,50,18,0,1,9,3,4120170,0,6221161,2081181,0,0,0,0,0,0,0,0,-4120170,0,0,0,0,0,0,0,0,0,0,0,0,3101040,0,0,3120121,0,0,0,0,0,0,0,0,0,2081181,0
18,410,859.576178714633,1,0,774940.103828906,774941.150904424,0,50,18,0,1,25,7,4161180,7340210,7351261,4282232,0,0,0,0,4161180,0,0,0,0,0,4200010,0,0,3140200,0,0,0,0,0,0,0,0,1180011,0,-2031170,4140080,0,0,0,0,0,0,0,2181191,0,2101041
18,411,946.585390134715,1,0,774943.209763641,774944.256830305,0,50,18,1,1,36,3,0,2080111,0,5521252,0,0,0,0,0,0,0,0,0,0,0,0,0,0,0,0,0,2080111,0,0,0,0,0,0,0,0,0,0,0,3170040,0,0,0,0,1180181,-1171031
18,412,714.086937718093,1,0,774946.245100499,774947.292168702,0,50,18,0,1,16,7,4131121,7362141,6261333,7160291,4131121,0,0,0,0,0,0,0,0,0,0,4191070,0,0,0,-3171071,0,0,2160101,3050071,0,0,0,0,0,1051161,0,0,0,0,3040131,0,4120160,0,0,0
18,413,576.350455288775,1,0,774949.151034156,774950.198106594,0,50,18,1,1,14,7,5102131,11290362,10330361,0,0,1041021,4061110,0,0,0,0,0,0,0,4140031,0,4120141,-3030190,0,0,0,0,0,0,3200130,0,3090141,0,0,0,4040090,0,0,0,0,0,0,0,0,0
18,414,565.206562401727,0,0,774951.809895838,774952.856962886,0,50,18,0,0,23,3,3232291,0,3101101,1200110,2131121,0,0,0,1101170,0,0,0,0,0,0,0,0,0,0,0,0,0,0,0,0,0,-3101101,0,0,0,0,1200110,0,0,0,0,0,0,0,0
18,415,622.981340973638,0,0,774954.53942238,774955.586410896,0,50,18,0,0,17,3,0,3040190,4100071,4161140,0,0,0,0,0,0,0,0,0,0,0,0,0,0,0,0,-3040190,0,0,0,0,0,0,0,0,4100071,0,1120020,0,0,0,0,3041120,0,0,0
18,416,781.506180297583,0,0,774957.327619124,774958.374685402,0,50,18,1,0,7,3,7231300,0,0,1061031,0,2061050,0,4130170,0,0,-1040080,0,0,0,0,0,0,0,0,0,0,0,0,0,0,0,0,0,0,0,0,0,0,0,0,1061031,0,0,0,0
18,417,420.981153147295,0,0,774960.19825134,774961.245363428,0,50,18,0,0,28,3,2100170,1201060,1121131,3181181,0,2100170,0,0,0,0,0,0,0,0,0,1201060,0,0,0,0,0,0,0,0,0,0,0,0,0,1121131,0,-3181181,0,0,0,0,0,0,0,0
18,418,439.452036167495,1,0,774962.833607599,774963.880653859,0,50,18,1,1,22,3,2130041,4111041,4112332,0,0,0,0,0,0,2130041,0,0,0,0,0,4111041,0,0,0,0,0,0,0,0,0,-2031191,0,0,0,0,2081141,0,0,0,0,0,0,0,0,0
18,419,755.540078622289,0,0,774965.433630851,774966.480696744,0,50,18,1,0,18,3,0,4211280,1150201,4201140,0,0,0,0,0,0,0,0,0,0,0,0,3170200,0,0,0,0,-1041080,0,0,0,0,0,1150201,0,0,0,0,0,0,0,0,0,0,4201140,0
18,420,2586.7313524941,1,0,774968.3513305,774969.398387154,0,50,18,0,1,33,7,3181161,8564441,2070181,1070030,0,0,0,0,0,0,3181161,0,0,1031031,0,1200100,0,2041180,0,2111030,2181100,0,0,0,0,0,0,2070181,0,0,0,0,0,0,0,0,-1070030,0,0,0
18,421,491.993250208907,0,0,774973.021974342,774974.069041005,0,50,18,1,0,20,3,4101121,0,6282302,3121011,0,0,0,4101121,0,0,0,0,0,0,0,0,0,0,0,0,0,0,0,-3171201,0,0,0,3111101,0,0,0,3121011,0,0,0,0,0,0,0,0
18,422,654.798486852087,1,0,774975.704438456,774976.751452764,0,50,18,1,1,2,7,9281351,8401302,3242191,0,0,-2121021,0,4070180,0,0,0,3090150,0,0,0,0,2121050,0,0,2170111,0,4110141,0,0,0,0,2151141,0,0,1091050,0,0,0,0,0,0,0,0,0,0
18,423,849.251101142727,1,0,774978.539702248,774979.586766986,0,50,18,1,1,34,3,3201031,3131170,0,7102280,0,0,0,0,3201031,0,0,0,0,0,0,3131170,0,0,0,0,0,0,0,0,0,0,0,0,0,0,0,0,0,3081130,0,0,0,-4021150,0,0
18,424,820.261119282804,0,0,774981.633870221,774982.68092957,0,50,18,0,0,29,7,0,2141110,9452642,5293412,0,0,0,0,0,0,0,0,0,0,0,0,0,2141110,0,0,0,0,0,0,0,3140150,0,1110170,3161201,0,2041121,0,-3111201,0,0,0,1131151,0,1051060,0
18,425,1142.89005869068,1,0,774984.622148884,774985.669214007,0,50,18,0,1,19,7,4031180,12411451,3211310,5270262,0,0,0,0,0,4031180,0,0,0,0,0,4180170,0,0,0,4051120,0,4180161,-1201130,0,0,0,2010180,0,0,0,0,0,0,0,2180181,0,0,0,3090081,0
18,426,832.424392690882,0,0,774987.857489129,774988.904556947,0,50,18,1,0,8,7,8211180,6142311,3080171,8320161,0,0,0,0,0,0,4181100,-4030080,0,0,0,3061201,0,0,0,0,0,3081110,0,0,0,0,3080171,0,0,0,0,0,4100081,1140070,0,0,0,3080010,0,0
18,427,1893.22189625818,0,0,774990.798708829,774991.845781652,0,50,18,0,0,6,7,10392262,0,5121171,9291312,4080081,0,0,0,0,-3181160,3131021,0,0,0,0,0,0,0,0,0,0,0,0,0,2031081,0,0,0,0,3090090,0,0,0,0,2110121,4161020,0,3020171,0,0
18,428,1043.18093636539,0,0,774994.939943465,774995.987008203,0,50,18,1,0,27,7,6191272,4180032,3171041,9232323,0,0,2040081,0,0,4151191,0,0,0,0,0,0,0,2010021,0,0,2170011,0,0,0,0,0,0,0,0,0,-3171041,4021101,0,2071171,0,0,0,3140051,0,0
18,429,476.143191452138,1,0,774998.151749801,774999.198823779,0,50,18,0,1,15,3,1161120,2120010,0,6271200,0,0,0,0,0,0,0,0,1161120,0,0,0,0,0,-2120010,0,0,0,0,0,0,0,0,0,0,0,0,0,0,2100020,4171180,0,0,0,0,0
18,430,2647.56119297817,1,0,775000.716501254,775001.763569842,0,50,18,1,1,1,7,2151241,4071010,4081111,8251210,-1020190,0,0,0,0,0,0,1131051,0,4071010,0,0,0,0,0,0,0,0,0,0,1071090,0,0,0,0,3010021,0,3200050,0,0,0,0,2030090,3021070,0,0
18,431,815.732036251575,0,0,775005.528337386,775006.575410979,0,50,18,1,0,21,7,5330272,2180161,3131220,6270431,0,3140171,0,0,0,0,0,0,2190101,2180161,0,0,0,0,0,0,0,0,0,0,-2010140,0,0,0,1121080,0,0,0,2040131,2110130,0,0,0,0,2120170,0
18,432,647.215111763217,1,0,775008.457788399,775009.504858142,0,50,18,0,1,10,3,4130180,9150340,0,0,0,0,0,0,0,0,0,0,4130180,-4070160,0,0,0,4070060,0,0,1010120,0,0,0,0,0,0,0,0,0,0,0,0,0,0,0,0,0,0,0
18,433,531.055389321409,1,0,775014.469646782,775015.516718065,0,50,19,1,1,14,7,5102131,11290362,10330361,0,0,1041021,4061110,0,0,0,0,0,0,0,4140031,0,4120141,-3030190,0,0,0,0,0,0,3200130,0,3090141,0,0,0,4040090,0,0,0,0,0,0,0,0,0
18,434,510.233540670015,0,0,775017.222633321,775018.269695365,0,50,19,0,0,16,3,6171082,1010091,1071121,0,2091041,0,0,4080041,0,0,0,0,0,0,0,0,0,0,0,-1010091,0,0,0,0,0,1071121,0,0,0,0,0,0,0,0,0,0,0,0,0,0
18,435,923.637393978424,0,0,775019.952148314,775020.999156463,0,50,19,0,0,29,7,5241212,5342291,3331211,5112221,0,0,0,0,1120041,0,4121171,0,0,0,0,0,0,0,0,2141141,0,3201150,0,0,2160070,0,0,1171141,0,0,0,0,-3081051,0,2031170,0,0,0,0,0
18,436,942.800054443069,1,0,775023.046251999,775024.093320202,0,50,19,1,1,2,7,9281351,8401302,3242191,0,0,-2121021,0,4070180,0,0,0,3090150,0,0,0,0,2121050,0,0,2170111,0,4110141,0,0,0,0,2151141,0,0,1091050,0,0,0,0,0,0,0,0,0,0
18,437,1317.07671005279,1,0,775026.081595016,775027.12865167,0,50,19,0,1,25,7,3171180,5200112,13231272,4200041,0,0,0,0,0,0,3171180,0,0,0,3170071,2030041,0,0,0,0,0,0,0,0,0,3010081,3011110,0,-3120040,0,4090041,0,0,0,0,0,0,0,0,4200041
18,438,981.786740943789,0,0,775029.563977979,775030.611050802,0,50,19,0,0,6,3,7332281,3101160,0,2190180,0,0,0,3191091,0,-4141190,0,0,0,0,0,0,0,0,0,0,0,3101160,0,0,0,0,0,0,0,0,0,0,2190180,0,0,0,0,0,0,0
18,439,838.275821879506,1,0,775032.693450858,775033.740517906,0,50,19,0,1,19,7,3050091,7300311,8202141,6241171,0,0,3050091,0,0,0,0,0,0,4180180,0,0,0,0,0,0,3120131,0,-3031041,0,3150020,0,0,0,0,0,2021080,0,0,0,0,0,2190070,0,0,4051101
18,440,410.08941072505,1,0,775035.634671712,775036.681732601,0,50,19,1,1,8,7,8211180,6142311,3080171,8320161,0,0,0,0,0,0,4181100,-4030080,0,0,0,3061201,0,0,0,0,0,3081110,0,0,0,0,3080171,0,0,0,0,0,4100081,1140070,0,0,0,3080010,0,0
18,441,855.31926411204,0,0,775038.246471735,775039.293561881,0,50,19,1,0,21,7,5330272,2180161,3131220,6270431,0,3140171,0,0,0,0,0,0,2190101,2180161,0,0,0,0,0,0,0,0,0,0,-2010140,0,0,0,1121080,0,0,0,2040131,2110130,0,0,0,0,2120170,0
18,442,1589.26094067283,1,0,775041.352399156,775042.399465819,0,50,19,1,1,1,7,2151241,4071010,4081111,8251210,-1020190,0,0,0,0,0,0,1131051,0,4071010,0,0,0,0,0,0,0,0,0,0,1071090,0,0,0,0,3010021,0,3200050,0,0,0,0,2030090,3021070,0,0
18,443,537.142800400034,0,0,775045.152451588,775046.199519791,0,50,19,0,0,17,3,4201071,3281232,3081050,0,0,0,0,4201071,0,0,0,0,0,0,0,0,0,0,0,0,-2181191,1100041,0,0,0,0,0,0,3081050,0,0,0,0,0,0,0,0,0,0,0
18,444,626.8667668337,0,0,775047.740730405,775048.787854428,0,50,19,1,0,20,3,4101121,0,6282302,3121011,0,0,0,4101121,0,0,0,0,0,0,0,0,0,0,0,0,0,0,0,-3171201,0,0,0,3111101,0,0,0,3121011,0,0,0,0,0,0,0,0
18,445,1164.67739315704,0,0,775050.587831792,775051.634908079,0,50,19,0,0,33,3,8373150,0,0,4131150,0,0,0,0,2141030,4171060,0,0,2061060,0,0,0,0,0,0,0,0,0,0,0,0,0,0,0,0,0,0,0,0,0,0,0,-4131150,0,0,0
18,446,544.007835676894,0,0,775053.952641836,775054.999643441,0,50,19,0,0,10,3,2130011,3050070,1150081,4090161,0,0,0,2130011,0,0,0,0,0,-3050070,0,0,0,0,0,0,0,0,0,0,0,0,0,0,0,0,1150081,0,0,0,0,0,0,0,0,4090161
18,447,531.69019240886,1,0,775056.693812338,775057.740877461,0,50,19,1,1,34,3,3201031,3131170,0,7102280,0,0,0,0,3201031,0,0,0,0,0,0,3131170,0,0,0,0,0,0,0,0,0,0,0,0,0,0,0,0,0,3081130,0,0,0,-4021150,0,0
18,448,416.122926981188,1,0,775059.411493201,775060.45855332,0,50,19,1,1,22,3,2130041,4111041,4112332,0,0,0,0,0,0,2130041,0,0,0,0,0,4111041,0,0,0,0,0,0,0,0,0,-2031191,0,0,0,0,2081141,0,0,0,0,0,0,0,0,0
18,449,705.76866925694,1,0,775061.940942828,775062.988008721,0,50,19,1,1,7,3,7231300,0,0,1061031,0,2061050,0,4130170,0,0,-1040080,0,0,0,0,0,0,0,0,0,0,0,0,0,0,0,0,0,0,0,0,0,0,0,0,1061031,0,0,0,0
18,450,1166.88938729931,0,0,775064.858699451,775065.905696051,0,50,19,1,0,36,3,0,2080111,0,5521252,0,0,0,0,0,0,0,0,0,0,0,0,0,0,0,0,0,2080111,0,0,0,0,0,0,0,0,0,0,0,3170040,0,0,0,0,1180181,-1171031
18,451,2714.56968062557,1,0,775068.188174563,775069.235166928,0,50,19,1,1,27,7,6191272,4180032,3171041,9232323,0,0,2040081,0,0,4151191,0,0,0,0,0,0,0,2010021,0,0,2170011,0,0,0,0,0,0,0,0,0,-3171041,4021101,0,2071171,0,0,0,3140051,0,0
18,452,953.878888627514,1,0,775073.11758169,775074.164699168,0,50,19,1,1,18,3,0,4211280,1150201,4201140,0,0,0,0,0,0,0,0,0,0,0,0,3170200,0,0,0,0,-1041080,0,0,0,0,0,1150201,0,0,0,0,0,0,0,0,0,0,4201140,0
18,453,451.316578662954,0,0,775076.24703455,775077.294110453,0,50,19,0,0,15,7,3051070,6161310,9312401,2281270,0,0,0,0,0,0,3051070,0,0,0,0,0,2111120,0,-4050190,0,0,0,3050200,0,0,0,0,0,0,2191060,4071141,0,0,1141080,0,0,1140190,0,0,0
18,454,707.165312953293,0,0,775078.941199598,775079.988264721,0,50,19,0,0,28,3,4050101,0,4201100,3232181,0,0,0,0,0,0,0,0,4050101,0,0,0,0,0,0,0,0,0,4201100,0,0,0,0,0,0,0,0,-2121100,0,1111081,0,0,0,0,0,0
18,455,563.56854736805,1,0,775081.764764766,775082.811834893,0,50,19,0,1,23,7,8392340,0,10123381,4222152,2091090,3171070,0,0,0,3130180,0,0,0,0,0,0,0,0,0,0,0,0,4091170,0,0,0,-4021031,0,0,2011180,0,0,2111051,0,0,0,0,0,0,2111101
18,456,1557.49614967499,0,0,775084.458920189,775085.505988777,0,50,19,0,0,9,7,2100121,0,6351103,11361412,0,0,0,0,0,0,0,0,-2100121,0,0,0,0,0,0,0,0,0,0,2130021,2111071,0,0,0,2110011,0,0,0,0,0,0,3041081,3090200,4070050,0,1160081
18,457,628.888589679264,0,0,775091.388713433,775092.435518322,0,50,20,0,0,33,3,0,2040180,3050120,5171241,0,0,0,0,0,0,0,0,0,0,0,0,0,2040180,0,0,0,0,0,0,0,0,0,0,3050120,0,0,0,0,0,0,0,-3111191,0,0,2060050
18,458,752.64708569739,1,0,775094.223770115,775095.270842168,0,50,20,1,1,7,3,7231300,0,0,1061031,0,2061050,0,4130170,0,0,-1040080,0,0,0,0,0,0,0,0,0,0,0,0,0,0,0,0,0,0,0,0,0,0,0,0,1061031,0,0,0,0
18,459,946.582310483791,0,0,775097.070877276,775098.117948174,0,50,20,1,0,21,7,5330272,2180161,3131220,6270431,0,3140171,0,0,0,0,0,0,2190101,2180161,0,0,0,0,0,0,0,0,0,0,-2010140,0,0,0,1121080,0,0,0,2040131,2110130,0,0,0,0,2120170,0
18,460,867.265418637544,1,0,775100.070915772,775101.118012463,0,50,20,0,1,10,3,1150011,5121191,0,1101120,0,0,0,0,0,0,1150011,0,0,-1091011,0,0,0,0,0,4030180,0,0,0,0,0,0,0,0,0,0,0,0,0,0,0,1101120,0,0,0,0
18,461,844.795545795932,0,0,775102.988605028,775104.03568093,0,50,20,0,0,15,3,7142172,2091121,2071060,0,0,0,3061111,4081061,0,0,0,0,0,0,0,0,0,0,-2091121,0,0,0,0,0,0,2071060,0,0,0,0,0,0,0,0,0,0,0,0,0,0
18,462,454.347387887537,1,0,775105.929827807,775106.97689755,0,50,20,1,1,22,3,2130041,4111041,4112332,0,0,0,0,0,0,2130041,0,0,0,0,0,4111041,0,0,0,0,0,0,0,0,0,-2031191,0,0,0,0,2081141,0,0,0,0,0,0,0,0,0
18,463,992.409779573791,0,0,775108.471048815,775109.518118558,0,50,20,1,0,2,7,9281351,8401302,3242191,0,0,-2121021,0,4070180,0,0,0,3090150,0,0,0,0,2121050,0,0,2170111,0,4110141,0,0,0,0,2151141,0,0,1091050,0,0,0,0,0,0,0,0,0,0
18,464,794.986410182901,0,0,775111.612255349,775112.659336256,0,50,20,0,0,28,3,7141082,0,0,5150132,0,0,0,0,0,3130011,4011071,0,0,0,0,0,0,0,0,0,0,0,0,0,0,0,0,0,0,0,0,-3060021,0,0,0,0,0,0,0,2090111
18,465,1789.47451792192,0,0,775114.482905274,775115.52998618,0,50,20,0,0,29,7,9382350,0,7371391,4172231,3101200,0,3160080,0,0,0,0,0,3121070,0,0,0,0,0,0,0,0,0,0,0,3061190,2200090,0,2110111,0,0,0,0,-1131120,0,3041111,0,0,0,0,0
