sub_id,Trial,RT,Resp,Error,Fix_onset,Disp_onset,q1,q2,block,repeat,tid,tloc,d_setsize,quad1,quad2,quad3,quad4,loc1,loc2,loc3,loc4,loc5,loc6,loc7,loc8,loc9,loc10,loc11,loc12,loc13,loc14,loc15,loc16,loc17,loc18,loc19,loc20,loc21,loc22,loc23,loc24,loc25,loc26,loc27,loc28,loc29,loc30,loc31,loc32,loc33,loc34,loc35,loc36
16,1,1075.72670443915,0,0,678128.834931597,678129.882010194,0,25,1,0,0,35,3,0,1031090,3201061,7121280,0,0,0,0,0,0,0,0,0,0,0,0,0,0,0,0,1031090,0,3201061,0,0,0,0,0,0,0,0,0,0,3110180,0,0,0,0,-4011100,0
16,2,622.771809692495,1,0,678132.105581367,678133.15264957,0,25,1,0,1,8,3,6132162,0,1180130,1170100,0,0,0,0,0,0,0,-2031081,4101081,0,0,0,0,0,0,0,0,0,0,0,0,0,0,0,0,1180130,0,0,0,1170100,0,0,0,0,0,0
16,3,622.988543589599,1,0,678134.964436042,678136.011512714,0,25,1,1,1,33,7,4180031,0,12542403,9322232,0,0,4180031,0,0,0,0,0,0,0,0,0,0,0,0,0,0,0,4171141,0,2010091,0,0,4181161,2180010,0,0,0,0,0,0,4160011,-2101191,0,0,3061030
16,4,707.42120128125,1,0,678137.729183184,678138.776257161,0,25,1,1,1,5,3,4100190,2131041,2130060,1040050,0,0,0,0,-4100190,0,0,0,0,0,0,0,0,0,0,0,0,2131041,2130060,0,0,0,0,0,0,0,0,0,0,0,0,0,0,0,1040050,0
16,5,584.596624132246,0,1,678140.693934867,678141.740997681,0,25,1,0,1,29,3,2161011,0,3211351,4010041,0,0,2161011,0,0,0,0,0,0,0,0,0,0,0,0,0,0,0,0,0,0,0,0,0,1170181,0,2041170,0,-4010041,0,0,0,0,0,0,0
16,6,741.597397136502,0,0,678143.446906777,678144.493992689,0,25,1,1,0,13,7,3071121,7221211,2211190,8142332,0,0,0,3071121,0,0,0,0,0,0,0,0,-4100111,3121100,0,0,0,0,0,0,0,0,0,1180040,0,1031150,0,0,3071080,0,0,0,2030191,0,0,3041061
16,7,620.811580913141,1,0,678146.411658846,678147.458742063,0,25,1,1,1,18,3,2131191,2251350,4061081,0,0,0,0,0,2131191,0,0,0,0,0,1171160,0,0,0,0,0,0,-1080190,0,0,0,0,4061081,0,0,0,0,0,0,0,0,0,0,0,0,0
16,8,467.678525601514,0,0,678149.105828513,678150.152894791,0,25,1,0,0,17,7,6452322,4110010,7260151,7192260,0,0,0,1091161,0,0,0,1161140,4200021,0,0,0,0,0,0,0,-4110010,0,0,0,0,3120140,0,0,0,4140011,0,4171060,3021200,0,0,0,0,0,0,0
16,9,603.365082992241,1,0,678151.799972002,678152.847050984,0,25,1,0,1,20,3,5261182,0,6090170,0,0,0,0,3080041,0,0,2181141,0,0,0,0,0,0,0,0,0,0,0,0,-3070160,3020010,0,0,0,0,0,0,0,0,0,0,0,0,0,0,0
16,10,737.119898898527,1,0,678154.494138589,678155.541212182,0,25,1,0,1,9,7,9413211,4181262,3051120,6182142,0,0,0,3191120,0,4051061,0,0,-2171030,0,0,0,0,0,0,3100081,1081181,0,0,0,0,0,3051120,0,0,0,0,2091131,0,0,0,0,0,0,4091011,0
16,11,3188.44563246239,1,0,678157.411836314,678158.458900667,0,25,1,0,1,11,7,4081060,7653571,4181191,8170160,0,0,4081060,0,0,0,0,0,0,0,-2190180,3111070,1151141,0,0,0,1201180,0,0,0,0,4181191,0,0,0,0,0,4130120,0,0,0,0,0,4040040,0,0
16,12,1033.5590733448,0,0,678162.764870742,678163.811923931,0,25,1,0,0,27,7,3222413,5222231,6070231,1181150,1051131,0,1070111,0,0,1101171,0,0,0,0,0,1181170,4041061,0,0,0,0,0,2020121,0,0,0,0,0,0,0,-4050110,0,0,0,0,0,1181150,0,0,0
16,13,480.390370474197,0,0,678165.859014077,678166.9060869,0,25,1,1,0,23,3,0,1080131,2070191,3211261,0,0,0,0,0,0,0,0,0,0,0,0,0,0,1080131,0,0,0,0,0,0,0,-2070191,0,0,0,0,0,0,0,0,2121130,0,1090131,0,0
16,14,1314.82841772959,0,1,678168.494349549,678169.541437,0,25,1,1,1,31,7,8432301,4050171,5040130,3231260,0,0,0,1191191,3041030,0,4200080,0,0,0,0,0,0,0,0,0,0,4050171,0,0,2020060,0,3020070,0,0,0,0,0,0,0,-2030060,0,0,0,1201200,0
16,15,1035.31026747078,0,0,678172.023810725,678173.070881238,0,25,1,0,0,28,7,2140160,4380391,2141352,8251482,0,0,0,0,0,0,2140160,0,0,0,0,1200191,0,3180200,0,0,0,0,1041171,0,0,0,0,1100181,0,0,0,-2020201,0,0,3141130,0,0,0,3090151,0
16,16,788.115488714539,1,0,678175.25915482,678176.306226487,0,25,1,1,1,34,3,4131181,0,2050150,5251191,4131181,0,0,0,0,0,0,0,0,0,0,0,0,0,0,0,0,0,0,0,0,0,2050150,0,0,0,0,0,0,0,0,0,0,-3081130,2170061,0
16,17,414.542159647681,1,0,678178.188606602,678179.235681735,0,25,1,0,1,22,3,3021010,5180201,2030110,0,0,0,0,3021010,0,0,0,0,0,0,0,0,0,0,0,1120050,4060151,0,0,0,0,-2030110,0,0,0,0,0,0,0,0,0,0,0,0,0,0
16,18,1441.29781925585,0,0,678180.729884585,678181.776893889,0,25,1,1,0,1,7,4100131,4081380,4221212,12421273,-4100131,0,0,0,0,0,0,0,0,0,0,2041200,0,0,0,0,0,2040180,3020121,0,0,0,0,1201091,0,0,0,4160101,0,0,0,0,0,0,4141071,4120101
16,19,617.56057315506,0,0,678184.247526644,678185.294594847,0,25,1,1,0,14,3,0,9071380,1010111,0,0,0,0,0,0,0,0,0,0,3011200,0,0,0,-2040170,4020010,0,0,0,1010111,0,0,0,0,0,0,0,0,0,0,0,0,0,0,0,0,0
16,20,828.170446096919,0,0,678187.071083343,678188.11816348,0,25,1,1,0,36,3,0,1091020,4201011,6120301,0,0,0,0,0,0,0,0,0,0,0,0,0,0,0,1091020,0,0,4201011,0,0,0,0,0,0,0,0,0,0,0,0,0,0,0,3010140,-3110161
16,21,414.586430299096,1,0,678190.047606408,678191.094675766,0,25,1,1,1,15,7,5272172,3130081,6160202,5221181,2051070,2150041,0,0,1071061,0,0,0,0,0,0,0,0,0,-3130081,0,0,0,0,0,0,2070021,0,4090181,0,0,0,0,2180040,3041141,0,0,0,0,0,0
16,22,862.257330561988,0,0,678192.682945344,678193.730012393,0,25,1,0,0,32,3,1151040,1011130,0,4251200,0,0,0,0,0,0,0,1151040,0,0,1011130,0,0,0,0,0,0,0,0,0,0,0,0,0,0,0,0,0,0,0,0,-1191020,0,0,3060180,0
16,23,516.007865546271,0,0,678195.729836893,678196.777115242,0,25,1,1,0,24,7,2170051,5371161,9413552,3040190,0,0,0,0,0,0,0,2170051,0,0,0,1181101,0,0,0,4190060,0,0,0,2061180,2051040,0,0,-3181151,0,0,2120181,0,0,0,0,0,3040190,0,0,0
16,24,693.50172940176,0,0,678198.353617289,678199.400683567,0,25,1,0,0,25,7,6392531,0,10320360,4100031,0,0,0,0,3181190,1141161,2070180,0,0,0,0,0,0,0,0,0,0,0,4200180,2010050,0,0,3020020,0,-1090110,0,0,0,0,0,0,0,0,4100031,0,0
16,25,854.912632028572,1,0,678218.753910091,678219.800978679,0,25,2,1,1,33,7,4180031,0,12542403,9322232,0,0,4180031,0,0,0,0,0,0,0,0,0,0,0,0,0,0,0,4171141,0,2010091,0,0,4181161,2180010,0,0,0,0,0,0,4160011,-2101191,0,0,3061030
16,26,570.49775950145,0,0,678221.836317462,678222.88338682,0,25,2,0,0,35,3,3010180,0,0,9282181,0,0,0,0,0,3010180,0,0,0,0,0,0,0,0,0,0,0,0,0,0,0,0,0,0,0,0,0,0,0,3191060,0,0,0,0,-3050021,3041100
16,27,1057.29932221584,0,0,678224.624581189,678225.671650931,0,25,2,1,0,1,7,4100131,4081380,4221212,12421273,-4100131,0,0,0,0,0,0,0,0,0,0,2041200,0,0,0,0,0,2040180,3020121,0,0,0,0,1201091,0,0,0,4160101,0,0,0,0,0,0,4141071,4120101
16,28,873.475136118941,0,0,678227.883454188,678228.93053702,0,25,2,1,0,34,3,4131181,0,2050150,5251191,4131181,0,0,0,0,0,0,0,0,0,0,0,0,0,0,0,0,0,0,0,0,0,2050150,0,0,0,0,0,0,0,0,0,0,-3081130,2170061,0
16,29,532.026152824983,0,0,678230.871744785,678231.918807984,0,25,2,1,0,5,3,4100190,2131041,2130060,1040050,0,0,0,0,-4100190,0,0,0,0,0,0,0,0,0,0,0,0,2131041,2130060,0,0,0,0,0,0,0,0,0,0,0,0,0,0,0,1040050,0
16,30,483.754942193627,0,0,678233.60119241,678234.648267158,0,25,2,1,0,24,7,2170051,5371161,9413552,3040190,0,0,0,0,0,0,0,2170051,0,0,0,1181101,0,0,0,4190060,0,0,0,2061180,2051040,0,0,-3181151,0,0,2120181,0,0,0,0,0,3040190,0,0,0
16,31,605.308373458683,1,1,678236.283583766,678237.330651584,0,25,2,0,0,32,3,0,5121350,3030010,1090121,0,0,0,0,0,0,0,0,0,0,0,2100200,0,0,0,0,0,3021150,3030010,0,0,0,0,0,0,0,0,0,0,0,0,-1090121,0,0,0,0
16,32,543.936890899204,1,0,678239.071869436,678240.118938024,0,25,2,0,1,17,3,0,1101061,4080140,1151090,0,0,0,0,0,0,0,0,0,0,0,0,0,0,0,0,-1101061,0,0,1010010,0,3070130,0,0,0,0,0,0,0,0,0,0,1151090,0,0,0
16,33,534.360180259682,1,0,678241.695430447,678242.742497495,0,25,2,1,1,23,3,0,1080131,2070191,3211261,0,0,0,0,0,0,0,0,0,0,0,0,0,0,1080131,0,0,0,0,0,0,0,-2070191,0,0,0,0,0,0,0,0,2121130,0,1090131,0,0
16,34,578.656268538907,0,0,678244.366065819,678245.413127863,0,25,2,1,0,18,3,2131191,2251350,4061081,0,0,0,0,0,2131191,0,0,0,0,0,1171160,0,0,0,0,0,0,-1080190,0,0,0,0,4061081,0,0,0,0,0,0,0,0,0,0,0,0,0
16,35,538.232132443227,0,0,678247.189627908,678248.2367015,0,25,2,0,0,9,3,6370250,4101161,3101191,0,3180150,0,0,0,0,0,0,0,-3190100,0,0,0,4101161,0,0,0,0,0,0,0,3101191,0,0,0,0,0,0,0,0,0,0,0,0,0,0,0
16,36,838.437394355424,0,0,678249.860260201,678250.907331868,0,25,2,0,0,20,7,3281241,7031382,3070110,12102462,2201041,1080200,0,0,0,0,0,0,0,3020181,4011201,0,0,0,0,0,0,0,0,-3070110,0,0,0,0,0,0,0,0,0,0,0,4021191,4030071,0,0,4051200
16,37,438.651972450316,1,0,678252.813235883,678253.860312171,0,25,2,0,1,22,7,1170031,7232391,6271371,6220232,0,0,0,0,0,0,0,0,1170031,2010050,3101151,2121190,0,0,0,0,0,0,0,0,4161180,-2110191,0,0,0,0,0,0,0,0,0,0,4140041,0,2080191,0
16,38,875.894240103662,0,0,678255.342694364,678256.389759873,0,25,2,1,0,13,7,3071121,7221211,2211190,8142332,0,0,0,3071121,0,0,0,0,0,0,0,0,-4100111,3121100,0,0,0,0,0,0,0,0,0,1180040,0,1031150,0,0,3071080,0,0,0,2030191,0,0,3041061
16,39,416.941245552152,0,0,678258.436852713,678259.483918222,0,25,2,1,0,14,3,0,9071380,1010111,0,0,0,0,0,0,0,0,0,0,3011200,0,0,0,-2040170,4020010,0,0,0,1010111,0,0,0,0,0,0,0,0,0,0,0,0,0,0,0,0,0
16,40,510.644953814335,1,0,678260.930996665,678261.978069102,0,25,2,1,1,15,7,5272172,3130081,6160202,5221181,2051070,2150041,0,0,1071061,0,0,0,0,0,0,0,0,0,-3130081,0,0,0,0,0,0,2070021,0,4090181,0,0,0,0,2180040,3041141,0,0,0,0,0,0
16,41,479.26127561368,1,0,678263.507523734,678264.554588087,0,25,2,0,1,28,3,0,1171141,0,3311361,0,0,0,0,0,0,0,0,0,0,0,0,0,1171141,0,0,0,0,0,0,0,0,0,0,0,0,0,-1040190,1151151,0,0,0,0,0,0,1120020
16,42,398.305598646402,0,1,678266.072257863,678267.119332226,0,25,2,0,1,27,7,8401291,7290191,4180112,1141051,0,0,0,0,0,4121050,1190091,3090150,0,0,0,0,0,0,3150070,0,4140121,0,0,0,0,0,0,0,0,1170041,-3010071,0,0,0,0,0,1141051,0,0,0
16,43,483.510106103495,1,0,678268.636993533,678269.684078674,0,25,2,0,1,8,3,4140141,6221330,1011071,0,0,0,0,0,0,0,0,-4140141,0,0,4020200,2201130,0,0,0,0,0,0,0,0,0,1011071,0,0,0,0,0,0,0,0,0,0,0,0,0,0
16,44,818.228790885769,1,0,678271.366453476,678272.413526684,0,25,2,0,1,29,7,1060041,8340292,11222231,5341331,1060041,0,0,0,0,0,0,0,0,0,0,4160201,4180091,0,0,0,0,0,0,4010020,0,0,4151030,3061181,0,0,0,0,-2190150,0,0,0,3151181,0,0,0
16,45,555.06961978972,1,0,678274.319446097,678275.366493898,0,25,2,1,1,36,3,0,1091020,4201011,6120301,0,0,0,0,0,0,0,0,0,0,0,0,0,0,0,1091020,0,0,4201011,0,0,0,0,0,0,0,0,0,0,0,0,0,0,0,3010140,-3110161
16,46,654.382615699433,0,0,678277.084187464,678278.131254897,0,25,2,1,0,31,7,8432301,4050171,5040130,3231260,0,0,0,1191191,3041030,0,4200080,0,0,0,0,0,0,0,0,0,0,4050171,0,0,2020060,0,3020070,0,0,0,0,0,0,0,-2030060,0,0,0,1201200,0
16,47,744.282125146128,1,0,678279.931290776,678280.978362829,0,25,2,0,1,25,7,3141010,9422123,4221231,1200161,0,0,0,3141010,0,0,0,0,0,0,0,0,1180031,4101061,0,0,3050021,1091010,0,0,0,1091070,0,0,-3130161,0,0,0,0,0,1200161,0,0,0,0,0
16,48,574.483275646344,0,0,678282.79015777,678283.837220968,0,25,2,0,0,11,7,10130161,4110021,5462581,0,0,0,3030080,0,0,0,3020061,0,4080020,0,-4110021,0,0,0,0,0,0,0,0,1101180,1131190,0,0,0,1080071,0,2150140,0,0,0,0,0,0,0,0,0
16,49,725.843963911757,0,0,678301.437480587,678302.484618468,0,25,3,1,0,5,3,4100190,2131041,2130060,1040050,0,0,0,0,-4100190,0,0,0,0,0,0,0,0,0,0,0,0,2131041,2130060,0,0,0,0,0,0,0,0,0,0,0,0,0,0,0,1040050,0
16,50,744.028049986809,1,0,678304.343411164,678305.390483602,0,25,3,1,1,1,7,4100131,4081380,4221212,12421273,-4100131,0,0,0,0,0,0,0,0,0,0,2041200,0,0,0,0,0,2040180,3020121,0,0,0,0,1201091,0,0,0,4160101,0,0,0,0,0,0,4141071,4120101
16,51,494.574311655015,1,0,678307.319925376,678308.366994349,0,25,3,0,1,17,7,0,10342281,3200271,7122273,0,0,0,0,0,0,0,0,0,0,0,0,0,0,0,3201010,-3100140,4041131,0,0,0,0,0,0,2070160,0,1130111,0,0,0,0,1021031,0,0,2031111,4070131
16,52,617.808873881586,0,0,678310.037615478,678311.084683681,0,25,3,1,0,36,3,0,1091020,4201011,6120301,0,0,0,0,0,0,0,0,0,0,0,0,0,0,0,1091020,0,0,4201011,0,0,0,0,0,0,0,0,0,0,0,0,0,0,0,3010140,-3110161
16,53,533.984841778874,1,0,678312.802382637,678313.849425433,0,25,3,1,1,18,3,2131191,2251350,4061081,0,0,0,0,0,2131191,0,0,0,0,0,1171160,0,0,0,0,0,0,-1080190,0,0,0,0,4061081,0,0,0,0,0,0,0,0,0,0,0,0,0
16,54,395.405291579664,0,0,678315.425929404,678316.473005691,0,25,3,0,0,22,7,4222171,2191251,8183161,0,2091010,0,0,0,2131161,0,0,0,0,0,1121191,1070060,0,0,0,0,0,0,1101050,0,2011021,-3040020,0,2031070,0,0,0,0,0,0,0,0,0,0,0,0
16,55,362.423634273,1,0,678317.884793087,678318.93186129,0,25,3,0,1,28,3,4240202,0,0,2182391,0,0,0,0,1040041,0,3200161,0,0,0,0,0,0,0,0,0,0,0,0,0,0,0,0,0,0,0,0,-1041191,0,0,0,0,0,0,0,1141200
16,56,490.841715829447,0,0,678320.296648237,678321.34365985,0,25,3,1,0,24,7,2170051,5371161,9413552,3040190,0,0,0,0,0,0,0,2170051,0,0,0,1181101,0,0,0,4190060,0,0,0,2061180,2051040,0,0,-3181151,0,0,2120181,0,0,0,0,0,3040190,0,0,0
16,57,530.273033888079,0,0,678322.979031508,678324.02605852,0,25,3,0,0,8,3,6400431,2190040,0,0,0,3190180,0,0,0,0,1180161,-2030090,0,0,0,0,0,2190040,0,0,0,0,0,0,0,0,0,0,0,0,0,0,0,0,0,0,0,0,0,0
16,58,892.757519846782,0,0,678325.755503451,678326.802571269,0,25,3,0,0,20,7,5322111,7262290,4071151,6332391,0,0,0,0,2191090,3131021,0,0,0,0,3140060,0,0,0,2061040,2061190,0,0,0,-4071151,0,0,0,0,0,0,0,0,0,3201190,0,0,0,0,0,3131201
16,59,414.305022684857,0,0,678328.732008423,678329.77908702,0,25,3,1,0,15,7,5272172,3130081,6160202,5221181,2051070,2150041,0,0,1071061,0,0,0,0,0,0,0,0,0,-3130081,0,0,0,0,0,0,2070021,0,4090181,0,0,0,0,2180040,3041141,0,0,0,0,0,0
16,60,520.085387863219,0,0,678331.320281081,678332.367345819,0,25,3,1,0,14,3,0,9071380,1010111,0,0,0,0,0,0,0,0,0,0,3011200,0,0,0,-2040170,4020010,0,0,0,1010111,0,0,0,0,0,0,0,0,0,0,0,0,0,0,0,0,0
16,61,713.068985263817,1,0,678333.979143147,678335.02621212,0,25,3,0,1,32,3,3161120,1131021,0,5201190,0,0,3161120,0,0,0,0,0,0,0,0,0,0,0,0,1131021,0,0,0,0,0,0,0,0,0,0,0,4170020,0,0,0,-1031170,0,0,0,0
16,62,565.44435757678,0,0,678336.755680533,678337.802730258,0,25,3,1,0,33,7,4180031,0,12542403,9322232,0,0,4180031,0,0,0,0,0,0,0,0,0,0,0,0,0,0,0,4171141,0,2010091,0,0,4181161,2180010,0,0,0,0,0,0,4160011,-2101191,0,0,3061030
16,63,593.363758758642,1,0,678339.402751585,678340.449822868,0,25,3,0,1,35,3,2060150,5172161,0,4021070,0,0,0,0,0,0,0,2060150,0,0,0,0,3101141,0,0,2071020,0,0,0,0,0,0,0,0,0,0,0,0,0,0,0,0,0,0,-4021070,0
16,64,810.879088006914,1,0,678342.120444382,678343.16751528,0,25,3,1,1,31,7,8432301,4050171,5040130,3231260,0,0,0,1191191,3041030,0,4200080,0,0,0,0,0,0,0,0,0,0,4050171,0,0,2020060,0,3020070,0,0,0,0,0,0,0,-2030060,0,0,0,1201200,0
16,65,796.299790265039,1,0,678345.144018712,678346.191075751,0,25,3,1,1,13,7,3071121,7221211,2211190,8142332,0,0,0,3071121,0,0,0,0,0,0,0,0,-4100111,3121100,0,0,0,0,0,0,0,0,0,1180040,0,1031150,0,0,3071080,0,0,0,2030191,0,0,3041061
16,66,367.101697949693,0,0,678348.049945055,678349.097011718,0,25,3,0,0,27,3,3161351,2081141,4111160,0,0,0,0,0,1151201,0,0,2010150,0,0,0,0,0,0,0,0,0,2081141,0,0,0,0,0,0,0,0,-4111160,0,0,0,0,0,0,0,0,0
16,67,369.805674185045,0,0,678350.532346882,678351.57941085,0,25,3,0,0,11,3,2160030,5130151,0,2031080,0,0,0,0,0,0,0,0,2160030,0,-3020100,0,2110051,0,0,0,0,0,0,0,0,0,0,0,0,0,0,0,0,0,2031080,0,0,0,0,0
16,68,1130.67508873064,1,0,678353.073548257,678354.12061954,0,25,3,0,1,25,7,2111051,11140262,7171422,2011121,0,0,0,0,0,0,0,2111051,0,0,0,4040120,0,3090021,0,4010121,0,0,4010201,0,0,0,0,2060031,-1101190,0,0,0,2011121,0,0,0,0,0,0,0
16,69,506.82266172953,0,0,678356.438301712,678357.48542381,0,25,3,0,0,9,7,11353241,1170200,7351310,4200161,4031021,0,0,2111030,0,0,0,3171050,-2040140,0,0,0,0,0,0,0,0,1170200,4161140,0,3190170,0,0,0,0,0,0,0,0,0,4200161,0,0,0,0,0
16,70,667.516764369793,0,0,678359.132459445,678360.179528418,0,25,3,0,0,29,7,0,6211111,5251112,14292492,0,0,0,0,0,0,0,0,0,0,3111080,0,3100031,0,0,0,0,0,4121021,1130091,0,0,0,0,0,0,0,3021150,-4141161,0,0,0,4040041,0,0,3090140
16,71,448.296821559779,1,0,678362.014854573,678363.061923931,0,25,3,1,1,34,3,4131181,0,2050150,5251191,4131181,0,0,0,0,0,0,0,0,0,0,0,0,0,0,0,0,0,0,0,0,0,2050150,0,0,0,0,0,0,0,0,0,0,-3081130,2170061,0
16,72,432.528374833055,1,0,678364.626660371,678365.673724724,0,25,3,1,1,23,3,0,1080131,2070191,3211261,0,0,0,0,0,0,0,0,0,0,0,0,0,0,1080131,0,0,0,0,0,0,0,-2070191,0,0,0,0,0,0,0,0,2121130,0,1090131,0,0
16,73,576.259107445367,0,0,678390.850573776,678391.897652758,0,25,4,0,0,8,3,7362300,1080111,0,4090010,0,0,4171110,0,0,0,0,-3191190,0,0,0,0,1080111,0,0,0,0,0,0,0,0,0,0,0,0,0,0,0,0,0,4090010,0,0,0,0,0
16,74,1049.8318207683,0,0,678393.627078825,678394.674202462,0,25,4,1,0,1,7,4100131,4081380,4221212,12421273,-4100131,0,0,0,0,0,0,0,0,0,0,2041200,0,0,0,0,0,2040180,3020121,0,0,0,0,1201091,0,0,0,4160101,0,0,0,0,0,0,4141071,4120101
16,75,479.335958254524,0,0,678396.850659622,678397.897732445,0,25,4,1,0,23,3,0,1080131,2070191,3211261,0,0,0,0,0,0,0,0,0,0,0,0,0,0,1080131,0,0,0,0,0,0,0,-2070191,0,0,0,0,0,0,0,0,2121130,0,1090131,0,0
16,76,1082.66334270593,0,1,678399.568348185,678400.615426012,0,25,4,0,1,25,7,8342292,2331172,6181202,3161040,0,1171041,3160081,4011170,0,0,0,0,0,0,1190031,0,1141141,0,0,0,0,0,0,0,0,2140011,0,0,-4041191,0,0,0,0,0,0,0,0,0,3161040,0
16,77,572.844875627197,0,0,678402.79172354,678403.839017973,0,25,4,1,0,24,7,2170051,5371161,9413552,3040190,0,0,0,0,0,0,0,2170051,0,0,0,1181101,0,0,0,4190060,0,0,0,2061180,2051040,0,0,-3181151,0,0,2120181,0,0,0,0,0,3040190,0,0,0
16,78,650.182290468365,1,0,678405.462557426,678406.509626399,0,25,4,0,1,9,7,9471300,7292280,2031091,5072242,0,0,0,0,1170050,0,0,4190110,-4111140,3121180,0,0,0,0,4171100,0,0,0,0,0,2031091,0,0,0,0,0,0,0,4061121,0,0,0,0,0,1011121,0
16,79,459.030344383791,0,0,678408.309670746,678409.35672894,0,25,4,0,0,17,7,4080070,7321421,4071040,9313261,0,0,0,4080070,0,0,0,0,0,0,0,0,0,0,0,1151161,-4120130,2050130,0,0,0,0,0,0,4071040,0,0,3101080,0,3111010,0,0,0,3101171,0,0
16,80,594.177569379099,0,0,678410.909692843,678411.956765281,0,25,4,1,0,14,3,0,9071380,1010111,0,0,0,0,0,0,0,0,0,0,3011200,0,0,0,-2040170,4020010,0,0,0,1010111,0,0,0,0,0,0,0,0,0,0,0,0,0,0,0,0,0
16,81,435.102233663201,0,0,678413.615610409,678414.662687851,0,25,4,0,0,29,3,1201021,0,2141041,6240240,0,0,0,0,1201021,0,0,0,0,0,0,0,0,0,0,0,0,0,0,2141041,0,0,0,0,0,0,0,0,-4110130,0,2130110,0,0,0,0,0
16,82,644.099498982541,1,0,678416.109772068,678417.156842966,0,25,4,1,1,36,3,0,1091020,4201011,6120301,0,0,0,0,0,0,0,0,0,0,0,0,0,0,0,1091020,0,0,4201011,0,0,0,0,0,0,0,0,0,0,0,0,0,0,0,3010140,-3110161
16,83,529.586645890959,0,1,678418.945110158,678419.992178361,0,25,4,1,1,33,7,4180031,0,12542403,9322232,0,0,4180031,0,0,0,0,0,0,0,0,0,0,0,0,0,0,0,4171141,0,2010091,0,0,4181161,2180010,0,0,0,0,0,0,4160011,-2101191,0,0,3061030
16,84,591.519403737038,0,0,678421.592202767,678422.639274435,0,25,4,1,0,18,3,2131191,2251350,4061081,0,0,0,0,0,2131191,0,0,0,0,0,1171160,0,0,0,0,0,0,-1080190,0,0,0,0,4061081,0,0,0,0,0,0,0,0,0,0,0,0,0
16,85,621.596904355101,1,0,678424.404027736,678425.451078615,0,25,4,0,1,35,3,1081051,3021110,4071181,4161040,0,0,0,0,0,1081051,0,0,0,0,0,0,0,3021110,0,0,0,0,0,4071181,0,0,0,0,0,0,0,0,0,0,0,0,0,0,-4161040,0
16,86,932.804392883554,1,0,678427.215821907,678428.262885876,0,25,4,1,1,31,7,8432301,4050171,5040130,3231260,0,0,0,1191191,3041030,0,4200080,0,0,0,0,0,0,0,0,0,0,4050171,0,0,2020060,0,3020070,0,0,0,0,0,0,0,-2030060,0,0,0,1201200,0
16,87,423.96758007817,1,0,678430.321747018,678431.368869886,0,25,4,0,1,22,7,3080040,5042231,7251180,8390303,0,0,0,0,0,0,0,0,3080040,0,3031030,0,0,0,2011201,0,0,0,0,4121150,0,-3130030,0,0,0,0,0,0,1200051,4080051,3110201,0,0,0,0,0
16,88,788.625948945992,0,0,678432.862961867,678433.910026605,0,25,4,1,0,13,7,3071121,7221211,2211190,8142332,0,0,0,3071121,0,0,0,0,0,0,0,0,-4100111,3121100,0,0,0,0,0,0,0,0,0,1180040,0,1031150,0,0,3071080,0,0,0,2030191,0,0,3041061
16,89,516.112960409373,1,0,678435.839478388,678436.886538507,0,25,4,1,1,5,3,4100190,2131041,2130060,1040050,0,0,0,0,-4100190,0,0,0,0,0,0,0,0,0,0,0,0,2131041,2130060,0,0,0,0,0,0,0,0,0,0,0,0,0,0,0,1040050,0
16,90,509.364568744786,0,0,678438.545398649,678439.592468776,0,25,4,0,0,27,3,3111030,5211301,2080151,0,3111030,0,0,0,0,0,0,0,0,0,0,0,0,1181120,4030181,0,0,0,0,0,0,0,0,0,0,0,-2080151,0,0,0,0,0,0,0,0,0
16,91,404.187439708039,0,0,678441.298369404,678442.345445691,0,25,4,0,0,20,3,0,1080170,5051201,1151080,0,0,0,0,0,0,0,0,0,0,0,0,0,0,0,1080170,0,0,1041110,-4010091,0,0,0,0,0,0,0,0,0,0,0,0,0,0,0,1151080
16,92,404.136624769308,1,0,678443.851354865,678444.898422298,0,25,4,1,1,15,7,5272172,3130081,6160202,5221181,2051070,2150041,0,0,1071061,0,0,0,0,0,0,0,0,0,-3130081,0,0,0,0,0,0,2070021,0,4090181,0,0,0,0,2180040,3041141,0,0,0,0,0,0
16,93,400.321646942757,0,0,678446.45139467,678447.498460563,0,25,4,0,0,28,7,7553194,1130100,4191070,2181110,2081071,0,0,0,0,0,1181011,2151071,2140041,0,0,0,0,0,1130100,0,0,0,0,0,0,0,1150020,0,0,0,3041050,-2181110,0,0,0,0,0,0,0,0
16,94,589.302790001966,1,0,678449.05143101,678450.098494209,0,25,4,0,1,32,3,0,4161191,8211211,4021100,0,0,0,0,0,0,0,0,0,0,0,0,0,0,0,0,4161191,0,4140121,0,0,0,0,0,4071090,0,0,0,0,0,0,-4021100,0,0,0,0
16,95,1104.51881540939,1,0,678451.816185466,678452.863254054,0,25,4,0,1,11,7,3161141,10201152,1161021,7323450,0,0,0,0,0,0,0,3161141,0,0,-2141011,0,0,4010011,0,0,0,4050130,0,0,0,0,0,1161021,0,0,0,3081180,0,0,3041180,1201090,0,0,0,0
16,96,524.700317531824,1,0,678455.039765493,678456.086825612,0,25,4,1,1,34,3,4131181,0,2050150,5251191,4131181,0,0,0,0,0,0,0,0,0,0,0,0,0,0,0,0,0,0,0,0,0,2050150,0,0,0,0,0,0,0,0,0,0,-3081130,2170061,0
16,97,425.525908009149,1,0,678475.204763091,678476.251829369,0,25,5,0,1,17,3,3091031,3162141,4061110,0,0,0,0,0,0,0,0,0,3091031,0,0,0,1071051,0,0,0,-2091090,0,0,4061110,0,0,0,0,0,0,0,0,0,0,0,0,0,0,0,0
16,98,438.568050623871,0,0,678477.698928215,678478.745989489,0,25,5,0,0,27,7,2180262,6361382,2171010,5150271,0,0,1160091,0,0,1020171,0,0,0,0,0,0,0,2110170,2121041,2130171,0,0,0,0,0,0,0,0,0,0,-2171010,0,0,0,0,1140140,0,0,4010131,0
16,99,422.717222012579,0,0,678480.310716304,678481.357791821,0,25,5,1,0,14,3,0,9071380,1010111,0,0,0,0,0,0,0,0,0,0,3011200,0,0,0,-2040170,4020010,0,0,0,1010111,0,0,0,0,0,0,0,0,0,0,0,0,0,0,0,0,0
16,100,484.426316688769,1,0,678482.80486911,678483.851935388,0,25,5,1,1,34,3,4131181,0,2050150,5251191,4131181,0,0,0,0,0,0,0,0,0,0,0,0,0,0,0,0,0,0,0,0,0,2050150,0,0,0,0,0,0,0,0,0,0,-3081130,2170061,0
16,101,373.744609765708,0,0,678485.522547278,678486.569618561,0,25,5,0,0,9,3,2170120,0,1181120,4221202,0,0,0,0,0,0,0,0,-2170120,0,0,0,0,0,0,0,0,0,0,0,0,0,0,1181120,0,0,0,0,0,0,0,3020091,0,0,0,1201111
16,102,387.074704398401,0,0,678487.993186577,678489.040247851,0,25,5,0,0,20,7,1111081,9542631,2050070,3091061,0,0,0,0,0,0,1111081,0,0,3190080,1151190,2130040,2021120,0,0,0,0,1050201,0,-2050070,0,0,0,0,0,0,0,0,0,0,0,0,0,3091061,0,0
16,103,513.039805111475,1,0,678490.546164724,678491.593231002,0,25,5,0,1,8,7,8112141,0,5332521,5391313,0,0,0,0,4051131,0,0,-4061010,0,0,0,0,0,0,0,0,0,0,2011170,0,0,0,0,0,2150181,0,1171170,1130101,3160081,0,0,0,0,1101131,0,0
16,104,356.460566050373,1,0,678493.216790088,678494.263867145,0,25,5,1,1,15,7,5272172,3130081,6160202,5221181,2051070,2150041,0,0,1071061,0,0,0,0,0,0,0,0,0,-3130081,0,0,0,0,0,0,2070021,0,4090181,0,0,0,0,2180040,3041141,0,0,0,0,0,0
16,105,430.658227298409,0,0,678495.734472952,678496.781554244,0,25,5,1,0,5,3,4100190,2131041,2130060,1040050,0,0,0,0,-4100190,0,0,0,0,0,0,0,0,0,0,0,0,2131041,2130060,0,0,0,0,0,0,0,0,0,0,0,0,0,0,0,1040050,0
16,106,922.140548354946,1,0,678498.252157357,678499.299235954,0,25,5,0,1,29,7,1201080,6604432,2021110,5380110,0,0,0,0,0,0,0,0,1201080,2161041,1191200,0,1061100,0,0,2191091,0,0,0,2021110,0,0,0,0,0,0,0,4200060,-1180050,0,0,0,0,0,0,0
16,107,510.047492105514,0,0,678501.299267136,678502.34633072,0,25,5,1,0,18,3,2131191,2251350,4061081,0,0,0,0,0,2131191,0,0,0,0,0,1171160,0,0,0,0,0,0,-1080190,0,0,0,0,4061081,0,0,0,0,0,0,0,0,0,0,0,0,0
16,108,389.165820321068,1,0,678504.005208954,678505.052264069,0,25,5,1,1,23,3,0,1080131,2070191,3211261,0,0,0,0,0,0,0,0,0,0,0,0,0,0,1080131,0,0,0,0,0,0,0,-2070191,0,0,0,0,0,0,0,0,2121130,0,1090131,0,0
16,109,534.642357612029,0,0,678506.54640648,678507.593478918,0,25,5,1,0,13,7,3071121,7221211,2211190,8142332,0,0,0,3071121,0,0,0,0,0,0,0,0,-4100111,3121100,0,0,0,0,0,0,0,0,0,1180040,0,1031150,0,0,3071080,0,0,0,2030191,0,0,3041061
16,110,1114.43313828204,1,1,678509.275851411,678510.322918074,0,25,5,0,0,35,7,12643473,2130120,2051191,6340181,1141111,0,0,0,4180041,3131191,0,0,4191130,0,2130120,0,0,0,0,0,0,0,0,0,0,0,0,0,0,2051191,0,0,0,0,0,0,0,4170101,-2170080,0
16,111,541.919687646441,0,0,678512.464132692,678513.51120205,0,25,5,0,0,22,3,0,7312541,2120201,0,0,0,0,0,0,0,0,0,0,0,2131170,0,0,0,0,3070200,2111171,0,0,0,0,-2120201,0,0,0,0,0,0,0,0,0,0,0,0,0,0
16,112,795.365486526862,0,0,678515.228885993,678516.275958045,0,25,5,0,0,32,7,8171232,5230351,6331240,7201240,0,4010031,0,4161201,0,0,0,0,0,0,0,0,0,1180201,0,4050150,0,0,0,0,0,0,0,0,0,3180200,3151040,3070050,0,0,0,-4131190,0,0,0,0
16,113,546.951531781815,1,0,678518.111277271,678519.15834278,0,25,5,1,1,36,3,0,1091020,4201011,6120301,0,0,0,0,0,0,0,0,0,0,0,0,0,0,0,1091020,0,0,4201011,0,0,0,0,0,0,0,0,0,0,0,0,0,0,0,3010140,-3110161
16,114,537.944950396195,0,0,678520.711314382,678521.758389514,0,25,5,0,0,11,3,0,3242242,3071021,2051151,0,0,0,0,0,0,0,0,0,0,-2121081,0,1121161,0,0,0,0,0,0,0,0,0,3071021,0,0,0,0,0,0,0,0,0,0,0,0,2051151
16,115,1401.88728913199,1,0,678523.323118254,678524.370180683,0,25,5,1,1,31,7,8432301,4050171,5040130,3231260,0,0,0,1191191,3041030,0,4200080,0,0,0,0,0,0,0,0,0,0,4050171,0,0,2020060,0,3020070,0,0,0,0,0,0,0,-2030060,0,0,0,1201200,0
16,116,1633.48800933454,1,0,678526.958524944,678528.005533863,0,25,5,1,1,1,7,4100131,4081380,4221212,12421273,-4100131,0,0,0,0,0,0,0,0,0,0,2041200,0,0,0,0,0,2040180,3020121,0,0,0,0,1201091,0,0,0,4160101,0,0,0,0,0,0,4141071,4120101
16,117,1163.37456856854,1,0,678530.746827552,678531.793825692,0,25,5,1,1,33,7,4180031,0,12542403,9322232,0,0,4180031,0,0,0,0,0,0,0,0,0,0,0,0,0,0,0,4171141,0,2010091,0,0,4181161,2180010,0,0,0,0,0,0,4160011,-2101191,0,0,3061030
16,118,435.787081951275,0,0,678534.1703359,678535.217407952,0,25,5,0,0,25,3,2051031,3160080,5130171,0,0,0,0,0,0,2051031,0,0,0,0,0,3160080,0,0,0,0,0,0,0,0,4120020,0,0,0,-1010151,0,0,0,0,0,0,0,0,0,0,0
16,119,654.289069818333,1,0,678536.805718337,678537.852750353,0,25,5,1,1,24,7,2170051,5371161,9413552,3040190,0,0,0,0,0,0,0,2170051,0,0,0,1181101,0,0,0,4190060,0,0,0,2061180,2051040,0,0,-3181151,0,0,2120181,0,0,0,0,0,3040190,0,0,0
16,120,463.520161341876,1,0,678539.523355699,678540.570428907,0,25,5,0,1,28,3,7281281,4090071,0,3150120,0,0,4081110,0,0,0,0,0,3200171,0,0,4090071,0,0,0,0,0,0,0,0,0,0,0,0,0,0,0,-3150120,0,0,0,0,0,0,0,0
16,121,586.645394098014,0,0,678561.347210744,678562.394278177,0,25,6,1,0,13,7,3071121,7221211,2211190,8142332,0,0,0,3071121,0,0,0,0,0,0,0,0,-4100111,3121100,0,0,0,0,0,0,0,0,0,1180040,0,1031150,0,0,3071080,0,0,0,2030191,0,0,3041061
16,122,401.962356874719,0,0,678564.064892762,678565.112030643,0,25,6,1,0,15,7,5272172,3130081,6160202,5221181,2051070,2150041,0,0,1071061,0,0,0,0,0,0,0,0,0,-3130081,0,0,0,0,0,0,2070021,0,4090181,0,0,0,0,2180040,3041141,0,0,0,0,0,0
16,123,523.900365573354,0,0,678566.617870908,678567.664943346,0,25,6,0,0,29,7,7161120,9292434,4101100,3090050,3051020,0,0,0,0,0,4110100,0,0,0,1191051,4010141,0,2061061,0,0,0,2030181,0,0,0,0,0,0,0,0,4101100,0,-3090050,0,0,0,0,0,0,0
16,124,397.163415094838,1,0,678569.323802333,678570.370864761,0,25,6,0,1,17,3,1101051,1120101,1150171,3190060,0,0,0,0,0,0,0,0,1101051,0,0,0,0,0,0,0,-1120101,0,0,0,1150171,0,0,0,0,0,0,3190060,0,0,0,0,0,0,0,0
16,125,416.442334186286,0,0,678571.888546086,678572.935620834,0,25,6,0,0,28,3,4130160,0,2170050,6180261,0,0,0,0,0,0,0,4130160,0,0,0,0,0,0,0,0,0,0,0,0,0,0,2170050,0,0,0,0,-2040170,0,0,0,0,0,0,0,4140091
16,126,381.15282705985,1,0,678574.441523078,678575.48859359,0,25,6,0,1,22,7,6433241,4181110,8291341,4291061,0,1161110,0,0,0,3081110,0,2191021,0,0,0,0,0,0,4181110,0,0,0,0,0,0,-4151171,0,0,0,4140170,0,3130031,0,0,0,1161030,0,0,0,0
16,127,735.197781468742,1,0,678576.982731767,678578.02980228,0,25,6,0,1,25,7,3010020,9360451,5392442,2171060,0,0,3010020,0,0,0,0,0,0,4100160,0,3080091,0,2180200,0,0,0,0,2150071,0,0,0,0,0,-2151201,1091170,0,0,0,0,0,0,2171060,0,0,0
16,128,978.15874312073,0,0,678579.935720924,678580.982782582,0,25,6,1,0,1,7,4100131,4081380,4221212,12421273,-4100131,0,0,0,0,0,0,0,0,0,0,2041200,0,0,0,0,0,2040180,3020121,0,0,0,0,1201091,0,0,0,4160101,0,0,0,0,0,0,4141071,4120101
16,129,540.757871000096,1,0,678583.076941701,678584.124019143,0,25,6,0,1,11,3,1060190,5362202,0,4100030,0,0,0,0,1060190,0,0,0,0,0,-1191191,0,0,0,0,0,4171011,0,0,0,0,0,0,0,0,0,0,0,0,0,0,0,4100030,0,0,0
16,130,626.751551404595,0,0,678585.782916626,678586.829935169,0,25,6,0,0,32,3,2010180,0,4181260,2030020,0,0,0,0,0,2010180,0,0,0,0,0,0,0,0,0,0,0,0,0,0,1121090,0,0,0,3060170,0,0,0,0,0,0,-2030020,0,0,0,0
16,131,537.927242228761,0,0,678588.594663062,678589.641744739,0,25,6,1,0,36,3,0,1091020,4201011,6120301,0,0,0,0,0,0,0,0,0,0,0,0,0,0,0,1091020,0,0,4201011,0,0,0,0,0,0,0,0,0,0,0,0,0,0,0,3010140,-3110161
16,132,463.895884691738,0,0,678591.194709797,678592.241778385,0,25,6,1,0,34,3,4131181,0,2050150,5251191,4131181,0,0,0,0,0,0,0,0,0,0,0,0,0,0,0,0,0,0,0,0,0,2050150,0,0,0,0,0,0,0,0,0,0,-3081130,2170061,0
16,133,517.06689724233,0,0,678593.747686018,678594.794758841,0,25,6,1,0,18,3,2131191,2251350,4061081,0,0,0,0,0,2131191,0,0,0,0,0,1171160,0,0,0,0,0,0,-1080190,0,0,0,0,4061081,0,0,0,0,0,0,0,0,0,0,0,0,0
16,134,757.30963924434,1,0,678596.512438164,678597.559500978,0,25,6,0,1,8,3,4041021,1120180,4242220,0,0,0,0,0,0,0,0,-4041021,0,0,0,0,0,0,0,1120180,0,0,0,0,1101140,0,3141080,0,0,0,0,0,0,0,0,0,0,0,0,0
16,135,529.62552709505,0,0,678599.441894566,678600.488966234,0,25,6,0,0,35,7,10581732,2120070,0,5232350,0,2150200,0,2010091,0,0,3161151,2100140,1160150,0,0,0,2120070,0,0,0,0,0,0,0,0,0,0,0,0,0,0,0,0,0,0,3181190,0,0,-2051160,0
16,136,497.302925563417,1,0,678602.112516851,678603.159583899,0,25,6,0,1,27,7,6151121,5182020,10122301,4201181,0,0,0,4060091,2091030,0,0,0,0,0,0,1081010,0,0,0,0,4101010,0,0,0,3030121,0,0,0,3011020,0,-4081160,0,0,0,0,0,0,0,0,4201181
16,137,725.658797076903,1,0,678604.747881964,678605.794917831,0,25,6,1,1,31,7,8432301,4050171,5040130,3231260,0,0,0,1191191,3041030,0,4200080,0,0,0,0,0,0,0,0,0,0,4050171,0,0,2020060,0,3020070,0,0,0,0,0,0,0,-2030060,0,0,0,1201200,0
16,138,466.48398716934,1,0,678607.642008053,678608.689077026,0,25,6,0,1,20,7,4240111,6142161,3110260,2232301,0,0,0,2170090,2070021,0,0,0,0,0,0,4011091,0,0,0,0,0,2131070,0,-2070170,0,0,0,1040090,0,0,0,0,1121151,0,0,0,1111150,0,0,0
16,139,389.030313468538,1,0,678610.359759365,678611.406768668,0,25,6,0,1,9,3,4220250,0,0,4282121,0,3110170,0,0,0,0,0,0,-1110080,0,0,0,0,0,0,0,0,0,0,0,0,0,0,0,0,0,0,1081011,0,0,0,0,3201110,0,0,0
16,140,459.61433229968,0,0,678612.995033627,678614.04210183,0,25,6,1,0,24,7,2170051,5371161,9413552,3040190,0,0,0,0,0,0,0,2170051,0,0,0,1181101,0,0,0,4190060,0,0,0,2061180,2051040,0,0,-3181151,0,0,2120181,0,0,0,0,0,3040190,0,0,0
16,141,519.383986131288,1,0,678615.536238467,678616.583314755,0,25,6,1,1,14,3,0,9071380,1010111,0,0,0,0,0,0,0,0,0,0,3011200,0,0,0,-2040170,4020010,0,0,0,1010111,0,0,0,0,0,0,0,0,0,0,0,0,0,0,0,0,0
16,142,893.469700473361,0,0,678618.195103998,678619.242174896,0,25,6,1,0,33,7,4180031,0,12542403,9322232,0,0,4180031,0,0,0,0,0,0,0,0,0,0,0,0,0,0,0,4171141,0,2010091,0,0,4181161,2180010,0,0,0,0,0,0,4160011,-2101191,0,0,3061030
16,143,886.799456202425,0,0,678621.171619749,678622.218699501,0,25,6,1,0,5,3,4100190,2131041,2130060,1040050,0,0,0,0,-4100190,0,0,0,0,0,0,0,0,0,0,0,0,2131041,2130060,0,0,0,0,0,0,0,0,0,0,0,0,0,0,0,1040050,0
16,144,422.738394932821,1,0,678624.171706751,678625.218742232,0,25,6,1,1,23,3,0,1080131,2070191,3211261,0,0,0,0,0,0,0,0,0,0,0,0,0,0,1080131,0,0,0,0,0,0,0,-2070191,0,0,0,0,0,0,0,0,2121130,0,1090131,0,0
16,145,689.416507841088,1,0,678638.418933866,678639.466003224,0,25,7,1,1,14,3,0,9071380,1010111,0,0,0,0,0,0,0,0,0,0,3011200,0,0,0,-2040170,4020010,0,0,0,1010111,0,0,0,0,0,0,0,0,0,0,0,0,0,0,0,0,0
16,146,582.692214986309,1,0,678641.336630051,678642.383694404,0,25,7,1,1,24,7,2170051,5371161,9413552,3040190,0,0,0,0,0,0,0,2170051,0,0,0,1181101,0,0,0,4190060,0,0,0,2061180,2051040,0,0,-3181151,0,0,2120181,0,0,0,0,0,3040190,0,0,0
16,147,435.31242327299,0,0,678644.113137795,678645.160205228,0,25,7,0,0,28,3,0,3011111,2111050,6210271,0,0,0,0,0,0,0,0,0,0,0,3011111,0,0,0,0,0,0,0,2111050,0,0,0,0,0,0,0,-2100151,0,0,0,0,0,0,0,4110120
16,148,601.166947511956,0,0,678646.807285519,678647.854367196,0,25,7,0,0,11,3,2231261,6101242,0,0,0,1070191,0,0,1161070,0,0,0,0,0,-4061161,0,0,0,0,0,2040081,0,0,0,0,0,0,0,0,0,0,0,0,0,0,0,0,0,0,0
16,149,383.741699508391,1,0,678649.548550721,678650.595585047,0,25,7,1,1,15,7,5272172,3130081,6160202,5221181,2051070,2150041,0,0,1071061,0,0,0,0,0,0,0,0,0,-3130081,0,0,0,0,0,0,2070021,0,4090181,0,0,0,0,2180040,3041141,0,0,0,0,0,0
16,150,625.323725747876,1,0,678652.172074775,678653.219146058,0,25,7,0,1,27,7,3250112,6372330,1021021,8561332,0,0,2160031,0,0,1090081,0,0,0,0,0,0,3171150,0,0,0,0,3201180,0,0,0,0,0,0,0,0,-1021021,2180091,0,2201181,0,0,0,0,0,4180060
16,151,503.006914048456,0,0,678655.007413249,678656.054502625,0,25,7,0,0,17,3,0,4040121,10251192,0,0,0,0,0,0,0,0,0,0,0,0,0,0,0,0,0,-4040121,0,0,3060030,0,4130011,0,0,3061151,0,0,0,0,0,0,0,0,0,0,0
16,152,712.44226640556,0,0,678657.689841947,678658.736882047,0,25,7,0,0,8,7,7473161,3161121,9493263,3051100,0,0,3161061,0,0,3201040,0,-1111060,0,0,0,0,3161121,0,0,0,0,0,4111151,0,0,2181101,0,0,0,3201011,0,3051100,0,0,0,0,0,0,0,0
16,153,705.179949989542,0,0,678660.583967651,678661.631036624,0,25,7,0,0,35,3,0,0,5290272,2161201,0,0,0,0,0,0,0,0,0,0,0,0,0,0,0,0,0,0,0,0,0,2100020,0,2030171,1160081,0,0,0,0,0,0,0,0,0,-2161201,0
16,154,821.688448311761,1,0,678663.454599867,678664.50166807,0,25,7,0,1,9,7,5150040,4202291,7402530,0,0,0,1090010,0,0,0,0,0,-4060030,0,0,0,0,0,1051181,0,0,3151110,0,0,1170180,1061190,0,1110130,4061030,0,0,0,0,0,0,0,0,0,0,0
16,155,794.184036785737,1,0,678666.431113308,678667.478179586,0,25,7,0,1,29,7,5271270,9372421,6261210,1091010,0,0,0,4201080,0,0,0,0,1070190,0,0,4081161,4141140,0,0,0,0,1150120,0,0,0,0,0,0,3111020,3150190,0,0,-1091010,0,0,0,0,0,0,0
16,156,471.398417605087,1,0,678669.395866917,678670.442946669,0,25,7,1,1,23,3,0,1080131,2070191,3211261,0,0,0,0,0,0,0,0,0,0,0,0,0,0,1080131,0,0,0,0,0,0,0,-2070191,0,0,0,0,0,0,0,0,2121130,0,1090131,0,0
16,157,1020.13851259835,1,0,678672.04297531,678673.090038894,0,25,7,1,1,1,7,4100131,4081380,4221212,12421273,-4100131,0,0,0,0,0,0,0,0,0,0,2041200,0,0,0,0,0,2040180,3020121,0,0,0,0,1201091,0,0,0,4160101,0,0,0,0,0,0,4141071,4120101
16,158,562.696495559067,0,0,678675.266532625,678676.313610452,0,25,7,1,0,34,3,4131181,0,2050150,5251191,4131181,0,0,0,0,0,0,0,0,0,0,0,0,0,0,0,0,0,0,0,0,0,2050150,0,0,0,0,0,0,0,0,0,0,-3081130,2170061,0
16,159,629.621061496437,0,0,678677.972462509,678679.019530712,0,25,7,1,0,33,7,4180031,0,12542403,9322232,0,0,4180031,0,0,0,0,0,0,0,0,0,0,0,0,0,0,0,4171141,0,2010091,0,0,4181161,2180010,0,0,0,0,0,0,4160011,-2101191,0,0,3061030
16,160,1218.5958911432,0,0,678680.772498003,678681.81957506,0,25,7,1,0,13,7,3071121,7221211,2211190,8142332,0,0,0,3071121,0,0,0,0,0,0,0,0,-4100111,3121100,0,0,0,0,0,0,0,0,0,1180040,0,1031150,0,0,3071080,0,0,0,2030191,0,0,3041061
16,161,504.931341274641,0,0,678684.196120684,678685.243151546,0,25,7,1,0,18,3,2131191,2251350,4061081,0,0,0,0,0,2131191,0,0,0,0,0,1171160,0,0,0,0,0,0,-1080190,0,0,0,0,4061081,0,0,0,0,0,0,0,0,0,0,0,0,0
16,162,666.410382371396,1,0,678686.866703317,678687.913784994,0,25,7,1,1,31,7,8432301,4050171,5040130,3231260,0,0,0,1191191,3041030,0,4200080,0,0,0,0,0,0,0,0,0,0,4050171,0,0,2020060,0,3020070,0,0,0,0,0,0,0,-2030060,0,0,0,1201200,0
16,163,447.549224365503,0,1,678689.67853329,678690.725603033,0,25,7,0,1,32,3,2080120,4131111,0,3070071,0,0,0,0,0,2080120,0,0,0,0,0,3120020,0,1011091,0,0,0,0,0,0,0,0,0,0,0,0,0,0,0,0,0,-3070071,0,0,0,0
16,164,778.691993094981,1,0,678692.278556927,678693.32562436,0,25,7,1,1,36,3,0,1091020,4201011,6120301,0,0,0,0,0,0,0,0,0,0,0,0,0,0,0,1091020,0,0,4201011,0,0,0,0,0,0,0,0,0,0,0,0,0,0,0,3010140,-3110161
16,165,633.520346134901,1,0,678695.184480575,678696.231565716,0,25,7,0,1,25,7,5151130,2180060,8212201,5201191,0,0,0,3030120,0,0,2121010,0,0,0,0,0,0,0,2180060,0,0,0,0,2091030,0,0,0,0,-3041051,3080120,0,2131061,3070130,0,0,0,0,0,0,0
16,166,515.935107716359,0,0,678697.996291684,678699.043356038,0,25,7,0,0,20,3,0,3111151,5322241,3051091,0,0,0,0,0,0,0,0,0,0,0,0,0,0,3111151,0,0,0,0,-3161110,0,0,0,0,0,2161131,0,0,0,0,0,0,0,3051091,0,0
16,167,530.03897680901,0,0,678700.608134053,678701.655177618,0,25,7,0,0,22,7,4161160,4170060,4241101,11422403,0,0,0,4161160,0,0,0,0,0,4170060,0,0,0,0,0,0,0,0,0,0,0,-1111081,3130020,0,0,0,0,0,0,2200091,0,3080120,0,2081051,4061141,0
16,168,1108.64676779602,1,0,678703.302251365,678704.349316103,0,25,7,1,1,5,3,4100190,2131041,2130060,1040050,0,0,0,0,-4100190,0,0,0,0,0,0,0,0,0,0,0,0,2131041,2130060,0,0,0,0,0,0,0,0,0,0,0,0,0,0,0,1040050,0
16,169,653.642717981711,1,0,678724.914330486,678725.961401768,0,25,8,0,1,25,3,4071202,0,3041091,4150051,0,0,0,3021151,0,0,0,1050051,0,0,0,0,0,0,0,0,0,0,0,0,0,0,0,0,-3041091,0,0,0,0,4150051,0,0,0,0,0,0
16,170,732.278611161746,0,0,678727.796727539,678728.843796897,0,25,8,1,0,34,3,4131181,0,2050150,5251191,4131181,0,0,0,0,0,0,0,0,0,0,0,0,0,0,0,0,0,0,0,0,0,2050150,0,0,0,0,0,0,0,0,0,0,-3081130,2170061,0
16,171,545.498298597522,1,0,678730.761479608,678731.808548966,0,25,8,1,1,18,3,2131191,2251350,4061081,0,0,0,0,0,2131191,0,0,0,0,0,1171160,0,0,0,0,0,0,-1080190,0,0,0,0,4061081,0,0,0,0,0,0,0,0,0,0,0,0,0
16,172,455.046753049828,0,0,678733.502700154,678734.549749494,0,25,8,1,0,23,3,0,1080131,2070191,3211261,0,0,0,0,0,0,0,0,0,0,0,0,0,0,1080131,0,0,0,0,0,0,0,-2070191,0,0,0,0,0,0,0,0,2121130,0,1090131,0,0
16,173,812.092874548398,0,0,678736.055672526,678737.10273842,0,25,8,0,0,8,3,4181191,0,0,7062221,0,2010130,0,0,0,0,0,-2171061,0,0,0,0,0,0,0,0,0,0,0,0,0,0,0,0,0,0,0,0,0,0,0,0,4041080,0,3021141,0
16,174,585.575198638253,1,0,678738.926292424,678739.9733818,0,25,8,1,1,33,7,4180031,0,12542403,9322232,0,0,4180031,0,0,0,0,0,0,0,0,0,0,0,0,0,0,0,4171141,0,2010091,0,0,4181161,2180010,0,0,0,0,0,0,4160011,-2101191,0,0,3061030
16,175,484.465582878329,0,0,678741.573408516,678742.620472869,0,25,8,0,0,28,7,10271321,2142111,2021051,5242211,4050060,2151150,0,0,0,0,0,4070111,0,0,0,0,0,0,0,0,1091051,1051060,0,0,0,0,0,0,0,0,2021051,-2191180,0,0,0,0,0,3051031,0,0
16,176,1243.5741792433,0,0,678744.291096308,678745.338159507,0,25,8,1,0,1,7,4100131,4081380,4221212,12421273,-4100131,0,0,0,0,0,0,0,0,0,0,2041200,0,0,0,0,0,2040180,3020121,0,0,0,0,1201091,0,0,0,4160101,0,0,0,0,0,0,4141071,4120101
16,177,590.113135869615,1,0,678747.620589898,678748.667622684,0,25,8,0,1,35,3,2201021,2021170,0,3131202,0,0,2201021,0,0,0,0,0,0,0,0,0,0,0,2021170,0,0,0,0,0,0,0,0,0,0,0,0,0,0,0,0,0,0,0,-2031061,1100141
16,178,843.354134703986,1,0,678750.373531781,678751.420602294,0,25,8,1,1,24,7,2170051,5371161,9413552,3040190,0,0,0,0,0,0,0,2170051,0,0,0,1181101,0,0,0,4190060,0,0,0,2061180,2051040,0,0,-3181151,0,0,2120181,0,0,0,0,0,3040190,0,0,0
16,179,458.402085583657,1,0,678753.432399853,678754.479472675,0,25,8,0,1,29,7,4120140,8322392,9323383,1200160,0,0,0,0,0,0,0,4120140,0,0,0,3131140,2181051,0,0,0,0,3010201,0,0,0,3171111,2051101,0,0,4101171,0,0,-1200160,0,0,0,0,0,0,0
16,180,787.835236056708,0,0,678755.961890671,678757.008921917,0,25,8,1,0,5,3,4100190,2131041,2130060,1040050,0,0,0,0,-4100190,0,0,0,0,0,0,0,0,0,0,0,0,2131041,2130060,0,0,0,0,0,0,0,0,0,0,0,0,0,0,0,1040050,0
16,181,563.890264253132,1,0,678758.973660512,678760.02073218,0,25,8,0,1,32,3,0,4090161,1090061,6252191,0,0,0,0,0,0,0,0,0,0,0,0,4090161,0,0,0,0,0,1090061,0,0,0,0,0,0,0,0,0,0,0,0,-2141180,0,0,4111011,0
16,182,557.687364285812,0,0,678761.608996369,678762.656058798,0,25,8,1,0,36,3,0,1091020,4201011,6120301,0,0,0,0,0,0,0,0,0,0,0,0,0,0,0,1091020,0,0,4201011,0,0,0,0,0,0,0,0,0,0,0,0,0,0,0,3010140,-3110161
16,183,412.281660130247,1,0,678764.244322217,678765.291397349,0,25,8,1,1,15,7,5272172,3130081,6160202,5221181,2051070,2150041,0,0,1071061,0,0,0,0,0,0,0,0,0,-3130081,0,0,0,0,0,0,2070021,0,4090181,0,0,0,0,2180040,3041141,0,0,0,0,0,0
16,184,563.684694236144,0,0,678766.762008931,678767.809080984,0,25,8,1,0,13,7,3071121,7221211,2211190,8142332,0,0,0,3071121,0,0,0,0,0,0,0,0,-4100111,3121100,0,0,0,0,0,0,0,0,0,1180040,0,1031150,0,0,3071080,0,0,0,2030191,0,0,3041061
16,185,591.828528558835,1,0,678769.479697493,678770.526805348,0,25,8,0,1,11,3,1160010,3210172,3171161,0,0,0,0,1160010,0,0,0,0,0,0,-2130081,0,0,0,0,0,0,1080091,0,0,0,0,0,0,3171161,0,0,0,0,0,0,0,0,0,0,0
16,186,427.190870628692,0,0,678772.138562639,678773.185631612,0,25,8,0,0,22,7,4040051,9562371,4081212,4180060,0,0,4040051,0,0,0,0,0,0,0,2101060,1120100,0,2160011,0,4181200,0,0,0,0,0,-1050151,0,0,0,0,3031061,4180060,0,0,0,0,0,0,0,0
16,187,538.066213601269,1,0,678774.644478357,678775.691543096,0,25,8,1,1,14,3,0,9071380,1010111,0,0,0,0,0,0,0,0,0,0,3011200,0,0,0,-2040170,4020010,0,0,0,1010111,0,0,0,0,0,0,0,0,0,0,0,0,0,0,0,0,0
16,188,411.22416825965,1,0,678777.256273761,678778.303364291,0,25,8,0,1,9,3,7041220,4121200,0,0,0,0,3020170,0,0,0,0,0,-4021050,0,0,3051130,0,0,0,0,0,1070070,0,0,0,0,0,0,0,0,0,0,0,0,0,0,0,0,0,0
16,189,471.708312397823,0,0,678779.726906131,678780.773979723,0,25,8,0,0,27,7,6201122,4160071,8312230,5121311,0,2140041,0,0,0,4061081,0,0,0,0,4160071,0,0,0,0,0,0,0,0,0,0,0,2151160,3051020,0,0,-3110050,0,3041170,0,0,0,0,2080141,0,0
16,190,875.287154340185,1,0,678782.303418571,678783.350489084,0,25,8,1,1,31,7,8432301,4050171,5040130,3231260,0,0,0,1191191,3041030,0,4200080,0,0,0,0,0,0,0,0,0,0,4050171,0,0,2020060,0,3020070,0,0,0,0,0,0,0,-2030060,0,0,0,1201200,0
16,191,453.592364909127,0,0,678785.279928933,678786.327001755,0,25,8,0,0,17,7,4221292,7261511,0,6170493,0,0,0,3060181,0,1161111,0,0,0,3031180,0,0,0,0,0,2180180,-2050151,0,0,0,0,0,0,0,0,0,0,0,2050201,1020111,3100181,0,0,0,0,0
16,192,420.362791744992,1,0,678787.974082816,678789.021157949,0,25,8,0,1,20,7,4180040,5240212,7151211,9282182,0,0,0,4180040,0,0,0,0,0,0,0,0,0,0,0,2120161,0,3120051,4141021,-3010190,0,0,0,0,0,0,0,4031081,0,1171021,0,0,0,4080080,0,0
16,193,564.806474838406,1,0,678809.209696,678810.256770747,0,25,9,1,1,13,7,3071121,7221211,2211190,8142332,0,0,0,3071121,0,0,0,0,0,0,0,0,-4100111,3121100,0,0,0,0,0,0,0,0,0,1180040,0,1031150,0,0,3071080,0,0,0,2030191,0,0,3041061
16,194,726.354039274156,0,0,678811.950921166,678812.997990524,0,25,9,1,0,1,7,4100131,4081380,4221212,12421273,-4100131,0,0,0,0,0,0,0,0,0,0,2041200,0,0,0,0,0,2040180,3020121,0,0,0,0,1201091,0,0,0,4160101,0,0,0,0,0,0,4141071,4120101
16,195,493.517589755356,1,1,678814.762776161,678815.809794704,0,25,9,0,0,27,3,3071181,0,5380201,4040180,0,0,0,0,0,0,0,3071181,0,0,0,0,0,0,0,0,0,0,0,0,1200030,0,0,0,0,0,-4180171,0,0,0,0,0,0,0,4040180,0
16,196,766.571450512856,0,0,678817.468654846,678818.51571073,0,25,9,1,0,34,3,4131181,0,2050150,5251191,4131181,0,0,0,0,0,0,0,0,0,0,0,0,0,0,0,0,0,0,0,0,0,2050150,0,0,0,0,0,0,0,0,0,0,-3081130,2170061,0
16,197,381.486204569228,1,0,678820.45692273,678821.503996323,0,25,9,0,1,22,3,0,0,7131261,3200122,0,0,0,0,0,0,0,0,0,0,0,0,0,0,0,0,0,0,0,0,0,-4081160,0,0,3050101,0,0,0,0,0,2090021,0,0,0,0,1110101
16,198,400.715848430991,0,0,678823.08049606,678824.127611998,0,25,9,0,0,9,3,6261161,0,1041110,0,4070110,0,0,1161020,0,0,0,0,-1030031,0,0,0,0,0,0,0,0,0,0,1041110,0,0,0,0,0,0,0,0,0,0,0,0,0,0,0,0
16,199,670.6422745483,1,0,678825.727590979,678826.774661877,0,25,9,0,1,28,7,5041290,9353173,0,7371141,0,0,0,0,0,0,0,2010100,3031190,3051050,0,0,3030021,0,0,0,2201091,1071011,0,0,0,0,0,0,0,0,0,-4200071,0,0,0,0,3171070,0,0,0
16,200,519.959890050814,0,0,678828.598251682,678829.645283699,0,25,9,0,0,8,7,3311222,7293320,1061100,1030031,0,0,0,1190050,0,0,1071151,-1050021,0,3091110,3021060,1181150,0,0,0,0,0,0,1061100,0,0,0,0,0,0,0,0,0,0,0,0,0,1030031,0,0,0
16,201,866.678624181077,0,0,678831.339440277,678832.386556985,0,25,9,1,0,36,3,0,1091020,4201011,6120301,0,0,0,0,0,0,0,0,0,0,0,0,0,0,0,1091020,0,0,4201011,0,0,0,0,0,0,0,0,0,0,0,0,0,0,0,3010140,-3110161
16,202,695.075070834719,1,0,678834.410072031,678835.457140619,0,25,9,1,1,5,3,4100190,2131041,2130060,1040050,0,0,0,0,-4100190,0,0,0,0,0,0,0,0,0,0,0,0,2131041,2130060,0,0,0,0,0,0,0,0,0,0,0,0,0,0,0,1040050,0
16,203,603.002063464373,1,0,678837.198401972,678838.245425519,0,25,9,1,1,33,7,4180031,0,12542403,9322232,0,0,4180031,0,0,0,0,0,0,0,0,0,0,0,0,0,0,0,4171141,0,2010091,0,0,4181161,2180010,0,0,0,0,0,0,4160011,-2101191,0,0,3061030
16,204,1019.07486142591,1,0,678839.963098683,678841.010166501,0,25,9,0,1,32,7,4222232,10302352,4221171,1061150,0,0,0,3071101,0,0,0,1151131,0,0,0,3091061,3081180,4130111,0,0,0,0,2100020,0,0,0,0,0,2121151,0,0,0,0,0,0,-1061150,0,0,0,0
16,205,713.468191330321,1,0,678843.12784798,678844.174918493,0,25,9,1,1,31,7,8432301,4050171,5040130,3231260,0,0,0,1191191,3041030,0,4200080,0,0,0,0,0,0,0,0,0,0,4050171,0,0,2020060,0,3020070,0,0,0,0,0,0,0,-2030060,0,0,0,1201200,0
16,206,474.980493192561,1,0,678846.010246573,678847.057362896,0,25,9,1,1,18,3,2131191,2251350,4061081,0,0,0,0,0,2131191,0,0,0,0,0,1171160,0,0,0,0,0,0,-1080190,0,0,0,0,4061081,0,0,0,0,0,0,0,0,0,0,0,0,0
16,207,404.974302975461,1,0,678848.669110949,678849.716173763,0,25,9,1,1,15,7,5272172,3130081,6160202,5221181,2051070,2150041,0,0,1071061,0,0,0,0,0,0,0,0,0,-3130081,0,0,0,0,0,0,2070021,0,4090181,0,0,0,0,2180040,3041141,0,0,0,0,0,0
16,208,530.375818838365,1,0,678851.233855473,678852.280920596,0,25,9,0,1,25,7,1130061,4240201,8382341,3192211,0,0,0,0,0,0,0,0,1130061,0,0,0,3200031,0,0,1040170,0,0,0,0,0,0,3201081,3121080,-2060180,0,0,2181020,1011191,0,0,0,0,0,0,0
16,209,442.967401468195,1,0,678854.022136523,678855.069192792,0,25,9,0,1,20,7,3200071,0,14541713,7082052,3200071,0,0,0,0,0,0,0,0,0,0,0,0,0,0,0,0,0,3180200,-3190060,3011181,1150161,0,4010111,0,0,0,0,0,4071021,0,0,3011031,0,0,0
16,210,493.353980709799,0,0,678856.692755342,678857.73982701,0,25,9,1,0,14,3,0,9071380,1010111,0,0,0,0,0,0,0,0,0,0,3011200,0,0,0,-2040170,4020010,0,0,0,1010111,0,0,0,0,0,0,0,0,0,0,0,0,0,0,0,0,0
16,211,444.838318857364,0,0,678859.375150163,678860.422266871,0,25,9,0,0,17,3,3110120,2071350,2201021,0,0,0,3110120,0,0,0,0,0,0,0,1050160,0,0,0,0,0,-1021190,0,0,0,0,0,0,0,0,2201021,0,0,0,0,0,0,0,0,0,0
16,212,510.825886158273,0,0,678861.975191123,678863.022255861,0,25,9,1,0,24,7,2170051,5371161,9413552,3040190,0,0,0,0,0,0,0,2170051,0,0,0,1181101,0,0,0,4190060,0,0,0,2061180,2051040,0,0,-3181151,0,0,2120181,0,0,0,0,0,3040190,0,0,0
16,213,430.862642358989,1,0,678864.634100155,678865.681132556,0,25,9,0,1,11,3,1040030,4331211,0,0,0,0,0,0,0,0,0,0,1040030,1060050,-1100030,0,0,2171131,0,0,0,0,0,0,0,0,0,0,0,0,0,0,0,0,0,0,0,0,0,0
16,214,373.28380974941,0,0,678867.292909481,678868.339984614,0,25,9,1,0,23,3,0,1080131,2070191,3211261,0,0,0,0,0,0,0,0,0,0,0,0,0,0,1080131,0,0,0,0,0,0,0,-2070191,0,0,0,0,0,0,0,0,2121130,0,1090131,0,0
16,215,512.789964559488,0,0,678869.881214091,678870.928247648,0,25,9,0,0,35,3,2030151,2081070,4040161,3171071,0,2030151,0,0,0,0,0,0,0,0,0,0,2081070,0,0,0,0,0,0,0,4040161,0,0,0,0,0,0,0,0,0,0,0,0,0,-3171071,0
16,216,559.208350954577,0,0,678872.598872627,678873.645938135,0,25,9,0,0,29,7,10082342,4280211,2331160,1161150,4031131,0,2021140,0,0,0,4030071,0,0,0,0,0,1190190,0,0,3090021,0,0,1171080,0,0,0,1160080,0,0,0,0,0,-1161150,0,0,0,0,0,0,0
16,217,382.587197120301,0,0,678900.35221872,678901.399291158,0,25,10,0,0,22,3,0,4070150,5281220,1110131,0,0,0,0,0,0,0,0,0,0,0,0,4070150,0,0,0,0,0,4191130,0,0,-1090090,0,0,0,0,0,0,0,0,0,0,1110131,0,0,0
16,218,617.175942286849,1,0,678902.869908899,678903.91677505,0,25,10,0,1,28,7,2091150,6162332,5181261,5342141,0,0,2091150,0,0,0,0,0,0,2021031,0,0,0,0,0,1120131,3021170,0,1091151,0,0,0,4090110,0,0,0,0,-2201081,0,0,0,0,0,0,3141060,0
16,219,415.822544600815,0,0,678905.71701837,678906.76411814,0,25,10,0,0,20,7,5190312,8323452,1131111,4080111,0,2060111,0,0,0,3130201,0,0,0,2201151,0,0,0,0,0,2111121,4011180,0,0,-1131111,0,0,0,0,0,0,0,1070031,3010080,0,0,0,0,0,0,0
16,220,466.226062388159,0,0,678908.293521572,678909.34059016,0,25,10,1,0,14,3,0,9071380,1010111,0,0,0,0,0,0,0,0,0,0,3011200,0,0,0,-2040170,4020010,0,0,0,1010111,0,0,0,0,0,0,0,0,0,0,0,0,0,0,0,0,0
16,221,691.178865847178,1,0,678910.999439907,678912.04651196,0,25,10,0,1,35,7,2131091,9411391,4271201,3112261,0,0,0,0,0,0,0,0,2131091,0,0,2180200,0,0,3160021,0,4071170,0,0,0,0,1150040,0,0,0,3121161,0,0,0,0,0,1081131,0,0,-2031130,0
16,222,881.46772631444,1,0,678913.905365095,678914.952434453,0,25,10,1,1,5,3,4100190,2131041,2130060,1040050,0,0,0,0,-4100190,0,0,0,0,0,0,0,0,0,0,0,0,2131041,2130060,0,0,0,0,0,0,0,0,0,0,0,0,0,0,0,1040050,0
16,223,461.418651393615,1,0,678916.95246756,678917.999543077,0,25,10,0,1,9,7,8594514,5200240,0,4131140,0,1081071,0,1041031,3141100,0,1200151,0,-2131161,0,1020160,0,0,0,0,4180080,0,0,0,0,0,0,0,0,0,0,0,0,0,0,0,0,4131140,0,0,0
16,224,602.104716002941,0,0,678919.552554715,678920.599608675,0,25,10,1,0,31,7,8432301,4050171,5040130,3231260,0,0,0,1191191,3041030,0,4200080,0,0,0,0,0,0,0,0,0,0,4050171,0,0,2020060,0,3020070,0,0,0,0,0,0,0,-2030060,0,0,0,1201200,0
16,225,371.782841277309,1,0,678922.38788703,678923.434909423,0,25,10,1,1,15,7,5272172,3130081,6160202,5221181,2051070,2150041,0,0,1071061,0,0,0,0,0,0,0,0,0,-3130081,0,0,0,0,0,0,2070021,0,4090181,0,0,0,0,2180040,3041141,0,0,0,0,0,0
16,226,1507.29655055329,0,0,678925.011452275,678926.058496226,0,25,10,1,0,1,7,4100131,4081380,4221212,12421273,-4100131,0,0,0,0,0,0,0,0,0,0,2041200,0,0,0,0,0,2040180,3020121,0,0,0,0,1201091,0,0,0,4160101,0,0,0,0,0,0,4141071,4120101
16,227,642.686301842332,0,0,678928.587944698,678929.635005972,0,25,10,0,0,32,3,1090041,1190150,4180050,3151051,0,0,0,0,0,0,0,1090041,0,0,0,1190150,0,0,0,0,0,0,0,0,4180050,0,0,0,0,0,0,0,0,0,0,-3151051,0,0,0,0
16,228,554.651550599374,1,0,678931.329151771,678932.376223053,0,25,10,1,1,24,7,2170051,5371161,9413552,3040190,0,0,0,0,0,0,0,2170051,0,0,0,1181101,0,0,0,4190060,0,0,0,2061180,2051040,0,0,-3181151,0,0,2120181,0,0,0,0,0,3040190,0,0,0
16,229,596.37262520846,0,0,678934.070366928,678935.11744668,0,25,10,1,0,33,7,4180031,0,12542403,9322232,0,0,4180031,0,0,0,0,0,0,0,0,0,0,0,0,0,0,0,4171141,0,2010091,0,0,4181161,2180010,0,0,0,0,0,0,4160011,-2101191,0,0,3061030
16,230,677.193950279616,0,0,678936.776291423,678937.823360011,0,25,10,0,0,25,3,6122102,0,4051170,1120050,0,0,0,0,0,0,4081021,0,2041081,0,0,0,0,0,0,0,0,0,0,0,0,0,0,0,-4051170,0,0,0,0,0,0,0,0,0,0,1120050
16,231,630.892592365853,1,0,678939.564567083,678940.611642986,0,25,10,1,1,13,7,3071121,7221211,2211190,8142332,0,0,0,3071121,0,0,0,0,0,0,0,0,-4100111,3121100,0,0,0,0,0,0,0,0,0,1180040,0,1031150,0,0,3071080,0,0,0,2030191,0,0,3041061
16,232,1169.22253300436,0,0,678942.317550542,678943.376382813,0,25,10,0,0,11,7,1160081,5211160,1171160,8483532,0,0,0,0,0,1160081,0,0,0,0,-1021050,4190110,0,0,0,0,0,0,0,0,0,1171160,0,0,0,0,0,1161130,0,0,0,1120201,4021171,0,2181030,0
16,233,555.799893452786,1,0,678945.611764634,678946.658785487,0,25,10,1,1,18,3,2131191,2251350,4061081,0,0,0,0,0,2131191,0,0,0,0,0,1171160,0,0,0,0,0,0,-1080190,0,0,0,0,4061081,0,0,0,0,0,0,0,0,0,0,0,0,0
16,234,442.706781788729,1,0,678948.364748093,678949.41177087,0,25,10,0,1,17,3,3171030,6281311,1080181,0,0,0,0,0,3171030,0,0,0,0,0,3130140,0,0,0,0,0,-3151171,0,0,0,0,0,0,0,1080181,0,0,0,0,0,0,0,0,0,0,0
16,235,430.168555118144,1,0,678950.988269452,678952.035343815,0,25,10,1,1,36,3,0,1091020,4201011,6120301,0,0,0,0,0,0,0,0,0,0,0,0,0,0,0,1091020,0,0,4201011,0,0,0,0,0,0,0,0,0,0,0,0,0,0,0,3010140,-3110161
16,236,488.139664405026,0,0,678953.635363217,678954.682426415,0,25,10,0,0,27,3,2190050,0,7121192,4170181,0,0,0,0,0,0,0,2190050,0,0,0,0,0,0,0,0,0,0,0,0,0,3091091,0,0,0,0,-4030101,0,0,0,0,0,4170181,0,0,0
16,237,414.686135482043,1,0,678956.258933851,678957.306005904,0,25,10,1,1,23,3,0,1080131,2070191,3211261,0,0,0,0,0,0,0,0,0,0,0,0,0,0,1080131,0,0,0,0,0,0,0,-2070191,0,0,0,0,0,0,0,0,2121130,0,1090131,0,0
16,238,615.193439065479,0,0,678958.835442057,678959.882506025,0,25,10,1,0,34,3,4131181,0,2050150,5251191,4131181,0,0,0,0,0,0,0,0,0,0,0,0,0,0,0,0,0,0,0,0,0,2050150,0,0,0,0,0,0,0,0,0,0,-3081130,2170061,0
16,239,410.160902072676,1,0,678961.541365012,678962.58843283,0,25,10,0,1,29,7,0,11404461,1060160,6152112,0,0,0,0,0,0,0,0,0,4081030,1061060,0,0,1060141,0,4041030,1161200,0,0,0,0,1060160,0,0,0,0,0,4091101,-2061011,0,0,0,0,0,0,0
16,240,520.23013366852,0,0,678964.106104531,678965.153181203,0,25,10,0,0,8,3,4261181,1060091,0,3200060,0,1170121,0,0,0,0,0,-3091060,0,0,0,1060091,0,0,0,0,0,0,0,0,0,0,0,0,0,0,0,0,0,0,0,3200060,0,0,0,0
16,241,703.786385944113,1,0,678991.800631058,678992.8477085,0,25,11,0,1,25,3,1021170,0,7230232,2010021,1021170,0,0,0,0,0,0,0,0,0,0,0,0,0,0,0,0,0,0,0,0,0,0,4030151,-3200081,0,0,0,0,0,0,0,0,2010021,0,0
16,242,717.369400779717,0,0,678994.647740914,678995.694812197,0,25,11,1,0,5,3,4100190,2131041,2130060,1040050,0,0,0,0,-4100190,0,0,0,0,0,0,0,0,0,0,0,0,2131041,2130060,0,0,0,0,0,0,0,0,0,0,0,0,0,0,0,1040050,0
16,243,590.355662163347,0,0,678997.541895875,678998.588964848,0,25,11,1,0,31,7,8432301,4050171,5040130,3231260,0,0,0,1191191,3041030,0,4200080,0,0,0,0,0,0,0,0,0,0,4050171,0,0,2020060,0,3020070,0,0,0,0,0,0,0,-2030060,0,0,0,1201200,0
16,244,570.934691932052,1,0,679000.224291466,679001.271413949,0,25,11,1,1,36,3,0,1091020,4201011,6120301,0,0,0,0,0,0,0,0,0,0,0,0,0,0,0,1091020,0,0,4201011,0,0,0,0,0,0,0,0,0,0,0,0,0,0,0,3010140,-3110161
16,245,391.628425102681,1,0,679002.918451124,679003.965530875,0,25,11,0,1,11,3,2031180,2050150,3070150,2091060,0,0,2031180,0,0,0,0,0,0,0,-2050150,0,0,0,0,0,0,0,0,3070150,0,0,0,0,0,0,0,0,0,0,0,2091060,0,0,0,0
16,246,411.549076670781,0,0,679005.565548738,679006.612606932,0,25,11,0,0,9,7,6170081,7301280,2010091,6151322,0,0,4040070,0,0,0,0,0,-2130011,0,3090130,0,0,1040140,0,3171010,0,0,0,0,2010091,0,0,0,0,0,0,0,0,0,0,0,0,0,3060181,3091141
16,247,370.207959786057,1,0,679008.047942095,679009.095009914,0,25,11,1,1,15,7,5272172,3130081,6160202,5221181,2051070,2150041,0,0,1071061,0,0,0,0,0,0,0,0,0,-3130081,0,0,0,0,0,0,2070021,0,4090181,0,0,0,0,2180040,3041141,0,0,0,0,0,0
16,248,459.385664667934,0,0,679010.553857813,679011.600926401,0,25,11,0,0,27,7,3291112,3160011,6231540,6201291,0,0,1171071,0,0,2120041,0,0,0,0,0,0,0,3160011,0,0,0,0,0,0,3091200,0,0,0,0,1020170,-2120170,0,0,0,4040201,0,0,0,2161090,0
16,249,594.748853589408,1,0,679013.224477018,679014.271569858,0,25,11,1,1,13,7,3071121,7221211,2211190,8142332,0,0,0,3071121,0,0,0,0,0,0,0,0,-4100111,3121100,0,0,0,0,0,0,0,0,0,1180040,0,1031150,0,0,3071080,0,0,0,2030191,0,0,3041061
16,250,498.839310486801,0,0,679015.883344474,679016.930451558,0,25,11,1,0,33,7,4180031,0,12542403,9322232,0,0,4180031,0,0,0,0,0,0,0,0,0,0,0,0,0,0,0,4171141,0,2010091,0,0,4181161,2180010,0,0,0,0,0,0,4160011,-2101191,0,0,3061030
16,251,776.104660588317,1,0,679018.448090152,679019.495150656,0,25,11,1,1,24,7,2170051,5371161,9413552,3040190,0,0,0,0,0,0,0,2170051,0,0,0,1181101,0,0,0,4190060,0,0,0,2061180,2051040,0,0,-3181151,0,0,2120181,0,0,0,0,0,3040190,0,0,0
16,252,916.507392888889,1,0,679021.318719288,679022.365789031,0,25,11,0,1,35,7,6191343,0,8350222,7221302,2080061,0,2020171,0,0,0,0,0,2091111,0,0,0,0,0,0,0,0,0,4110091,0,0,0,0,3110061,1130070,0,0,0,0,3170171,0,0,0,0,-4051131,0
16,253,534.788258373737,1,0,679024.436408467,679025.483486679,0,25,11,0,1,28,7,10410191,4060180,6351281,7372110,0,0,3190050,0,3100051,0,4120090,0,0,0,0,0,0,0,4060180,0,0,0,4150111,0,0,0,2201170,0,0,0,0,-4191040,0,0,0,0,0,3181070,0,0
16,254,446.060959598981,0,0,679027.21292699,679028.259993268,0,25,11,1,0,14,3,0,9071380,1010111,0,0,0,0,0,0,0,0,0,0,3011200,0,0,0,-2040170,4020010,0,0,0,1010111,0,0,0,0,0,0,0,0,0,0,0,0,0,0,0,0,0
16,255,616.386052803136,1,0,679029.883551198,679030.930625176,0,25,11,0,1,32,3,2331280,3171130,0,1081011,0,0,1140190,0,1191090,0,0,0,0,0,0,0,3171130,0,0,0,0,0,0,0,0,0,0,0,0,0,0,0,0,0,0,-1081011,0,0,0,0
16,256,539.749654359184,0,0,679032.648305269,679033.695365003,0,25,11,1,0,34,3,4131181,0,2050150,5251191,4131181,0,0,0,0,0,0,0,0,0,0,0,0,0,0,0,0,0,0,0,0,0,2050150,0,0,0,0,0,0,0,0,0,0,-3081130,2170061,0
16,257,640.746091143228,1,0,679035.401287958,679036.448353466,0,25,11,1,1,18,3,2131191,2251350,4061081,0,0,0,0,0,2131191,0,0,0,0,0,1171160,0,0,0,0,0,0,-1080190,0,0,0,0,4061081,0,0,0,0,0,0,0,0,0,0,0,0,0
16,258,518.07126426138,0,0,679038.177791467,679039.22486737,0,25,11,0,0,29,3,6231301,1070191,0,3071111,0,0,4100141,0,2131160,0,0,0,0,0,0,0,0,0,0,0,1070191,0,0,0,0,0,0,0,0,0,0,0,-3071111,0,0,0,0,0,0,0
16,259,1460.31496394426,0,0,679040.907300301,679041.989604887,0,25,11,1,0,1,7,4100131,4081380,4221212,12421273,-4100131,0,0,0,0,0,0,0,0,0,0,2041200,0,0,0,0,0,2040180,3020121,0,0,0,0,1201091,0,0,0,4160101,0,0,0,0,0,0,4141071,4120101
16,260,441.460273461416,0,0,679044.542598817,679045.58966471,0,25,11,1,0,23,3,0,1080131,2070191,3211261,0,0,0,0,0,0,0,0,0,0,0,0,0,0,1080131,0,0,0,0,0,0,0,-2070191,0,0,0,0,0,0,0,0,2121130,0,1090131,0,0
16,261,525.261207832955,1,0,679047.095566184,679048.142642471,0,25,11,0,1,8,3,2200131,0,5241172,3171141,0,0,0,0,0,0,0,-2200131,0,0,0,0,0,0,0,0,0,0,0,0,3121051,2120121,0,0,0,0,0,3171141,0,0,0,0,0,0,0,0
16,262,572.546144714579,1,0,679049.813256671,679050.860334113,0,25,11,0,1,20,3,1160100,5192082,2181150,0,0,0,0,0,0,0,0,1160100,0,0,0,0,0,4171041,0,1021041,0,0,0,-2181150,0,0,0,0,0,0,0,0,0,0,0,0,0,0,0,0
16,263,497.841103002429,0,0,679052.578004968,679053.625105507,0,25,11,0,0,17,7,4352322,7032212,4081041,9331141,0,2171191,0,0,0,0,0,2181131,0,0,0,0,0,0,0,3011191,-4021021,0,0,0,0,0,0,0,0,4081041,0,0,2120050,0,0,4031080,3180011,0,0,0
16,264,426.90869315993,0,0,679055.130984269,679056.178090198,0,25,11,0,0,22,7,4200200,11602371,6251212,4020071,0,0,0,0,0,4200200,0,0,0,2200151,0,0,2200070,4141060,0,0,3061090,0,0,0,0,-4160161,0,0,0,2091051,0,4020071,0,0,0,0,0,0,0,0
16,265,467.590754153207,0,0,679080.237232363,679081.284326744,0,25,12,1,0,18,3,2131191,2251350,4061081,0,0,0,0,0,2131191,0,0,0,0,0,1171160,0,0,0,0,0,0,-1080190,0,0,0,0,4061081,0,0,0,0,0,0,0,0,0,0,0,0,0
16,266,552.666684146971,0,0,679082.849059718,679083.896112908,0,25,12,1,0,13,7,3071121,7221211,2211190,8142332,0,0,0,3071121,0,0,0,0,0,0,0,0,-4100111,3121100,0,0,0,0,0,0,0,0,0,1180040,0,1031150,0,0,3071080,0,0,0,2030191,0,0,3041061
16,267,531.369406846352,1,0,679085.578549304,679086.625572082,0,25,12,0,1,27,7,8260200,3061131,6251320,7132161,0,4110080,0,0,0,0,0,4150120,0,0,0,0,0,0,0,3061131,0,0,4111200,0,0,0,0,0,0,0,-2140120,0,0,0,1050070,0,0,4051031,0,2031060
16,268,655.781184323132,1,0,679088.166769993,679089.213839351,0,25,12,1,1,31,7,8432301,4050171,5040130,3231260,0,0,0,1191191,3041030,0,4200080,0,0,0,0,0,0,0,0,0,0,4050171,0,0,2020060,0,3020070,0,0,0,0,0,0,0,-2030060,0,0,0,1201200,0
16,269,393.622530507855,0,0,679090.955042574,679092.002116166,0,25,12,0,0,17,3,4061071,3010120,4161101,1190200,4061071,0,0,0,0,0,0,0,0,0,0,0,0,0,0,0,-3010120,0,0,0,0,0,0,0,0,0,4161101,0,0,0,0,0,0,1190200,0,0
16,270,425.172127550468,1,0,679093.590386515,679094.637453948,0,25,12,0,1,20,7,0,9471402,5352220,8391091,0,0,0,0,0,0,0,0,0,0,0,0,0,4190171,1090100,0,4191131,0,0,-4151030,0,0,0,0,1201190,0,0,0,4070060,0,0,3130020,0,0,1191011,0
16,271,437.284585903399,0,1,679096.237482204,679097.284543478,0,25,12,1,1,14,3,0,9071380,1010111,0,0,0,0,0,0,0,0,0,0,3011200,0,0,0,-2040170,4020010,0,0,0,1010111,0,0,0,0,0,0,0,0,0,0,0,0,0,0,0,0,0
16,272,416.133979219012,0,0,679098.837518159,679099.884583283,0,25,12,1,0,15,7,5272172,3130081,6160202,5221181,2051070,2150041,0,0,1071061,0,0,0,0,0,0,0,0,0,-3130081,0,0,0,0,0,0,2070021,0,4090181,0,0,0,0,2180040,3041141,0,0,0,0,0,0
16,273,424.816807149909,1,0,679101.378727234,679102.425801596,0,25,12,1,1,23,3,0,1080131,2070191,3211261,0,0,0,0,0,0,0,0,0,0,0,0,0,0,1080131,0,0,0,0,0,0,0,-2070191,0,0,0,0,0,0,0,0,2121130,0,1090131,0,0
16,274,592.471415759064,0,0,679104.002305568,679105.049369151,0,25,12,0,0,11,7,4131091,2060180,11302491,4090050,0,0,0,0,0,0,4131091,0,0,0,-1010040,0,0,1050140,0,0,0,0,2010191,0,2171040,4070140,0,0,3051120,0,0,0,0,0,4090050,0,0,0,0,0
16,275,455.626891343854,0,0,679106.767043085,679107.814115908,0,25,12,0,0,29,3,0,0,2151130,7422332,0,0,0,0,0,0,0,0,0,0,0,0,0,0,0,0,0,0,0,0,2151130,0,0,0,0,0,0,0,-2200200,0,2201071,0,0,0,0,3021061
16,276,377.938005607575,0,0,679109.284768681,679110.331800312,0,25,12,0,0,22,3,4360241,3041021,4060160,0,3190171,1170070,0,0,0,0,0,0,0,0,0,0,3041021,0,0,0,0,0,0,0,0,-4060160,0,0,0,0,0,0,0,0,0,0,0,0,0,0
16,277,595.506844576448,1,0,679111.767111608,679112.81419444,0,25,12,1,1,24,7,2170051,5371161,9413552,3040190,0,0,0,0,0,0,0,2170051,0,0,0,1181101,0,0,0,4190060,0,0,0,2061180,2051040,0,0,-3181151,0,0,2120181,0,0,0,0,0,3040190,0,0,0
16,278,1366.31829931866,0,0,679114.461310532,679115.508359102,0,25,12,0,0,25,7,6242321,5070132,4331250,3191311,2121191,0,4121130,0,0,0,0,0,0,0,0,0,0,0,0,2030101,0,3040031,0,0,0,0,0,0,-3140170,1191080,0,0,0,0,0,0,2010160,0,1181151,0
16,279,490.587255568244,1,0,679118.026034653,679119.07310786,0,25,12,0,1,8,3,4131290,2101081,0,2131151,2011170,0,0,0,0,0,0,-2120120,0,2101081,0,0,0,0,0,0,0,0,0,0,0,0,0,0,0,0,0,0,0,0,0,2131151,0,0,0,0
16,280,530.363115132786,1,0,679120.673125723,679121.720205859,0,25,12,1,1,33,7,4180031,0,12542403,9322232,0,0,4180031,0,0,0,0,0,0,0,0,0,0,0,0,0,0,0,4171141,0,2010091,0,0,4181161,2180010,0,0,0,0,0,0,4160011,-2101191,0,0,3061030
16,281,823.531263624318,1,0,679123.379058687,679124.426111491,0,25,12,1,1,1,7,4100131,4081380,4221212,12421273,-4100131,0,0,0,0,0,0,0,0,0,0,2041200,0,0,0,0,0,2040180,3020121,0,0,0,0,1201091,0,0,0,4160101,0,0,0,0,0,0,4141071,4120101
16,282,411.265744245611,0,0,679126.332042069,679127.379132984,0,25,12,0,0,28,3,4031061,4170051,3160050,2190151,0,0,0,4031061,0,0,0,0,0,0,4170051,0,0,0,0,0,0,0,0,0,0,0,0,0,0,0,3160050,-2190151,0,0,0,0,0,0,0,0
16,283,464.832113357261,1,0,679128.90854758,679129.955651199,0,25,12,1,1,36,3,0,1091020,4201011,6120301,0,0,0,0,0,0,0,0,0,0,0,0,0,0,0,1091020,0,0,4201011,0,0,0,0,0,0,0,0,0,0,0,0,0,0,0,3010140,-3110161
16,284,642.66782370396,1,0,679131.496826012,679132.54389922,0,25,12,1,1,5,3,4100190,2131041,2130060,1040050,0,0,0,0,-4100190,0,0,0,0,0,0,0,0,0,0,0,0,2131041,2130060,0,0,0,0,0,0,0,0,0,0,0,0,0,0,0,1040050,0
16,285,517.004533321597,1,0,679134.36749634,679135.414540675,0,25,12,0,1,32,3,2131130,1170201,2131201,3131110,0,0,0,0,2131130,0,0,0,0,0,0,0,0,0,0,0,0,1170201,2131201,0,0,0,0,0,0,0,0,0,0,0,0,-3131110,0,0,0,0
16,286,525.246579316445,0,0,679137.085140631,679138.132212299,0,25,12,0,0,35,7,2170171,6311180,9282531,4201282,0,0,0,0,0,0,0,2170171,0,0,0,2160160,4151020,0,0,0,0,0,0,4071200,0,0,0,0,1111130,0,4100201,0,0,0,0,0,1031091,0,-3170191,0
16,287,596.139722852968,1,0,679139.673414059,679140.720478798,0,25,12,1,1,34,3,4131181,0,2050150,5251191,4131181,0,0,0,0,0,0,0,0,0,0,0,0,0,0,0,0,0,0,0,0,0,2050150,0,0,0,0,0,0,0,0,0,0,-3081130,2170061,0
16,288,835.483192582615,0,0,679142.35581119,679143.402879778,0,25,12,0,0,9,7,4242161,7191161,3161160,7221341,0,0,0,0,0,2171120,0,0,-2071041,3030111,0,4161050,0,0,0,0,0,0,0,0,0,0,3161160,0,0,0,0,3021010,2110160,0,0,0,0,0,2090171,0
16,289,531.365557340905,0,0,679156.556013603,679157.603080651,0,25,13,1,0,33,7,4180031,0,12542403,9322232,0,0,4180031,0,0,0,0,0,0,0,0,0,0,0,0,0,0,0,4171141,0,2010091,0,0,4181161,2180010,0,0,0,0,0,0,4160011,-2101191,0,0,3061030
16,290,753.019617754035,1,0,679159.250173646,679160.297237229,0,25,13,0,1,28,7,8483361,0,5141271,3391202,0,0,1091041,0,4140040,0,2181190,0,1071090,0,0,0,0,0,0,0,0,0,2080071,0,0,3061200,0,0,0,0,0,-2190061,0,0,0,0,1201141,0,0,0
16,291,424.146972596645,1,0,679162.10903987,679163.156104993,0,25,13,1,1,15,7,5272172,3130081,6160202,5221181,2051070,2150041,0,0,1071061,0,0,0,0,0,0,0,0,0,-3130081,0,0,0,0,0,0,2070021,0,4090181,0,0,0,0,2180040,3041141,0,0,0,0,0,0
16,292,459.595469175838,0,0,679164.685561549,679165.732617434,0,25,13,0,0,22,7,3161111,8301361,5191330,7281272,0,0,0,3161111,0,0,0,0,0,0,4150201,0,0,0,0,4151160,0,0,0,0,0,-2160180,0,0,0,0,3031150,0,3010060,3191171,0,0,1080041,0,0,0
16,293,489.629469113424,0,0,679167.379703114,679168.42679172,0,25,13,1,0,23,3,0,1080131,2070191,3211261,0,0,0,0,0,0,0,0,0,0,0,0,0,0,1080131,0,0,0,0,0,0,0,-2070191,0,0,0,0,0,0,0,0,2121130,0,1090131,0,0
16,294,510.511756758206,0,0,679170.038567105,679171.085638003,0,25,13,1,0,18,3,2131191,2251350,4061081,0,0,0,0,0,2131191,0,0,0,0,0,1171160,0,0,0,0,0,0,-1080190,0,0,0,0,4061081,0,0,0,0,0,0,0,0,0,0,0,0,0
16,295,433.90423071105,0,0,679172.650385606,679173.69744303,0,25,13,0,0,20,7,4190091,10370322,8080331,4270151,0,0,0,4190091,0,0,0,0,0,2150120,0,0,0,0,0,4150071,0,4070131,0,-4070161,0,0,4010170,0,0,0,0,2070141,0,0,0,0,0,0,2200010,0
16,296,530.785803915933,0,0,679175.309239203,679176.356358991,0,25,13,0,0,9,3,6242152,1111131,1180041,0,0,2161041,0,0,0,0,0,0,-4081111,0,0,0,0,0,1111131,0,0,0,0,0,0,0,0,0,0,1180041,0,0,0,0,0,0,0,0,0,0
16,297,551.016350160353,0,0,679177.909265535,679178.956341822,0,25,13,1,0,36,3,0,1091020,4201011,6120301,0,0,0,0,0,0,0,0,0,0,0,0,0,0,0,1091020,0,0,4201011,0,0,0,0,0,0,0,0,0,0,0,0,0,0,0,3010140,-3110161
16,298,665.244331117719,0,0,679180.674016911,679181.721088963,0,25,13,0,0,35,3,0,0,5321232,3291341,0,0,0,0,0,0,0,0,0,0,0,0,0,0,0,0,0,0,0,4170181,0,0,1151051,0,0,0,0,0,0,1130160,0,0,0,0,-2161181,0
16,299,624.049500096589,1,0,679183.474062413,679184.521127921,0,25,13,1,1,13,7,3071121,7221211,2211190,8142332,0,0,0,3071121,0,0,0,0,0,0,0,0,-4100111,3121100,0,0,0,0,0,0,0,0,0,1180040,0,1031150,0,0,3071080,0,0,0,2030191,0,0,3041061
16,300,519.412088440731,1,0,679186.344692705,679187.391762832,0,25,13,0,1,11,3,0,4181010,2140180,3270061,0,0,0,0,0,0,0,0,0,0,-4181010,0,0,0,0,0,0,0,0,2140180,0,0,0,0,0,0,0,0,0,0,0,0,1110031,2160030,0,0
16,301,778.945298399776,1,0,679189.121228551,679190.168280585,0,25,13,0,1,32,7,5091222,7332261,7311251,2130020,0,0,0,0,0,3071041,2020181,0,0,0,0,2111020,4101121,1120120,0,0,0,0,4200120,0,0,0,0,0,0,3111131,0,0,0,0,0,-2130020,0,0,0,0
16,302,724.859614972956,0,0,679192.015352715,679193.062432467,0,25,13,1,0,34,3,4131181,0,2050150,5251191,4131181,0,0,0,0,0,0,0,0,0,0,0,0,0,0,0,0,0,0,0,0,0,2050150,0,0,0,0,0,0,0,0,0,0,-3081130,2170061,0
16,303,865.453673759475,0,0,679194.90952346,679195.956594742,0,25,13,0,0,25,7,3191141,2031040,3140081,15511523,0,0,0,0,0,0,3191141,0,0,0,0,0,0,0,0,0,2031040,0,0,0,0,0,0,0,-3140081,0,0,1030181,0,4121111,0,4110041,0,4090010,2160180,0
16,304,450.532298418693,1,0,679197.968175404,679199.015466279,0,25,13,0,1,27,7,8191370,5381032,3181070,2330191,0,0,3120190,0,0,0,2041140,3030040,0,1200011,4181021,0,0,0,0,0,0,0,0,0,0,0,0,0,0,0,-3181070,0,0,0,1180041,1150150,0,0,0,0
16,305,593.257894157432,0,0,679200.497840773,679201.544907436,0,25,13,1,0,24,7,2170051,5371161,9413552,3040190,0,0,0,0,0,0,0,2170051,0,0,0,1181101,0,0,0,4190060,0,0,0,2061180,2051040,0,0,-3181151,0,0,2120181,0,0,0,0,0,3040190,0,0,0
16,306,476.295139989816,1,0,679203.262592149,679204.309658812,0,25,13,0,1,17,3,0,4231211,3071161,0,0,0,0,0,0,0,0,0,0,0,0,2040150,0,0,0,0,-1161050,1030011,0,0,3071161,0,0,0,0,0,0,0,0,0,0,0,0,0,0,0
16,307,644.332786207087,0,0,679205.815593393,679206.862640038,0,25,13,1,0,31,7,8432301,4050171,5040130,3231260,0,0,0,1191191,3041030,0,4200080,0,0,0,0,0,0,0,0,0,0,4050171,0,0,2020060,0,3020070,0,0,0,0,0,0,0,-2030060,0,0,0,1201200,0
16,308,1119.52118691988,1,0,679208.56854952,679209.615617338,0,25,13,1,1,1,7,4100131,4081380,4221212,12421273,-4100131,0,0,0,0,0,0,0,0,0,0,2041200,0,0,0,0,0,2040180,3020121,0,0,0,0,1201091,0,0,0,4160101,0,0,0,0,0,0,4141071,4120101
16,309,445.917368633673,1,0,679211.850952579,679212.898022322,0,25,13,1,1,14,3,0,9071380,1010111,0,0,0,0,0,0,0,0,0,0,3011200,0,0,0,-2040170,4020010,0,0,0,1010111,0,0,0,0,0,0,0,0,0,0,0,0,0,0,0,0,0
16,310,426.365511026233,1,0,679214.474544771,679215.521617209,0,25,13,0,1,8,3,6202162,0,1130130,1041060,0,0,0,4131021,0,0,0,-2071141,0,0,0,0,0,0,0,0,0,0,0,0,0,0,0,0,1130130,0,0,0,0,0,0,1041060,0,0,0,0
16,311,641.725050634705,1,0,679217.039261192,679218.086339404,0,25,13,0,1,29,3,0,0,3061181,7372303,0,0,0,0,0,0,0,0,0,0,0,0,0,0,0,0,0,0,0,0,0,0,0,3061181,0,0,0,0,-2041101,0,2191121,3140081,0,0,0,0
16,312,710.937833297066,0,0,679219.7569486,679220.804080322,0,25,13,1,0,5,3,4100190,2131041,2130060,1040050,0,0,0,0,-4100190,0,0,0,0,0,0,0,0,0,0,0,0,2131041,2130060,0,0,0,0,0,0,0,0,0,0,0,0,0,0,0,1040050,0
16,313,455.294283805415,1,0,679243.651638274,679244.698495517,0,25,14,1,1,24,7,2170051,5371161,9413552,3040190,0,0,0,0,0,0,0,2170051,0,0,0,1181101,0,0,0,4190060,0,0,0,2061180,2051040,0,0,-3181151,0,0,2120181,0,0,0,0,0,3040190,0,0,0
16,314,556.501295068301,1,0,679246.169094396,679247.216179537,0,25,14,1,1,18,3,2131191,2251350,4061081,0,0,0,0,0,2131191,0,0,0,0,0,1171160,0,0,0,0,0,0,-1080190,0,0,0,0,4061081,0,0,0,0,0,0,0,0,0,0,0,0,0
16,315,468.216318171471,0,0,679248.804444496,679249.851510774,0,25,14,1,0,34,3,4131181,0,2050150,5251191,4131181,0,0,0,0,0,0,0,0,0,0,0,0,0,0,0,0,0,0,0,0,0,2050150,0,0,0,0,0,0,0,0,0,0,-3081130,2170061,0
16,316,504.33387956582,0,0,679251.404483531,679252.451547885,0,25,14,1,0,36,3,0,1091020,4201011,6120301,0,0,0,0,0,0,0,0,0,0,0,0,0,0,0,1091020,0,0,4201011,0,0,0,0,0,0,0,0,0,0,0,0,0,0,0,3010140,-3110161
16,317,1104.98462000396,0,0,679254.098636645,679255.145706003,0,25,14,1,0,1,7,4100131,4081380,4221212,12421273,-4100131,0,0,0,0,0,0,0,0,0,0,2041200,0,0,0,0,0,2040180,3020121,0,0,0,0,1201091,0,0,0,4160101,0,0,0,0,0,0,4141071,4120101
16,318,403.355535934679,1,0,679257.357507334,679258.404571303,0,25,14,1,1,23,3,0,1080131,2070191,3211261,0,0,0,0,0,0,0,0,0,0,0,0,0,0,1080131,0,0,0,0,0,0,0,-2070191,0,0,0,0,0,0,0,0,2121130,0,1090131,0,0
16,319,646.24874421861,1,0,679259.863426902,679260.910494335,0,25,14,0,1,28,3,0,3191171,3161041,4241271,0,0,0,0,0,0,0,0,0,0,0,0,0,0,3191171,0,0,0,0,0,0,0,0,3161041,0,0,0,-3161190,1080081,0,0,0,0,0,0,0
16,320,402.65875402838,0,0,679262.639973912,679263.687011318,0,25,14,1,0,15,7,5272172,3130081,6160202,5221181,2051070,2150041,0,0,1071061,0,0,0,0,0,0,0,0,0,-3130081,0,0,0,0,0,0,2070021,0,4090181,0,0,0,0,2180040,3041141,0,0,0,0,0,0
16,321,959.26440146286,1,0,679265.122329928,679266.169395821,0,25,14,1,1,33,7,4180031,0,12542403,9322232,0,0,4180031,0,0,0,0,0,0,0,0,0,0,0,0,0,0,0,4171141,0,2010091,0,0,4181161,2180010,0,0,0,0,0,0,4160011,-2101191,0,0,3061030
16,322,549.856458324939,0,0,679268.157665246,679269.204793888,0,25,14,0,0,20,7,0,8273501,13464312,0,0,0,0,0,0,0,0,0,0,0,2191120,3020161,0,0,1051130,0,2011090,0,4151011,-2011140,0,4131020,0,3171141,0,0,0,0,0,0,0,0,0,0,0,0
16,323,562.87704303395,1,0,679270.863385151,679271.910659869,0,25,14,0,1,11,7,7301151,7251141,14644382,0,0,0,0,3121051,0,0,0,4180100,0,0,-4070030,0,0,0,0,3181111,0,0,0,0,3191130,4121101,4161020,0,3171131,0,0,0,0,0,0,0,0,0,0,0
16,324,591.941322432831,1,0,679273.569511156,679274.616580514,0,25,14,0,1,25,7,4120201,7441301,4311162,6090191,0,0,0,4120201,0,0,0,0,0,0,0,1151030,0,0,0,3180200,3110071,0,0,0,0,0,0,2160101,-2151061,0,0,0,0,0,0,0,4080151,2010040,0,0
16,325,597.755025373772,0,0,679276.263674664,679277.310745946,0,25,14,0,0,32,3,3180160,1150031,3151190,2081090,0,0,0,0,3180160,0,0,0,0,0,0,0,1150031,0,0,0,0,0,0,0,0,3151190,0,0,0,0,0,0,0,0,0,-2081090,0,0,0,0
16,326,443.144099088386,1,0,679278.922534035,679279.969614942,0,25,14,0,1,22,3,2181131,4121140,4161291,0,0,0,0,0,0,2181131,0,0,0,0,0,0,0,0,0,4121140,0,0,2101131,0,0,-2060160,0,0,0,0,0,0,0,0,0,0,0,0,0,0
16,327,576.224845834076,1,0,679281.487273554,679282.534346377,0,25,14,0,1,9,7,9412520,6161361,0,5292311,3011190,0,0,0,4080130,0,1160160,0,-1161040,0,0,0,0,0,3121170,0,0,3040191,0,0,0,0,0,0,0,0,0,0,0,0,0,0,1151180,0,0,4141131
16,328,1158.48131093662,0,0,679284.19319266,679285.240269717,0,25,14,1,0,5,3,4100190,2131041,2130060,1040050,0,0,0,0,-4100190,0,0,0,0,0,0,0,0,0,0,0,0,2131041,2130060,0,0,0,0,0,0,0,0,0,0,0,0,0,0,0,1040050,0
16,329,643.290307954885,1,0,679287.593274888,679288.640336161,0,25,14,1,1,13,7,3071121,7221211,2211190,8142332,0,0,0,3071121,0,0,0,0,0,0,0,0,-4100111,3121100,0,0,0,0,0,0,0,0,0,1180040,0,1031150,0,0,3071080,0,0,0,2030191,0,0,3041061
16,330,456.360244890675,1,0,679290.346233709,679291.393305377,0,25,14,0,1,17,3,2031181,3110111,0,3140170,0,0,0,2031181,0,0,0,0,0,0,0,0,0,2030081,0,0,-1080030,0,0,0,0,0,0,0,0,0,0,0,3140170,0,0,0,0,0,0,0
16,331,1057.34205304179,1,0,679293.005227433,679294.052168213,0,25,14,0,1,35,7,4201180,1050081,5201180,8510361,0,0,0,0,0,4201180,0,0,0,0,1050081,0,0,0,0,0,0,0,0,0,1101070,0,0,0,0,0,4100110,0,0,2180120,0,0,0,3130070,-2080111,1120060
16,332,438.278558896855,1,0,679296.15808293,679297.205156523,0,25,14,0,1,8,3,3040081,0,3161201,3180130,0,0,0,0,0,0,0,-3040081,0,0,0,0,0,0,0,0,0,0,0,0,0,0,0,0,2021181,1140020,0,0,0,0,0,0,3180130,0,0,0
16,333,579.749177093618,0,0,679298.734626937,679299.781664728,0,25,14,0,0,29,7,2140011,4080131,7393471,9301271,2140011,0,0,0,0,0,0,0,0,0,0,0,4080131,0,0,0,0,0,0,0,0,0,4121190,0,0,2201191,1071090,0,-3120120,0,0,0,0,3151131,0,3030020
16,334,496.028314810246,0,0,679301.499335967,679302.546406095,0,25,14,0,0,27,3,0,0,10111372,3060041,0,0,0,0,0,0,0,0,0,0,0,0,0,0,0,0,0,0,0,4090121,0,3011131,0,0,0,0,-3010120,0,0,0,0,3060041,0,0,0,0
16,335,408.365437178873,0,0,679304.217021835,679305.264093118,0,25,14,1,0,14,3,0,9071380,1010111,0,0,0,0,0,0,0,0,0,0,3011200,0,0,0,-2040170,4020010,0,0,0,1010111,0,0,0,0,0,0,0,0,0,0,0,0,0,0,0,0,0
16,336,751.074402476661,0,0,679306.758242074,679307.805302962,0,25,14,1,0,31,7,8432301,4050171,5040130,3231260,0,0,0,1191191,3041030,0,4200080,0,0,0,0,0,0,0,0,0,0,4050171,0,0,2020060,0,3020070,0,0,0,0,0,0,0,-2030060,0,0,0,1201200,0
16,337,509.46119427681,0,1,679327.440896744,679328.487966872,0,25,15,1,1,1,7,4100131,4081380,4221212,12421273,-4100131,0,0,0,0,0,0,0,0,0,0,2041200,0,0,0,0,0,2040180,3020121,0,0,0,0,1201091,0,0,0,4160101,0,0,0,0,0,0,4141071,4120101
16,338,536.665720166638,1,0,679330.111525572,679331.15860032,0,25,15,0,1,22,7,2070191,1130010,7584291,5252262,0,0,0,0,0,2070191,0,0,0,0,0,0,1130010,0,0,0,0,0,0,0,1171010,-4161080,0,0,1131011,0,1121190,0,0,4111161,0,0,0,1141101,0,0
16,339,517.228581476957,0,0,679332.746851805,679333.793920008,0,25,15,0,0,17,3,3070111,7322231,0,2120061,0,0,0,0,3070111,0,0,0,0,0,0,3161121,0,0,0,0,-4161110,0,0,0,0,0,0,0,0,0,0,0,0,0,2120061,0,0,0,0,0
16,340,805.48037472181,0,0,679335.405719261,679336.452795548,0,25,15,1,0,31,7,8432301,4050171,5040130,3231260,0,0,0,1191191,3041030,0,4200080,0,0,0,0,0,0,0,0,0,0,4050171,0,0,2020060,0,3020070,0,0,0,0,0,0,0,-2030060,0,0,0,1201200,0
16,341,424.298647791147,1,0,679338.405763531,679339.452836354,0,25,15,0,1,9,7,8392251,4161061,1120110,7411282,0,4071120,0,0,0,0,3151041,0,-1170090,0,4161061,0,0,0,0,0,0,0,0,0,0,0,0,1120110,0,0,0,0,0,0,2140071,3090071,2181140,0,0,0
16,342,376.587557489984,1,0,679340.911684639,679341.958755921,0,25,15,1,1,14,3,0,9071380,1010111,0,0,0,0,0,0,0,0,0,0,3011200,0,0,0,-2040170,4020010,0,0,0,1010111,0,0,0,0,0,0,0,0,0,0,0,0,0,0,0,0,0
16,343,622.311779647134,1,0,679343.511722519,679344.558791877,0,25,15,1,1,23,3,0,1080131,2070191,3211261,0,0,0,0,0,0,0,0,0,0,0,0,0,0,1080131,0,0,0,0,0,0,0,-2070191,0,0,0,0,0,0,0,0,2121130,0,1090131,0,0
16,344,785.478880978189,1,0,679346.370592208,679347.417658871,0,25,15,0,1,11,7,7241311,7432691,1190010,2190141,3081171,0,0,0,0,0,4160140,0,0,1151180,-4080180,1091160,0,1110171,0,0,0,0,0,0,1190010,0,0,0,0,0,0,0,0,2190141,0,0,0,0,0,0
16,345,524.076293455437,1,0,679349.300048225,679350.347111424,0,25,15,1,1,33,7,4180031,0,12542403,9322232,0,0,4180031,0,0,0,0,0,0,0,0,0,0,0,0,0,0,0,4171141,0,2010091,0,0,4181161,2180010,0,0,0,0,0,0,4160011,-2101191,0,0,3061030
16,346,838.351162732579,1,0,679351.911846323,679352.958916066,0,25,15,1,1,36,3,0,1091020,4201011,6120301,0,0,0,0,0,0,0,0,0,0,0,0,0,0,0,1091020,0,0,4201011,0,0,0,0,0,0,0,0,0,0,0,0,0,0,0,3010140,-3110161
16,347,537.805979023688,0,0,679354.994294884,679356.041338065,0,25,15,1,0,13,7,3071121,7221211,2211190,8142332,0,0,0,3071121,0,0,0,0,0,0,0,0,-4100111,3121100,0,0,0,0,0,0,0,0,0,1180040,0,1031150,0,0,3071080,0,0,0,2030191,0,0,3041061
16,348,589.469093712978,0,0,679357.723702088,679358.770771061,0,25,15,1,0,18,3,2131191,2251350,4061081,0,0,0,0,0,2131191,0,0,0,0,0,1171160,0,0,0,0,0,0,-1080190,0,0,0,0,4061081,0,0,0,0,0,0,0,0,0,0,0,0,0
16,349,441.650059889071,0,0,679360.394377497,679361.441399505,0,25,15,0,0,8,3,2020141,7162201,2011100,0,0,0,0,0,0,0,0,-2020141,0,0,0,4091091,0,0,0,0,0,3071110,0,0,0,2011100,0,0,0,0,0,0,0,0,0,0,0,0,0,0
16,350,402.888191514649,0,0,679362.912004928,679363.95908083,0,25,15,0,0,29,3,0,2140050,0,8361372,0,0,0,0,0,0,0,0,0,0,0,0,2140050,0,0,0,0,0,0,0,0,0,0,0,0,0,0,0,-4160140,0,1131131,0,3070101,0,0,0
16,351,525.419427431189,0,0,679365.441453784,679366.488550475,0,25,15,1,0,34,3,4131181,0,2050150,5251191,4131181,0,0,0,0,0,0,0,0,0,0,0,0,0,0,0,0,0,0,0,0,0,2050150,0,0,0,0,0,0,0,0,0,0,-3081130,2170061,0
16,352,733.842713641934,1,0,679368.10032124,679369.147392523,0,25,15,0,1,32,3,1100101,1041021,0,8301081,0,0,0,0,0,1100101,0,0,0,0,0,0,1041021,0,0,0,0,0,0,0,0,0,0,0,0,0,0,0,0,0,4190050,-4111031,0,0,0,0
16,353,655.424324097112,1,0,679370.935650476,679371.982739852,0,25,15,0,1,35,7,10573251,4101201,4090080,6331361,0,0,0,0,4121100,1191111,0,4190010,1071030,0,0,0,0,4101201,0,0,0,0,0,0,0,0,4090080,0,0,0,0,0,0,3141160,0,0,0,0,-3190201,0
16,354,452.613405417651,0,0,679373.806297705,679374.853355899,0,25,15,0,0,27,3,3121140,0,9122461,0,0,0,3121140,0,0,0,0,0,0,0,0,0,0,0,0,0,0,0,0,0,3020140,0,0,0,0,4071190,-2031131,0,0,0,0,0,0,0,0,0
16,355,672.612897236831,0,0,679376.359287016,679377.406355989,0,25,15,1,0,15,7,5272172,3130081,6160202,5221181,2051070,2150041,0,0,1071061,0,0,0,0,0,0,0,0,0,-3130081,0,0,0,0,0,0,2070021,0,4090181,0,0,0,0,2180040,3041141,0,0,0,0,0,0
16,356,480.385366012342,0,0,679379.100482155,679380.147558057,0,25,15,0,0,28,7,1161151,1021081,8262451,5282263,0,0,0,1161151,0,0,0,0,0,0,0,0,0,1021081,0,0,0,0,0,2200140,3031140,0,3031171,0,0,0,0,-2030101,0,0,2081151,0,0,1171011,0,0
16,357,524.553646915592,1,0,679381.665230913,679382.712302965,0,25,15,0,1,20,7,2061081,3071081,11493323,2080071,0,0,0,0,1051021,1010060,0,0,0,0,0,0,0,0,0,0,3071081,0,0,-2061071,0,3150060,0,2101111,0,4181081,0,0,0,0,0,0,2080071,0,0,0
16,358,771.753815002739,0,0,679384.312327757,679385.35939827,0,25,15,1,0,5,3,4100190,2131041,2130060,1040050,0,0,0,0,-4100190,0,0,0,0,0,0,0,0,0,0,0,0,2131041,2130060,0,0,0,0,0,0,0,0,0,0,0,0,0,0,0,1040050,0
16,359,554.330106824636,1,0,679387.253552076,679388.300618354,0,25,15,0,1,25,3,0,7182212,3200021,4030031,0,0,0,0,0,0,0,0,0,0,0,0,3061081,0,0,0,0,4121131,0,0,0,0,0,0,-3200021,0,0,0,0,0,0,0,0,0,0,4030031
16,360,695.829597185366,1,0,679389.935942662,679390.98300971,0,25,15,1,1,24,7,2170051,5371161,9413552,3040190,0,0,0,0,0,0,0,2170051,0,0,0,1181101,0,0,0,4190060,0,0,0,2061180,2051040,0,0,-3181151,0,0,2120181,0,0,0,0,0,3040190,0,0,0
16,361,660.74219532311,0,0,679401.983172934,679403.030253071,0,25,16,0,0,32,3,0,1180051,0,8322390,0,0,0,0,0,0,0,0,0,0,0,0,0,0,0,0,0,1180051,0,0,0,0,0,0,0,0,0,4131180,0,0,2081080,-2110130,0,0,0,0
16,362,507.933278335258,0,0,679404.900884902,679405.947979668,0,25,16,1,0,34,3,4131181,0,2050150,5251191,4131181,0,0,0,0,0,0,0,0,0,0,0,0,0,0,0,0,0,0,0,0,0,2050150,0,0,0,0,0,0,0,0,0,0,-3081130,2170061,0
16,363,387.522800709121,0,0,679407.536198431,679408.583270099,0,25,16,0,0,28,3,0,0,5332191,3241152,0,0,0,0,0,0,0,0,0,0,0,0,0,0,0,0,0,0,0,0,1151121,0,0,0,0,0,4181070,-2180061,0,0,1061091,0,0,0,0,0
16,364,425.932813319378,1,0,679410.100954119,679411.148020397,0,25,16,0,1,29,7,3330272,6430331,0,3102291,1170181,0,0,0,0,0,0,0,2160091,0,0,2150050,0,2100031,0,0,1060090,1120160,0,0,0,0,0,0,0,0,0,0,-1081191,0,0,0,0,2021100,0,0
16,365,563.056435552426,1,0,679412.759807716,679413.806878614,0,25,16,1,1,31,7,8432301,4050171,5040130,3231260,0,0,0,1191191,3041030,0,4200080,0,0,0,0,0,0,0,0,0,0,4050171,0,0,2020060,0,3020070,0,0,0,0,0,0,0,-2030060,0,0,0,1201200,0
16,366,375.217091059312,0,0,679415.371610433,679416.418676712,0,25,16,1,0,15,7,5272172,3130081,6160202,5221181,2051070,2150041,0,0,1071061,0,0,0,0,0,0,0,0,0,-3130081,0,0,0,0,0,0,2070021,0,4090181,0,0,0,0,2180040,3041141,0,0,0,0,0,0
16,367,546.806016005576,1,0,679417.901083158,679418.948134038,0,25,16,1,1,24,7,2170051,5371161,9413552,3040190,0,0,0,0,0,0,0,2170051,0,0,0,1181101,0,0,0,4190060,0,0,0,2061180,2051040,0,0,-3181151,0,0,2120181,0,0,0,0,0,3040190,0,0,0
16,368,521.340750390664,1,0,679420.595214329,679421.642291386,0,25,16,0,1,25,3,0,1180030,4131151,2081170,0,0,0,0,0,0,0,0,0,0,0,0,1180030,0,0,0,0,0,0,0,0,0,0,0,-2091041,2040110,0,0,0,0,0,2081170,0,0,0,0
16,369,471.075049252249,1,1,679423.371735546,679424.418819533,0,25,16,0,0,27,7,5102171,3311121,4162211,5170181,4051031,0,0,0,0,1051140,0,0,0,2110041,0,1201080,0,0,0,0,0,0,0,0,0,1061101,0,0,0,0,-3101110,0,4080120,0,0,1090061,0,0,0,0
16,370,478.550634928979,1,0,679425.960001275,679427.007079102,0,25,16,1,1,14,3,0,9071380,1010111,0,0,0,0,0,0,0,0,0,0,3011200,0,0,0,-2040170,4020010,0,0,0,1010111,0,0,0,0,0,0,0,0,0,0,0,0,0,0,0,0,0
16,371,559.795033768751,1,0,679428.524748878,679429.57183402,0,25,16,1,1,18,3,2131191,2251350,4061081,0,0,0,0,0,2131191,0,0,0,0,0,1171160,0,0,0,0,0,0,-1080190,0,0,0,0,4061081,0,0,0,0,0,0,0,0,0,0,0,0,0
16,372,476.678177597933,0,0,679431.218995537,679432.265974429,0,25,16,1,0,23,3,0,1080131,2070191,3211261,0,0,0,0,0,0,0,0,0,0,0,0,0,0,1080131,0,0,0,0,0,0,0,-2070191,0,0,0,0,0,0,0,0,2121130,0,1090131,0,0
16,373,949.013621546328,1,0,679433.936584395,679434.983662607,0,25,16,0,1,35,7,9412341,4130041,7150290,3200190,3161130,0,0,2170130,0,0,4081081,0,0,0,0,0,0,0,4130041,0,0,0,0,0,0,3060160,0,4090130,0,0,0,0,0,0,0,0,2050140,0,-1150050,0
16,374,791.738370317034,1,0,679437.018995999,679438.066053039,0,25,16,1,1,5,3,4100190,2131041,2130060,1040050,0,0,0,0,-4100190,0,0,0,0,0,0,0,0,0,0,0,0,2131041,2130060,0,0,0,0,0,0,0,0,0,0,0,0,0,0,0,1040050,0
16,375,386.824863613583,0,0,679439.877903799,679440.924921957,0,25,16,0,0,22,3,4040170,0,5201211,3150041,0,0,0,0,0,4040170,0,0,0,0,0,0,0,0,0,0,0,0,0,0,0,-3151191,0,0,2050020,0,0,0,0,0,3150041,0,0,0,0,0
16,376,515.594800934196,0,0,679442.466127952,679443.513199235,0,25,16,0,0,9,3,3150061,2050121,1170130,2080061,0,0,0,0,0,0,0,0,-3150061,2050121,0,0,0,0,0,0,0,0,0,0,1170130,0,0,0,0,0,0,0,0,0,0,0,0,0,2080061,0
16,377,401.764871203341,1,0,679445.042636543,679446.089737853,0,25,16,0,1,17,7,3221151,8411361,3131151,7361312,0,0,1200021,0,0,0,0,2021130,0,0,0,2200181,0,3111130,0,0,-3100050,0,3131151,0,0,0,0,0,0,0,0,0,4201121,0,0,0,0,0,3160191,0
16,378,456.092310952954,1,0,679447.548592682,679448.595625084,0,25,16,0,1,8,7,5350201,3331141,6260211,8190161,4200190,0,0,0,0,0,0,-1150011,0,0,2201100,0,1130041,0,0,0,0,0,0,0,0,3190130,3070081,0,0,0,0,0,0,0,4180021,0,0,0,4010140,0
16,379,547.314551309682,1,0,679450.113307563,679451.160371147,0,25,16,1,1,1,7,4100131,4081380,4221212,12421273,-4100131,0,0,0,0,0,0,0,0,0,0,2041200,0,0,0,0,0,2040180,3020121,0,0,0,0,1201091,0,0,0,4160101,0,0,0,0,0,0,4141071,4120101
16,380,369.386449921876,0,0,679452.8780497,679453.925119058,0,25,16,0,0,11,3,1151161,4070111,1090171,2040170,0,0,1151161,0,0,0,0,0,0,0,-4070111,0,0,0,0,0,0,0,0,1090171,0,0,0,0,0,0,0,0,0,0,0,0,0,2040170,0,0
16,381,489.592897705734,1,0,679455.383966573,679456.43103978,0,25,16,1,1,36,3,0,1091020,4201011,6120301,0,0,0,0,0,0,0,0,0,0,0,0,0,0,0,1091020,0,0,4201011,0,0,0,0,0,0,0,0,0,0,0,0,0,0,0,3010140,-3110161
16,382,426.567616406828,0,0,679458.031064957,679459.078128155,0,25,16,0,0,20,7,8283252,0,4372473,7180311,4031020,0,0,0,0,1161161,3091071,0,0,0,0,0,0,0,0,0,0,0,0,-1140161,0,1151171,2081141,0,0,0,0,0,0,3040180,0,4140131,0,0,0,0
16,383,521.719938376918,1,0,679460.548774384,679461.595819874,0,25,16,1,1,13,7,3071121,7221211,2211190,8142332,0,0,0,3071121,0,0,0,0,0,0,0,0,-4100111,3121100,0,0,0,0,0,0,0,0,0,1180040,0,1031150,0,0,3071080,0,0,0,2030191,0,0,3041061
16,384,606.626099906862,0,0,679463.289965674,679464.337033492,0,25,16,1,0,33,7,4180031,0,12542403,9322232,0,0,4180031,0,0,0,0,0,0,0,0,0,0,0,0,0,0,0,4171141,0,2010091,0,0,4181161,2180010,0,0,0,0,0,0,4160011,-2101191,0,0,3061030
16,385,451.02120062802,0,0,679492.855104014,679493.902175681,0,25,17,0,0,27,3,4140091,4061081,6170311,0,0,4140091,0,0,0,0,0,0,0,4061081,0,0,0,0,0,0,0,0,0,0,0,0,0,4090140,0,0,-2080171,0,0,0,0,0,0,0,0,0
16,386,494.797204853967,1,0,679495.49044218,679496.537522317,0,25,17,0,1,29,7,3200332,5211301,6311181,3292241,0,0,1060161,2140171,0,0,0,0,0,1050131,0,4161170,0,0,0,0,0,0,0,0,0,0,2181120,0,0,0,4130061,2161121,-1131120,0,0,0,0,0,0,0
16,387,418.879146454856,1,0,679498.102238353,679499.149303092,0,25,17,0,1,28,7,10081413,0,0,9202300,0,0,1030071,0,0,4031021,3010150,0,2010171,0,0,0,0,0,0,0,0,0,0,0,0,0,0,0,0,0,0,-3080010,1021110,0,0,0,0,3020160,0,2081020
16,388,380.491461488418,0,0,679500.725813222,679501.77288258,0,25,17,0,0,35,7,13331191,4080140,7171130,2021051,4070041,0,0,0,0,2070070,0,4090040,3101040,0,0,0,0,0,4080140,0,0,0,0,3140120,0,0,0,0,0,4031010,0,0,0,0,0,0,0,0,-2021051,0
16,389,579.155949875712,0,0,679503.219968338,679504.267044625,0,25,17,1,0,18,3,2131191,2251350,4061081,0,0,0,0,0,2131191,0,0,0,0,0,1171160,0,0,0,0,0,0,-1080190,0,0,0,0,4061081,0,0,0,0,0,0,0,0,0,0,0,0,0
16,390,374.3001105031,1,0,679505.925888983,679506.972966425,0,25,17,1,1,23,3,0,1080131,2070191,3211261,0,0,0,0,0,0,0,0,0,0,0,0,0,0,1080131,0,0,0,0,0,0,0,-2070191,0,0,0,0,0,0,0,0,2121130,0,1090131,0,0
16,391,434.225674252957,0,0,679508.478867129,679509.525936102,0,25,17,1,0,24,7,2170051,5371161,9413552,3040190,0,0,0,0,0,0,0,2170051,0,0,0,1181101,0,0,0,4190060,0,0,0,2061180,2051040,0,0,-3181151,0,0,2120181,0,0,0,0,0,3040190,0,0,0
16,392,575.291696935892,1,0,679511.125953965,679512.173056044,0,25,17,1,1,31,7,8432301,4050171,5040130,3231260,0,0,0,1191191,3041030,0,4200080,0,0,0,0,0,0,0,0,0,0,4050171,0,0,2020060,0,3020070,0,0,0,0,0,0,0,-2030060,0,0,0,1201200,0
16,393,473.007945693098,1,0,679513.926011401,679514.973079989,0,25,17,1,1,36,3,0,1091020,4201011,6120301,0,0,0,0,0,0,0,0,0,0,0,0,0,0,0,1091020,0,0,4201011,0,0,0,0,0,0,0,0,0,0,0,0,0,0,0,3010140,-3110161
16,394,419.119747937657,0,0,679516.631928967,679517.679005254,0,25,17,0,0,9,7,5252263,6121240,2031110,4150162,0,0,0,3070101,0,0,1011141,0,-1171021,0,0,0,0,3051100,0,0,0,3070140,0,0,0,0,2031110,0,0,0,0,0,0,0,0,2070141,0,0,2080021,0
16,395,715.858038165607,0,0,679519.114322709,679520.161393607,0,25,17,1,0,5,3,4100190,2131041,2130060,1040050,0,0,0,0,-4100190,0,0,0,0,0,0,0,0,0,0,0,0,2131041,2130060,0,0,0,0,0,0,0,0,0,0,0,0,0,0,0,1040050,0
16,396,409.863711101934,1,0,679521.914374756,679522.961433335,0,25,17,1,1,15,7,5272172,3130081,6160202,5221181,2051070,2150041,0,0,1071061,0,0,0,0,0,0,0,0,0,-3130081,0,0,0,0,0,0,2070021,0,4090181,0,0,0,0,2180040,3041141,0,0,0,0,0,0
16,397,383.286288939416,0,0,679524.490876803,679525.537933842,0,25,17,1,0,14,3,0,9071380,1010111,0,0,0,0,0,0,0,0,0,0,3011200,0,0,0,-2040170,4020010,0,0,0,1010111,0,0,0,0,0,0,0,0,0,0,0,0,0,0,0,0,0
16,398,444.667780539021,1,0,679526.961501089,679528.008565442,0,25,17,0,1,11,3,0,1151161,4200050,2372141,0,0,0,0,0,0,0,0,0,0,-1151161,0,0,0,0,0,0,0,0,0,0,0,0,0,0,4200050,0,0,0,0,1191011,1181130,0,0,0,0
16,399,661.189136793837,1,0,679529.502715938,679530.549786835,0,25,17,1,1,1,7,4100131,4081380,4221212,12421273,-4100131,0,0,0,0,0,0,0,0,0,0,2041200,0,0,0,0,0,2040180,3020121,0,0,0,0,1201091,0,0,0,4160101,0,0,0,0,0,0,4141071,4120101
16,400,488.352933549322,1,0,679532.349817709,679533.396885528,0,25,17,0,1,8,3,1061190,2100051,2070121,2081110,0,0,0,0,0,0,0,-1061190,0,0,0,0,0,0,0,2100051,0,0,0,0,0,0,0,0,0,0,2070121,0,0,0,0,0,0,0,0,2081110
16,401,523.485376033932,1,0,679534.914553379,679535.961625047,0,25,17,1,1,34,3,4131181,0,2050150,5251191,4131181,0,0,0,0,0,0,0,0,0,0,0,0,0,0,0,0,0,0,0,0,0,2050150,0,0,0,0,0,0,0,0,0,0,-3081130,2170061,0
16,402,453.881856636144,1,1,679537.632279283,679538.679321308,0,25,17,0,0,20,3,1190050,4131020,2141010,4030111,0,0,1190050,0,0,0,0,0,0,4131020,0,0,0,0,0,0,0,0,0,-2141010,0,0,0,0,0,0,0,0,0,0,0,0,4030111,0,0,0
16,403,526.148546254262,0,0,679540.208757076,679541.25582143,0,25,17,1,0,13,7,3071121,7221211,2211190,8142332,0,0,0,3071121,0,0,0,0,0,0,0,0,-4100111,3121100,0,0,0,0,0,0,0,0,0,1180040,0,1031150,0,0,3071080,0,0,0,2030191,0,0,3041061
16,404,597.215692978352,1,0,679542.96173861,679544.008802964,0,25,17,0,1,22,7,12352342,3121170,3150131,12311512,0,4161150,4121031,4070161,0,0,0,0,0,0,0,0,0,0,0,3121170,0,0,0,0,0,-3150131,0,0,0,0,0,4190170,0,4101201,0,0,4020141,0,0,0
16,405,701.373056392185,0,0,679545.773545871,679546.820613689,0,25,17,0,0,25,7,9290291,3111090,8162422,4160070,2170081,4010160,0,0,0,3110050,0,0,0,0,0,0,0,0,0,0,0,3111090,0,0,1061171,0,0,0,-4081091,0,3020160,0,4160070,0,0,0,0,0,0,0
16,406,465.951199177653,1,0,679548.550092881,679549.597129902,0,25,17,0,1,32,3,4121020,0,0,6492333,0,0,0,0,0,0,4121020,0,0,0,0,0,0,0,0,0,0,0,0,0,0,0,0,0,0,0,0,1131131,0,0,0,-3161061,0,2200141,0,0
16,407,646.776142879389,1,0,679551.091266539,679552.13835014,0,25,17,1,1,33,7,4180031,0,12542403,9322232,0,0,4180031,0,0,0,0,0,0,0,0,0,0,0,0,0,0,0,4171141,0,2010091,0,0,4181161,2180010,0,0,0,0,0,0,4160011,-2101191,0,0,3061030
16,408,516.408996423706,0,0,679553.879566067,679554.926612712,0,25,17,0,0,17,3,5243210,2201020,0,0,0,0,0,0,2081120,2021010,0,0,1141080,0,0,0,0,0,0,0,-2201020,0,0,0,0,0,0,0,0,0,0,0,0,0,0,0,0,0,0,0
16,409,923.497925861739,1,0,679578.856380164,679579.903454912,0,25,18,1,1,5,3,4100190,2131041,2130060,1040050,0,0,0,0,-4100190,0,0,0,0,0,0,0,0,0,0,0,0,2131041,2130060,0,0,0,0,0,0,0,0,0,0,0,0,0,0,0,1040050,0
16,410,496.616537333466,0,1,679582.021134466,679583.068211523,0,25,18,1,1,13,7,3071121,7221211,2211190,8142332,0,0,0,3071121,0,0,0,0,0,0,0,0,-4100111,3121100,0,0,0,0,0,0,0,0,0,1180040,0,1031150,0,0,3071080,0,0,0,2030191,0,0,3041061
16,411,413.259464665316,0,0,679584.762348083,679585.80942976,0,25,18,1,0,15,7,5272172,3130081,6160202,5221181,2051070,2150041,0,0,1071061,0,0,0,0,0,0,0,0,0,-3130081,0,0,0,0,0,0,2070021,0,4090181,0,0,0,0,2180040,3041141,0,0,0,0,0,0
16,412,439.624002552591,1,0,679587.338883236,679588.38599263,0,25,18,1,1,14,3,0,9071380,1010111,0,0,0,0,0,0,0,0,0,0,3011200,0,0,0,-2040170,4020010,0,0,0,1010111,0,0,0,0,0,0,0,0,0,0,0,0,0,0,0,0,0
16,413,787.706927279942,0,0,679590.021303079,679591.068109624,0,25,18,0,0,27,7,3160160,7152301,4340171,3131211,0,0,3160160,0,0,0,0,0,0,0,0,4041190,1091081,0,2020030,0,0,0,0,0,0,1150071,0,0,0,0,-3190100,2121031,0,0,0,1010180,0,0,0,0
16,414,716.289196163416,0,0,679593.021302309,679594.068370897,0,25,18,1,0,33,7,4180031,0,12542403,9322232,0,0,4180031,0,0,0,0,0,0,0,0,0,0,0,0,0,0,0,4171141,0,2010091,0,0,4181161,2180010,0,0,0,0,0,0,4160011,-2101191,0,0,3061030
16,415,571.625314536504,1,0,679595.891959933,679596.939005423,0,25,18,1,1,24,7,2170051,5371161,9413552,3040190,0,0,0,0,0,0,0,2170051,0,0,0,1181101,0,0,0,4190060,0,0,0,2061180,2051040,0,0,-3181151,0,0,2120181,0,0,0,0,0,3040190,0,0,0
16,416,537.904144497588,0,0,679598.55081661,679599.597865565,0,25,18,1,0,18,3,2131191,2251350,4061081,0,0,0,0,0,2131191,0,0,0,0,0,1171160,0,0,0,0,0,0,-1080190,0,0,0,0,4061081,0,0,0,0,0,0,0,0,0,0,0,0,0
16,417,412.643139949068,1,0,679601.150830238,679602.19790229,0,25,18,0,1,20,3,0,6121231,4312351,0,0,0,0,0,0,0,0,0,0,4101111,0,0,2020120,0,0,0,0,0,0,-3181180,0,1131171,0,0,0,0,0,0,0,0,0,0,0,0,0,0
16,418,603.79624099005,0,0,679603.797928237,679604.845002984,0,25,18,0,0,8,3,2191110,3070051,4190171,4050150,0,0,0,0,0,0,0,-2191110,0,0,0,0,3070051,0,0,0,0,0,0,0,0,0,0,0,0,0,4190171,0,0,4050150,0,0,0,0,0,0
16,419,519.236545660533,1,0,679606.574446375,679607.621511498,0,25,18,0,1,17,7,0,4390483,3321342,5192351,0,0,0,0,0,0,0,0,0,0,0,0,1200161,0,1050201,0,-2140121,0,1160091,0,0,0,1121141,0,0,0,1040110,0,0,2151150,0,3041201,0,0,0,0
16,420,618.937198887579,1,0,679609.221540139,679610.268602953,0,25,18,0,1,29,7,10372171,0,6131131,7472292,0,4140070,0,0,2171061,0,0,4061040,0,0,0,0,0,0,0,0,0,0,0,3010061,0,0,0,0,0,3121070,0,0,-1161090,3191041,0,0,3120161,0,0,0
16,421,567.308345693164,0,0,679612.092203537,679613.139257882,0,25,18,1,0,36,3,0,1091020,4201011,6120301,0,0,0,0,0,0,0,0,0,0,0,0,0,0,0,1091020,0,0,4201011,0,0,0,0,0,0,0,0,0,0,0,0,0,0,0,3010140,-3110161
16,422,688.665061141364,0,0,679614.76284507,679615.809872851,0,25,18,0,0,25,3,0,0,10432432,1041031,0,0,0,0,0,0,0,0,0,0,0,0,0,0,0,0,0,0,0,0,2171161,0,0,0,-4150071,0,4111200,1041031,0,0,0,0,0,0,0,0
16,423,596.462706453167,0,0,679617.645199392,679618.69226798,0,25,18,1,0,34,3,4131181,0,2050150,5251191,4131181,0,0,0,0,0,0,0,0,0,0,0,0,0,0,0,0,0,0,0,0,0,2050150,0,0,0,0,0,0,0,0,0,0,-3081130,2170061,0
16,424,419.90584123414,1,0,679620.433473898,679621.480539021,0,25,18,0,1,22,7,9261472,2151071,2191050,3300191,0,0,0,2071131,2010191,1070060,0,0,4110090,0,0,0,0,2151071,0,0,0,0,0,0,0,-2191050,0,0,0,0,0,0,1110060,2190131,0,0,0,0,0,0
16,425,431.485896580853,0,0,679622.904092794,679623.951168312,0,25,18,1,0,23,3,0,1080131,2070191,3211261,0,0,0,0,0,0,0,0,0,0,0,0,0,0,1080131,0,0,0,0,0,0,0,-2070191,0,0,0,0,0,0,0,0,2121130,0,1090131,0,0
16,426,710.019312915392,0,0,679625.58648646,679626.633558513,0,25,18,0,0,11,7,6231572,4082292,0,8312302,0,0,2041200,0,3120201,0,0,1070171,0,1061091,-3021201,0,0,0,0,0,0,0,0,0,0,0,0,0,0,0,0,0,3080061,0,0,3051051,0,0,2181190,0
16,427,821.759281563573,0,0,679628.48065297,679629.527760824,0,25,18,0,0,32,7,6251192,11422632,0,6162201,0,0,0,4201121,0,2050071,0,0,0,4050161,0,4161181,0,1030140,2181150,0,0,0,0,0,0,0,0,0,0,0,0,0,0,0,0,-2041061,4121140,0,0,0
16,428,554.768579197116,0,0,679631.539515268,679632.586618117,0,25,18,0,0,35,3,2071050,0,4021110,4222170,2071050,0,0,0,0,0,0,0,0,0,0,0,0,0,0,0,0,0,0,0,0,0,0,0,0,4021110,0,0,0,3131010,0,0,0,0,-1091160,0
16,429,971.560101956129,1,0,679634.316031096,679635.363097374,0,25,18,1,1,1,7,4100131,4081380,4221212,12421273,-4100131,0,0,0,0,0,0,0,0,0,0,2041200,0,0,0,0,0,2040180,3020121,0,0,0,0,1201091,0,0,0,4160101,0,0,0,0,0,0,4141071,4120101
16,430,568.168351775967,1,0,679637.363146649,679638.410198299,0,25,18,1,1,31,7,8432301,4050171,5040130,3231260,0,0,0,1191191,3041030,0,4200080,0,0,0,0,0,0,0,0,0,0,4050171,0,0,2020060,0,3020070,0,0,0,0,0,0,0,-2030060,0,0,0,1201200,0
16,431,399.512070929632,0,0,679640.033762004,679641.080834056,0,25,18,0,0,28,3,4140081,3020120,4110200,1080121,0,0,0,4140081,0,0,0,0,0,0,0,0,0,0,3020120,0,0,0,0,0,4110200,0,0,0,0,0,0,-1080121,0,0,0,0,0,0,0,0
16,432,513.509074342437,1,0,679642.680856923,679643.727924741,0,25,18,0,1,9,3,4212252,4071150,0,3180071,0,3171141,0,0,0,0,0,0,-1041111,4071150,0,0,0,0,0,0,0,0,0,0,0,0,0,0,0,0,0,0,3180071,0,0,0,0,0,0,0
16,433,542.251525330357,1,0,679656.739913242,679657.786961042,0,25,19,0,1,25,7,11570471,4050181,3331180,0,0,2180160,1050020,2090050,3050140,3200101,0,0,0,0,0,0,0,0,0,0,0,4050181,0,0,0,0,1181070,0,-2150110,0,0,0,0,0,0,0,0,0,0,0
16,434,378.53123282548,1,0,679659.445811559,679660.492883227,0,25,19,0,1,22,7,4101090,4342162,8241030,9361343,0,0,4101090,0,0,0,0,0,0,0,0,0,1161071,0,0,0,3181091,0,0,0,4200010,-4041020,0,0,0,0,0,0,0,2011121,0,0,4150141,0,0,3200081
16,435,691.640820819885,0,0,679661.963554478,679663.010572251,0,25,19,1,0,31,7,8432301,4050171,5040130,3231260,0,0,0,1191191,3041030,0,4200080,0,0,0,0,0,0,0,0,0,0,4050171,0,0,2020060,0,3020070,0,0,0,0,0,0,0,-2030060,0,0,0,1201200,0
16,436,559.555587009527,0,0,679664.763536462,679665.810597736,0,25,19,1,0,18,3,2131191,2251350,4061081,0,0,0,0,0,2131191,0,0,0,0,0,1171160,0,0,0,0,0,0,-1080190,0,0,0,0,4061081,0,0,0,0,0,0,0,0,0,0,0,0,0
16,437,537.265491788276,1,0,679667.445932053,679668.493001795,0,25,19,1,1,24,7,2170051,5371161,9413552,3040190,0,0,0,0,0,0,0,2170051,0,0,0,1181101,0,0,0,4190060,0,0,0,2061180,2051040,0,0,-3181151,0,0,2120181,0,0,0,0,0,3040190,0,0,0
16,438,441.327076521702,1,0,679670.093026972,679671.140101719,0,25,19,0,1,9,3,4120020,4130020,4061200,2131200,0,0,0,0,0,0,0,0,-4120020,0,0,0,0,0,4130020,0,0,0,0,0,0,0,4061200,0,0,0,0,0,0,0,0,0,0,2131200,0,0
16,439,599.643651163206,1,0,679672.775490701,679673.822492305,0,25,19,1,1,14,3,0,9071380,1010111,0,0,0,0,0,0,0,0,0,0,3011200,0,0,0,-2040170,4020010,0,0,0,1010111,0,0,0,0,0,0,0,0,0,0,0,0,0,0,0,0,0
16,440,359.507543849759,0,0,679675.622527029,679676.669591767,0,25,19,1,0,15,7,5272172,3130081,6160202,5221181,2051070,2150041,0,0,1071061,0,0,0,0,0,0,0,0,0,-3130081,0,0,0,0,0,0,2070021,0,4090181,0,0,0,0,2180040,3041141,0,0,0,0,0,0
16,441,573.39960639365,0,0,679678.069621255,679679.116689458,0,25,19,1,0,13,7,3071121,7221211,2211190,8142332,0,0,0,3071121,0,0,0,0,0,0,0,0,-4100111,3121100,0,0,0,0,0,0,0,0,0,1180040,0,1031150,0,0,3071080,0,0,0,2030191,0,0,3041061
16,442,617.285709944554,1,0,679680.704954802,679681.752024545,0,25,19,1,1,34,3,4131181,0,2050150,5251191,4131181,0,0,0,0,0,0,0,0,0,0,0,0,0,0,0,0,0,0,0,0,0,2050150,0,0,0,0,0,0,0,0,0,0,-3081130,2170061,0
16,443,582.705688546412,1,0,679683.52852151,679684.575598182,0,25,19,0,1,32,3,0,0,3181031,3351352,0,0,0,0,0,0,0,0,0,0,0,0,0,0,0,0,0,0,0,0,3181031,0,0,0,0,0,0,0,0,1070200,0,-1150051,0,1131101,0,0
16,444,563.474504742771,0,0,679686.328565473,679687.375638295,0,25,19,0,0,11,7,3120091,4070151,13502703,4130050,0,0,0,0,0,0,0,0,3120091,0,-4070151,0,0,0,0,0,0,0,1150120,0,4091141,0,0,2090140,0,2160191,4011111,4130050,0,0,0,0,0,0,0,0
16,445,1046.90302652307,1,0,679689.093314154,679690.140368498,0,25,19,1,1,33,7,4180031,0,12542403,9322232,0,0,4180031,0,0,0,0,0,0,0,0,0,0,0,0,0,0,0,4171141,0,2010091,0,0,4181161,2180010,0,0,0,0,0,0,4160011,-2101191,0,0,3061030
16,446,514.378319610842,1,0,679692.222766245,679693.269839452,0,25,19,0,1,27,7,5220281,3021030,7322351,6291330,0,0,4070121,0,0,0,1150160,0,0,0,3021030,0,0,0,0,0,0,0,3140041,0,0,0,0,0,0,2051160,-2131150,0,0,0,0,4121180,0,2170150,0,0
16,447,531.917208456434,1,0,679694.905222659,679695.952238122,0,25,19,0,1,20,3,0,4100111,6351231,2020031,0,0,0,0,0,0,0,0,0,0,0,0,0,0,0,0,0,4100111,0,-4150071,0,0,2201160,0,0,0,0,0,0,0,0,0,2020031,0,0,0
16,448,980.412313365377,1,0,679697.528760572,679698.575828005,0,25,19,1,1,1,7,4100131,4081380,4221212,12421273,-4100131,0,0,0,0,0,0,0,0,0,0,2041200,0,0,0,0,0,2040180,3020121,0,0,0,0,1201091,0,0,0,4160101,0,0,0,0,0,0,4141071,4120101
16,449,429.987237788737,1,0,679700.669955172,679701.717021835,0,25,19,0,1,29,3,2150150,4392082,0,1160121,0,0,2150150,0,0,0,0,0,0,0,0,0,0,1201061,0,0,3191021,0,0,0,0,0,0,0,0,0,0,0,-1160121,0,0,0,0,0,0,0
16,450,514.693218865432,0,0,679703.258228985,679704.305305657,0,25,19,1,0,23,3,0,1080131,2070191,3211261,0,0,0,0,0,0,0,0,0,0,0,0,0,0,1080131,0,0,0,0,0,0,0,-2070191,0,0,0,0,0,0,0,0,2121130,0,1090131,0,0
16,451,549.238978535868,1,0,679705.881798464,679706.928868977,0,25,19,1,1,5,3,4100190,2131041,2130060,1040050,0,0,0,0,-4100190,0,0,0,0,0,0,0,0,0,0,0,0,2131041,2130060,0,0,0,0,0,0,0,0,0,0,0,0,0,0,0,1040050,0
16,452,533.597569563426,0,0,679708.505360245,679709.552440382,0,25,19,0,0,35,3,6232131,2050031,0,1071141,0,0,0,0,0,4181070,0,0,2051061,0,0,0,0,0,0,0,0,2050031,0,0,0,0,0,0,0,0,0,0,0,0,0,0,0,0,-1071141,0
16,453,1173.59416640829,0,0,679711.164215767,679712.211300138,0,25,19,0,0,8,7,4111171,8314521,4361341,2061011,0,0,0,0,0,0,0,-4111171,0,0,0,0,0,1041081,2131180,0,2111130,3031130,0,3190161,0,0,0,0,0,1171180,0,0,0,0,0,0,2061011,0,0,0
16,454,395.061520161107,0,0,679714.52898077,679715.576107873,0,25,19,0,0,17,3,0,6151161,0,4231131,0,0,0,0,0,0,0,0,0,0,0,2051120,0,0,0,0,-4100041,0,0,0,0,0,0,0,0,0,0,0,0,0,0,3191091,0,1040040,0,0
16,455,537.168096168898,0,0,679716.999608906,679718.046683653,0,25,19,0,0,28,7,1091041,8402451,0,7452322,0,0,0,0,0,1091041,0,0,0,0,2061161,2190090,0,4151200,0,0,0,0,0,0,0,0,0,0,0,0,0,-1010060,0,2141141,2201050,0,0,2100071,0,0
16,456,677.636657143012,0,0,679719.764352582,679720.81142964,0,25,19,1,0,36,3,0,1091020,4201011,6120301,0,0,0,0,0,0,0,0,0,0,0,0,0,0,0,1091020,0,0,4201011,0,0,0,0,0,0,0,0,0,0,0,0,0,0,0,3010140,-3110161
16,457,638.584142085165,0,0,679731.588059032,679732.635424041,0,25,20,1,0,31,7,8432301,4050171,5040130,3231260,0,0,0,1191191,3041030,0,4200080,0,0,0,0,0,0,0,0,0,0,4050171,0,0,2020060,0,3020070,0,0,0,0,0,0,0,-2030060,0,0,0,1201200,0
16,458,455.071390606463,1,0,679734.458687013,679735.505758681,0,25,20,1,1,15,7,5272172,3130081,6160202,5221181,2051070,2150041,0,0,1071061,0,0,0,0,0,0,0,0,0,-3130081,0,0,0,0,0,0,2070021,0,4090181,0,0,0,0,2180040,3041141,0,0,0,0,0,0
16,459,501.029746839777,1,0,679737.011653996,679738.058732978,0,25,20,1,1,13,7,3071121,7221211,2211190,8142332,0,0,0,3071121,0,0,0,0,0,0,0,0,-4100111,3121100,0,0,0,0,0,0,0,0,0,1180040,0,1031150,0,0,3071080,0,0,0,2030191,0,0,3041061
16,460,621.579581056722,1,0,679739.635233484,679740.682302842,0,25,20,1,1,5,3,4100190,2131041,2130060,1040050,0,0,0,0,-4100190,0,0,0,0,0,0,0,0,0,0,0,0,2131041,2130060,0,0,0,0,0,0,0,0,0,0,0,0,0,0,0,1040050,0
16,461,424.198557506315,0,0,679742.364688039,679743.411757782,0,25,20,0,0,27,3,2150160,0,3140051,5221221,0,2150160,0,0,0,0,0,0,0,0,0,0,0,0,0,0,0,0,0,0,0,0,0,0,0,0,-3140051,0,4031080,1190141,0,0,0,0,0,0
16,462,605.111657641828,1,0,679745.011786423,679746.058858475,0,25,20,0,1,35,3,0,4190131,4180150,5161071,0,0,0,0,0,0,0,0,0,0,0,0,0,0,4190131,0,0,0,0,0,0,0,0,0,0,0,4180150,0,0,0,0,0,0,0,-2050060,3111011
16,463,482.207393157296,0,0,679747.682415636,679748.729483454,0,25,20,1,0,33,7,4180031,0,12542403,9322232,0,0,4180031,0,0,0,0,0,0,0,0,0,0,0,0,0,0,0,4171141,0,2010091,0,0,4181161,2180010,0,0,0,0,0,0,4160011,-2101191,0,0,3061030
