sub_id,Trial,RT,Resp,Error,Fix_onset,Disp_onset,q1,q2,block,repeat,tid,tloc,d_setsize,quad1,quad2,quad3,quad4,loc1,loc2,loc3,loc4,loc5,loc6,loc7,loc8,loc9,loc10,loc11,loc12,loc13,loc14,loc15,loc16,loc17,loc18,loc19,loc20,loc21,loc22,loc23,loc24,loc25,loc26,loc27,loc28,loc29,loc30,loc31,loc32,loc33,loc34,loc35,loc36
13,1,660.552754270611,1,0,37335.528686355,37336.5757389784,0,0,1,1,1,24,3,0,2110111,3221301,3021071,0,0,0,0,0,0,0,0,0,0,0,0,0,0,0,2110111,0,0,0,2141171,0,0,0,-1080130,0,0,0,0,0,0,3021071,0,0,0,0,0
13,2,670.008165390755,0,0,37338.3992559355,37339.4462954703,0,0,1,0,0,6,7,4251092,4031060,4260262,5241532,0,0,0,2120071,0,-2131021,0,0,0,0,0,0,0,0,0,0,4031060,0,0,2140141,0,0,0,0,0,0,2120121,0,0,0,2010201,0,0,0,1191151,2040180
13,3,2015.90213328745,0,0,37341.2933847419,37342.3403857806,0,0,1,0,0,1,7,7401191,5111352,2211191,3041171,-3191120,2010021,0,0,0,2200050,0,0,0,0,0,0,0,0,4010161,1101191,0,0,0,0,0,0,1100130,1111061,0,0,0,0,0,0,0,3041171,0,0,0,0
13,4,934.163757381612,0,0,37345.4580044428,37346.5050443625,0,0,1,0,0,13,3,0,3120120,4071170,5061231,0,0,0,0,0,0,0,0,0,0,0,0,-3120120,0,0,0,0,0,0,0,0,0,0,0,0,4071170,0,3030081,0,0,0,0,2031150,0,0,0
13,5,581.528353141039,1,0,37348.5285608577,37349.5756038571,0,0,1,0,1,29,7,2110130,0,12383171,13331590,2110130,0,0,0,0,0,0,0,0,0,0,0,0,0,0,0,0,0,4131031,0,0,4151020,0,0,0,0,4101120,0,-4160200,0,3060130,4100070,0,2011190,0,0
13,6,1528.44108171121,1,0,37351.2226497052,37352.2696927045,0,0,1,1,1,33,7,5172240,8361171,5241291,7181281,1011150,0,0,0,0,0,0,0,4161090,0,0,0,0,0,4160080,0,0,4201091,0,0,4070180,0,1171111,0,0,0,0,0,0,0,0,4041101,-3140180,0,0,0
13,7,791.100330439804,0,0,37354.9520186849,37355.9990620692,0,0,1,1,0,7,3,2171190,4361381,4090111,0,0,0,0,0,0,0,-2171190,0,0,1170181,0,0,3191200,0,0,0,0,0,0,0,4090111,0,0,0,0,0,0,0,0,0,0,0,0,0,0,0
13,8,489.72748266533,0,0,37357.9284633086,37358.9755028433,0,0,1,0,0,17,3,1151081,5551453,0,0,1151081,0,0,0,0,0,0,0,0,2170131,0,0,0,1201191,0,0,-2180131,0,0,0,0,0,0,0,0,0,0,0,0,0,0,0,0,0,0,0
13,9,696.403783622372,0,0,37360.5166744181,37361.5637139528,0,0,1,1,0,12,7,7220140,6191242,3111201,8191250,0,0,0,0,0,4200030,0,0,3020110,0,0,-2110081,2041141,0,0,0,2040020,0,0,0,0,0,0,0,0,0,3111201,0,0,0,4071050,0,4120200,0,0,0
13,10,1148.92346860142,0,0,37363.4460521749,37364.4930863202,0,0,1,1,0,31,7,4010120,2190171,5251231,7311392,0,4010120,0,0,0,0,0,0,0,0,1120130,0,0,0,1070041,0,0,0,4061051,0,1190180,0,0,0,0,0,0,4130090,0,0,-1080181,2101121,0,0,0,0
13,11,1197.39120847953,1,0,37366.8107168393,37367.8577633033,0,0,1,0,1,25,7,6162311,2191011,12663541,0,0,0,0,0,2010110,0,0,2051020,2101181,0,0,0,0,0,0,2191011,0,0,0,0,1190160,0,0,3191150,-4171030,4111201,0,0,0,0,0,0,0,0,0,0
13,12,513.611230613606,1,0,37370.0812781817,37371.1283492832,0,0,1,1,1,11,3,0,4111101,1061050,7290372,0,0,0,0,0,0,0,0,0,0,-4111101,0,0,0,0,0,0,0,0,0,0,0,0,0,0,1061050,0,0,0,0,4200171,3090201,0,0,0,0
13,13,597.500383410079,1,0,37372.77535779,37373.8224030992,0,0,1,0,1,21,3,5240180,0,7141391,0,1100120,0,0,0,0,0,0,4140060,0,0,0,0,0,0,0,0,0,0,0,0,-3041191,4100200,0,0,0,0,0,0,0,0,0,0,0,0,0,0
13,14,1433.35110478802,0,0,37375.5635607384,37376.6106091272,0,0,1,1,0,5,7,1010020,8332351,6061062,6211342,0,0,0,0,-1010020,0,0,0,0,4150160,0,0,0,0,0,2101051,2081140,0,4050031,0,0,0,0,0,0,0,2011031,0,0,0,0,4070141,0,2141201,0,0
13,15,1101.35923208145,1,0,37379.1164740074,37380.1635127722,0,0,1,1,1,19,3,0,3211191,5230221,0,0,0,0,0,0,0,0,0,0,0,1060160,0,2151031,0,0,0,0,0,-3080030,0,0,2150191,0,0,0,0,0,0,0,0,0,0,0,0,0,0
13,16,931.911350795417,0,0,37382.4458462208,37383.4928884503,0,0,1,0,0,9,7,9371392,5051061,11282290,0,0,0,0,0,0,4141080,1190151,0,-4040161,3030051,0,0,0,0,0,0,2021010,0,0,0,0,0,4160080,0,0,3011160,4111050,0,0,0,0,0,0,0,0,0
13,17,907.743116695201,1,0,37385.6340578693,37386.6810981739,0,0,1,1,1,10,7,7231353,6291140,3040141,1081181,2090050,0,0,1070151,0,1050071,3021081,0,0,-3131010,0,0,0,0,0,0,3160130,0,0,3040141,0,0,0,0,0,0,0,0,0,0,1081181,0,0,0,0,0
13,18,633.160472119926,1,0,37388.6575451074,37389.704586567,0,0,1,1,1,35,3,0,2131090,1091061,5100101,0,0,0,0,0,0,0,0,0,2131090,0,0,0,0,0,0,0,0,0,0,0,0,0,0,0,1091061,0,1050011,0,0,0,0,0,0,-4050090,0
13,19,1159.34243700758,0,0,37391.4575166973,37392.5045620064,0,0,1,0,0,32,3,0,3121020,1140181,5361241,0,0,0,0,0,0,0,0,0,0,0,0,3121020,0,0,0,0,0,0,0,0,0,0,1140181,0,0,0,0,0,0,1160131,-4201110,0,0,0,0
13,20,594.312906658161,0,0,37394.7633620215,37395.810403866,0,0,1,1,0,27,3,0,4120010,3030031,7170131,0,0,0,0,0,0,0,0,0,0,0,0,0,0,4120010,0,0,0,0,0,0,0,0,0,0,0,-3030031,3060121,0,0,0,0,4110010,0,0,0
13,21,634.248371796275,1,0,37397.6103947039,37398.6574396281,0,0,1,0,1,30,3,4041090,0,0,3442323,4041090,0,0,0,0,0,0,0,0,0,0,0,0,0,0,0,0,0,0,0,0,0,0,0,0,0,0,0,0,-1170151,0,0,1141101,0,1131071,0
13,22,1136.08617542923,1,0,37400.4927159877,37401.5397524428,0,0,1,0,1,15,3,3181160,2091140,5300231,0,0,3181160,0,0,0,0,0,0,0,0,0,0,0,0,-2091140,0,0,0,1170061,0,0,0,0,0,0,4130170,0,0,0,0,0,0,0,0,0,0
13,23,825.510450915317,1,0,37403.8691477538,37404.9161907532,0,0,1,1,1,26,7,7231200,10471323,4040101,3030060,0,0,0,4100050,0,3131150,0,0,0,0,0,0,1150041,0,3180160,4101081,2040041,0,0,0,0,0,0,0,0,-4040101,0,0,0,0,0,0,0,3030060,0,0
13,24,777.652104225126,0,0,37406.8808817489,37407.927927058,0,0,1,0,0,16,7,3331151,9531431,2160190,4340021,0,0,1151050,0,0,0,2180101,0,0,4151150,0,0,0,3200101,0,-2180180,0,0,0,0,0,0,2160190,0,0,0,0,0,0,0,2170011,2170010,0,0,0,0
13,25,668.925655169005,1,0,37442.8334915147,37443.8804917834,0,0,2,1,1,24,3,0,2110111,3221301,3021071,0,0,0,0,0,0,0,0,0,0,0,0,0,0,0,2110111,0,0,0,2141171,0,0,0,-1080130,0,0,0,0,0,0,3021071,0,0,0,0,0
13,26,925.179538462544,0,0,37445.6569426435,37446.7039883376,0,0,2,1,0,5,7,1010020,8332351,6061062,6211342,0,0,0,0,-1010020,0,0,0,0,4150160,0,0,0,0,0,2101051,2081140,0,4050031,0,0,0,0,0,0,0,2011031,0,0,0,0,4070141,0,2141201,0,0
13,27,835.592193521734,0,0,37448.7275610371,37449.7745382082,0,0,2,1,0,12,7,7220140,6191242,3111201,8191250,0,0,0,0,0,4200030,0,0,3020110,0,0,-2110081,2041141,0,0,0,2040020,0,0,0,0,0,0,0,0,0,3111201,0,0,0,4071050,0,4120200,0,0,0
13,28,877.175291578169,0,1,37451.703935598,37452.7509778274,0,0,2,1,1,19,3,0,3211191,5230221,0,0,0,0,0,0,0,0,0,0,0,1060160,0,2151031,0,0,0,0,0,-3080030,0,0,2150191,0,0,0,0,0,0,0,0,0,0,0,0,0,0
13,29,595.083213534963,1,0,37454.6921373144,37455.739178774,0,0,2,1,1,11,3,0,4111101,1061050,7290372,0,0,0,0,0,0,0,0,0,0,-4111101,0,0,0,0,0,0,0,0,0,0,0,0,0,0,1061050,0,0,0,0,4200171,3090201,0,0,0,0
13,30,1360.88297378592,1,0,37457.5391723066,37458.5862068368,0,0,2,1,1,33,7,5172240,8361171,5241291,7181281,1011150,0,0,0,0,0,0,0,4161090,0,0,0,0,0,4160080,0,0,4201091,0,0,4070180,0,1171111,0,0,0,0,0,0,0,0,4041101,-3140180,0,0,0
13,31,1021.18379767489,1,0,37461.1038372789,37462.1508810482,0,0,2,0,1,9,7,6172371,10102180,3170201,2180031,0,3050150,0,0,0,0,1021021,0,-2101200,0,0,0,0,0,3041040,0,4021040,3040100,0,3170201,0,0,0,0,0,0,0,0,0,2180031,0,0,0,0,0,0
13,32,1978.62982807419,0,0,37464.3273459979,37465.374401316,0,0,2,0,0,1,7,2212202,3161190,11563651,4041011,-1111041,1101161,0,0,0,0,0,0,0,0,3161190,0,0,0,0,0,0,0,0,2121181,0,4181100,0,1130180,0,0,4131190,0,0,0,0,0,0,4041011,0,0
13,33,1081.08372322022,1,0,37468.5508204554,37469.5978553706,0,0,2,1,1,35,3,0,2131090,1091061,5100101,0,0,0,0,0,0,0,0,0,2131090,0,0,0,0,0,0,0,0,0,0,0,0,0,0,0,1091061,0,1050011,0,0,0,0,0,0,-4050090,0
13,34,509.134134634223,1,0,37471.7978387402,37472.8448798148,0,0,2,0,1,16,3,0,5210361,2071141,4171030,0,0,0,0,0,0,0,0,0,0,0,0,0,1140181,0,-4070180,0,0,0,0,2071141,0,0,0,0,0,0,0,0,0,4171030,0,0,0,0,0
13,35,933.990909907152,1,0,37474.4448718846,37475.4919118043,0,0,2,1,1,27,3,0,4120010,3030031,7170131,0,0,0,0,0,0,0,0,0,0,0,0,0,0,4120010,0,0,0,0,0,0,0,0,0,0,0,-3030031,3060121,0,0,0,0,4110010,0,0,0
13,36,1066.59725730424,0,0,37477.5272004057,37478.5742349359,0,0,2,0,0,21,7,10442240,3171071,4021091,7182422,4201130,0,0,0,0,4050030,0,0,2191080,0,0,0,0,0,0,3171071,0,0,0,0,-4021091,0,0,0,0,0,0,0,3041161,0,0,0,1021131,0,0,3120130
13,37,750.117386516649,0,0,37480.703629554,37481.7506733233,0,0,2,0,0,6,3,7361092,4160111,0,4040081,0,0,0,3201031,0,-4160061,0,0,0,0,0,4160111,0,0,0,0,0,0,0,0,0,0,0,0,0,0,0,4040081,0,0,0,0,0,0,0,0
13,38,890.608889276336,0,0,37483.5271368871,37484.5742133781,0,0,2,1,0,10,7,7231353,6291140,3040141,1081181,2090050,0,0,1070151,0,1050071,3021081,0,0,-3131010,0,0,0,0,0,0,3160130,0,0,3040141,0,0,0,0,0,0,0,0,0,0,1081181,0,0,0,0,0
13,39,1254.94171729224,0,0,37486.5388639529,37487.5858973282,0,0,2,1,0,26,7,7231200,10471323,4040101,3030060,0,0,0,4100050,0,3131150,0,0,0,0,0,0,1150041,0,3180160,4101081,2040041,0,0,0,0,0,0,0,0,-4040101,0,0,0,0,0,0,0,3030060,0,0
13,40,934.29618395021,0,0,37489.9623525769,37491.0093959612,0,0,2,0,0,25,3,0,2201081,4151060,3071242,0,0,0,0,0,0,0,0,0,0,0,0,0,2201081,0,0,0,0,0,0,0,0,0,0,-4151060,0,0,0,1020201,0,2051041,0,0,0,0,0
13,41,1140.87893938995,1,0,37493.0800093503,37494.1270130837,0,0,2,0,1,13,7,5070211,1100191,8311240,3291101,0,0,3030111,0,0,0,0,2040100,0,0,0,0,-1100191,0,0,0,0,0,0,0,0,0,3130080,3051020,0,2130140,0,0,0,0,0,1150010,0,0,2141091,0
13,42,834.540095216653,1,0,37496.3741237592,37497.4210986205,0,0,2,1,1,7,3,2171190,4361381,4090111,0,0,0,0,0,0,0,-2171190,0,0,1170181,0,0,3191200,0,0,0,0,0,0,0,4090111,0,0,0,0,0,0,0,0,0,0,0,0,0,0,0
13,43,548.910995865299,0,0,37499.2916701258,37500.3387142801,0,0,2,0,0,15,3,6281330,1081051,0,1090141,4091180,0,0,0,0,0,2190150,0,0,0,0,0,0,0,-1081051,0,0,0,0,0,0,0,0,0,0,0,0,0,0,0,0,0,1090141,0,0,0
13,44,1438.33634923794,1,0,37502.0563488797,37503.1033868746,0,0,2,0,1,29,7,2020081,4110151,6402262,8362421,0,0,0,0,0,0,0,2020081,0,0,0,0,0,0,0,0,0,4110151,3071061,0,0,0,1130091,2201110,0,0,0,0,-1060170,3131111,0,4171140,0,0,0,0
13,45,829.664179684187,0,0,37505.6798797725,37506.7268858156,0,0,2,0,0,17,7,0,3332272,5183191,4453392,0,0,0,0,0,0,0,0,0,0,0,2171111,0,0,0,0,-1161161,0,0,0,0,2021121,2021040,0,0,0,1141030,0,0,0,0,0,1121111,0,1171140,2161141
13,46,753.977005122579,0,0,37508.6445164887,37509.6915506339,0,0,2,0,0,30,3,3011170,0,5111201,3161160,0,3011170,0,0,0,0,0,0,0,0,0,0,0,0,0,0,0,0,0,0,0,2100120,0,0,3011081,0,0,0,0,-3161160,0,0,0,0,0,0
13,47,1003.20535087667,0,0,37511.6444845369,37512.6915194521,0,0,2,0,0,32,3,0,4170150,4170161,6312122,0,0,0,0,0,0,0,0,0,0,4170150,0,0,0,0,0,0,0,0,4170161,0,0,0,0,0,0,0,0,0,0,0,-3111021,0,3201101,0,0
13,48,1190.06078186067,0,0,37514.7973891058,37515.8444313353,0,0,2,1,0,31,7,4010120,2190171,5251231,7311392,0,4010120,0,0,0,0,0,0,0,0,1120130,0,0,0,1070041,0,0,0,4061051,0,1190180,0,0,0,0,0,0,4130090,0,0,-1080181,2101121,0,0,0,0
13,49,1527.12066561799,1,0,37530.3501610942,37531.3972037087,0,0,3,1,1,33,7,5172240,8361171,5241291,7181281,1011150,0,0,0,0,0,0,0,4161090,0,0,0,0,0,4160080,0,0,4201091,0,0,4070180,0,1171111,0,0,0,0,0,0,0,0,4041101,-3140180,0,0,0
13,50,858.061209939478,0,0,37533.9971861544,37535.0442322335,0,0,3,1,0,35,3,0,2131090,1091061,5100101,0,0,0,0,0,0,0,0,0,2131090,0,0,0,0,0,0,0,0,0,0,0,0,0,0,0,1091061,0,1050011,0,0,0,0,0,0,-4050090,0
13,51,556.701835797867,0,0,37536.9265735353,37537.9736677344,0,0,3,1,0,10,7,7231353,6291140,3040141,1081181,2090050,0,0,1070151,0,1050071,3021081,0,0,-3131010,0,0,0,0,0,0,3160130,0,0,3040141,0,0,0,0,0,0,0,0,0,0,1081181,0,0,0,0,0
13,52,563.27581412188,0,0,37539.6559502142,37540.7029924436,0,0,3,1,0,11,3,0,4111101,1061050,7290372,0,0,0,0,0,0,0,0,0,0,-4111101,0,0,0,0,0,0,0,0,0,0,0,0,0,0,1061050,0,0,0,0,4200171,3090201,0,0,0,0
13,53,956.432594102807,1,0,37542.3617919198,37543.4088410785,0,0,3,1,1,7,3,2171190,4361381,4090111,0,0,0,0,0,0,0,-2171190,0,0,1170181,0,0,3191200,0,0,0,0,0,0,0,4090111,0,0,0,0,0,0,0,0,0,0,0,0,0,0,0
13,54,639.510788132611,1,0,37545.467656569,37546.5146980286,0,0,3,0,1,9,7,13663850,0,8072060,2020121,3160130,2140200,2131130,0,0,4171190,0,0,-2061200,0,0,0,0,0,0,0,0,0,4041050,0,0,4031010,0,0,0,0,0,0,0,0,0,0,0,2020121,0,0
13,55,800.169240763353,1,0,37548.3499932513,37549.3970185424,0,0,3,1,1,12,7,7220140,6191242,3111201,8191250,0,0,0,0,0,4200030,0,0,3020110,0,0,-2110081,2041141,0,0,0,2040020,0,0,0,0,0,0,0,0,0,3111201,0,0,0,4071050,0,4120200,0,0,0
13,56,1286.63747802057,1,0,37551.2205582123,37552.2675758042,0,0,3,0,1,13,7,9373432,4141170,2180030,1031040,3201060,0,2031171,3131111,0,0,1010090,0,0,0,0,0,-2051110,0,0,0,0,2090060,2180030,0,0,0,0,0,0,0,0,0,0,0,0,0,0,1031040,0,0
13,57,736.169865936972,1,0,37554.596963801,37555.6440114199,0,0,3,0,1,15,3,3252311,8192261,0,0,0,0,0,0,0,1071130,2181181,0,0,0,0,0,0,4011200,-4181061,0,0,0,0,0,0,0,0,0,0,0,0,0,0,0,0,0,0,0,0,0
13,58,1872.84948526212,0,0,37557.585169752,37558.6322096717,0,0,3,0,0,32,7,10202141,2061161,6111151,6262101,4031020,0,2161100,4010021,0,0,0,0,0,0,0,0,0,0,0,2061161,0,0,0,2101100,0,0,4010051,0,0,0,0,0,0,0,0,-3181011,3081090,0,0,0
13,59,951.570537159569,0,0,37561.6204502692,37562.6674678612,0,0,3,0,0,21,3,3101041,0,8142090,2050051,3101041,0,0,0,0,0,0,0,0,0,0,0,0,0,0,0,0,0,0,4081050,-4061040,0,0,0,0,0,0,0,0,0,0,0,0,0,0,2050051
13,60,1216.24967604293,0,0,37564.6556826663,37565.7027329799,0,0,3,0,0,6,3,3170091,0,2140051,3111381,0,0,0,0,0,-3170091,0,0,0,0,0,0,0,0,0,0,0,0,2140051,0,0,0,0,0,0,0,0,0,2091190,0,0,0,0,1020191,0,0
13,61,1463.69988712104,1,0,37568.0674130427,37569.1144556571,0,0,3,1,1,31,7,4010120,2190171,5251231,7311392,0,4010120,0,0,0,0,0,0,0,0,1120130,0,0,0,1070041,0,0,0,4061051,0,1190180,0,0,0,0,0,0,4130090,0,0,-1080181,2101121,0,0,0,0
13,62,749.518387267017,0,0,37571.7144381029,37572.7614803324,0,0,3,0,0,16,3,1070010,8432322,0,0,0,0,0,0,0,0,0,1070010,0,0,0,0,0,0,0,-1071081,4190121,3171120,0,0,0,0,0,0,0,0,0,0,0,0,0,0,0,0,0,0
13,63,965.409498749068,1,0,37574.5614688605,37575.6085068554,0,0,3,1,1,24,3,0,2110111,3221301,3021071,0,0,0,0,0,0,0,0,0,0,0,0,0,0,0,2110111,0,0,0,2141171,0,0,0,-1080130,0,0,0,0,0,0,3021071,0,0,0,0,0
13,64,920.864896012063,1,0,37577.6790802086,37578.7261601642,0,0,3,1,1,27,3,0,4120010,3030031,7170131,0,0,0,0,0,0,0,0,0,0,0,0,0,0,4120010,0,0,0,0,0,0,0,0,0,0,0,-3030031,3060121,0,0,0,0,4110010,0,0,0
13,65,1903.26294102852,1,0,37580.6555163632,37581.7025597475,0,0,3,0,1,1,7,7162351,7461152,4141010,6291291,-4151161,0,0,3011190,0,0,0,0,0,0,2190040,0,2100011,0,0,3171101,0,0,0,0,0,0,0,0,0,0,4141010,0,0,0,0,0,3190180,0,0,3101111
13,66,1762.98162696185,0,0,37584.6907664684,37585.7378129325,0,0,3,1,0,26,7,7231200,10471323,4040101,3030060,0,0,0,4100050,0,3131150,0,0,0,0,0,0,1150041,0,3180160,4101081,2040041,0,0,0,0,0,0,0,0,-4040101,0,0,0,0,0,0,0,3030060,0,0
13,67,651.964660188241,0,0,37588.5377910667,37589.5848298315,0,0,3,0,0,29,3,0,4351401,2190091,2160150,0,0,0,0,0,0,0,0,0,0,0,0,0,3170201,0,1181200,0,0,2190091,0,0,0,0,0,0,0,0,0,-2160150,0,0,0,0,0,0,0
13,68,972.521652511205,0,0,37591.3142307629,37592.3612699127,0,0,3,0,0,30,3,0,0,9242293,2070100,0,0,0,0,0,0,0,0,0,0,0,0,0,0,0,0,0,0,1131021,4050181,0,0,0,4061091,0,0,0,0,0,-2070100,0,0,0,0,0,0
13,69,1272.65415606962,0,0,37594.5260012523,37595.5730080653,0,0,3,0,0,25,7,4081100,4081200,5141342,10363462,0,0,0,0,0,4081100,0,0,0,0,0,0,0,0,0,4081200,0,0,3110191,0,0,0,0,0,-2031151,0,0,0,4071151,0,0,0,2070010,2091190,0,2131111
13,70,1969.66447225714,1,0,37597.9259241061,37598.9729644108,0,0,3,0,1,17,7,1140180,7200182,11401363,3130060,0,0,1140180,0,0,0,0,0,0,4110071,0,0,0,0,0,0,-3090111,0,0,0,0,4151191,4020101,0,1090010,0,2140061,0,3130060,0,0,0,0,0,0,0
13,71,707.270076673012,0,0,37601.9494078796,37602.9964543436,0,0,3,1,0,19,3,0,3211191,5230221,0,0,0,0,0,0,0,0,0,0,0,1060160,0,2151031,0,0,0,0,0,-3080030,0,0,2150191,0,0,0,0,0,0,0,0,0,0,0,0,0,0
13,72,723.605895051151,1,0,37604.7729194473,37605.8200044074,0,0,3,1,1,5,7,1010020,8332351,6061062,6211342,0,0,0,0,-1010020,0,0,0,0,4150160,0,0,0,0,0,2101051,2081140,0,4050031,0,0,0,0,0,0,0,2011031,0,0,0,0,4070141,0,2141201,0,0
13,73,1391.09547993576,1,0,37618.9962872706,37620.0433364293,0,0,4,1,1,26,7,7231200,10471323,4040101,3030060,0,0,0,4100050,0,3131150,0,0,0,0,0,0,1150041,0,3180160,4101081,2040041,0,0,0,0,0,0,0,0,-4040101,0,0,0,0,0,0,0,3030060,0,0
13,74,1561.70363356068,1,0,37622.5256701859,37623.5727178048,0,0,4,0,1,30,7,1041031,1021180,2250121,8401222,0,0,0,1041031,0,0,0,0,0,0,0,0,0,1021180,0,0,0,0,0,0,1160071,0,1090050,0,0,0,0,0,2100110,-3180040,0,0,2051021,0,0,1070051
13,75,587.054852694564,0,0,37626.1844519538,37627.2314907186,0,0,4,1,0,5,7,1010020,8332351,6061062,6211342,0,0,0,0,-1010020,0,0,0,0,4150160,0,0,0,0,0,2101051,2081140,0,4050031,0,0,0,0,0,0,0,2011031,0,0,0,0,4070141,0,2141201,0,0
13,76,1205.69173672266,0,0,37629.0197256187,37630.066759764,0,0,4,1,0,31,7,4010120,2190171,5251231,7311392,0,4010120,0,0,0,0,0,0,0,0,1120130,0,0,0,1070041,0,0,0,4061051,0,1190180,0,0,0,0,0,0,4130090,0,0,-1080181,2101121,0,0,0,0
13,77,783.535847556777,0,0,37632.3608483804,37633.4078979241,0,0,4,1,0,10,7,7231353,6291140,3040141,1081181,2090050,0,0,1070151,0,1050071,3021081,0,0,-3131010,0,0,0,0,0,0,3160130,0,0,3040141,0,0,0,0,0,0,0,0,0,0,1081181,0,0,0,0,0
13,78,1267.30473854695,0,0,37635.1961224303,37636.2431638898,0,0,4,0,0,25,7,4171111,5150202,8531271,1110020,0,0,0,0,3061100,0,1110011,0,0,2080021,0,0,0,0,3070181,0,0,0,0,0,3201010,4170170,0,0,-1160091,0,0,0,1110020,0,0,0,0,0,0,0
13,79,618.533110478893,0,0,37638.6078558864,37639.6548942662,0,0,4,0,0,15,3,4040060,6202330,2181170,0,0,0,0,4040060,0,0,0,0,0,0,2051130,0,0,0,-4151200,0,0,0,0,0,0,0,0,0,0,2181170,0,0,0,0,0,0,0,0,0,0
13,80,820.192985156609,1,0,37641.3490447075,37642.3960434363,0,0,4,0,1,9,3,1190050,0,5212300,1050160,0,0,0,0,0,0,0,0,-1190050,0,0,0,0,0,0,0,0,0,0,0,0,0,2011170,0,0,0,3201130,0,0,0,0,0,1050160,0,0,0
13,81,968.897630016727,1,0,37644.325521283,37645.3724892149,0,0,4,0,1,21,7,4261322,1110131,1051031,6301531,1090051,1051141,2120130,0,0,0,0,0,0,0,0,0,0,0,0,0,1110131,0,0,0,-1051031,0,0,0,0,0,0,0,0,1031160,0,0,0,1140200,0,4130171
13,82,747.236723655078,1,0,37647.5018772887,37648.5489164385,0,0,4,1,1,27,3,0,4120010,3030031,7170131,0,0,0,0,0,0,0,0,0,0,0,0,0,0,4120010,0,0,0,0,0,0,0,0,0,0,0,-3030031,3060121,0,0,0,0,4110010,0,0,0
13,83,1591.49922698998,0,0,37650.3607101795,37651.4077146827,0,0,4,0,0,1,7,10302392,0,7151140,7341201,-3121181,4021071,0,0,0,0,0,0,3160140,0,0,0,0,0,0,0,0,0,0,0,0,3090110,0,0,4061030,0,0,0,1170080,3051101,0,3120020,0,0,0,0
13,84,1342.1500034965,0,0,37654.1371036804,37655.184143985,0,0,4,1,0,11,3,0,4111101,1061050,7290372,0,0,0,0,0,0,0,0,0,0,-4111101,0,0,0,0,0,0,0,0,0,0,0,0,0,0,1061050,0,0,0,0,4200171,3090201,0,0,0,0
13,85,782.278950013279,0,0,37657.7017671129,37658.7488151167,0,0,4,1,0,12,7,7220140,6191242,3111201,8191250,0,0,0,0,0,4200030,0,0,3020110,0,0,-2110081,2041141,0,0,0,2040020,0,0,0,0,0,0,0,0,0,3111201,0,0,0,4071050,0,4120200,0,0,0
13,86,535.287612408865,0,0,37660.7017436303,37661.7487843199,0,0,4,0,0,17,3,3051130,2300272,4010141,0,0,0,0,0,0,0,0,3051130,0,0,0,0,0,1130131,0,0,-1170141,0,0,0,0,0,0,0,4010141,0,0,0,0,0,0,0,0,0,0,0
13,87,1524.40784572536,1,0,37663.4075926501,37664.4546333397,0,0,4,1,1,33,7,5172240,8361171,5241291,7181281,1011150,0,0,0,0,0,0,0,4161090,0,0,0,0,0,4160080,0,0,4201091,0,0,4070180,0,1171111,0,0,0,0,0,0,0,0,4041101,-3140180,0,0,0
13,88,673.37657380267,0,0,37667.1016718735,37668.1487121782,0,0,4,1,0,24,3,0,2110111,3221301,3021071,0,0,0,0,0,0,0,0,0,0,0,0,0,0,0,2110111,0,0,0,2141171,0,0,0,-1080130,0,0,0,0,0,0,3021071,0,0,0,0,0
13,89,1372.24702135427,1,0,37669.9957598741,37671.042806723,0,0,4,0,1,16,7,2041160,2091091,10511332,5181260,0,0,0,0,0,0,0,2041160,0,0,0,0,0,0,0,-2091091,0,0,4171190,1010010,0,0,0,0,1190121,4140011,0,0,0,1081080,0,0,4100180,0,0,0
13,90,777.078127430286,0,0,37673.4427819316,37674.4898222362,0,0,4,1,0,7,3,2171190,4361381,4090111,0,0,0,0,0,0,0,-2171190,0,0,1170181,0,0,3191200,0,0,0,0,0,0,0,4090111,0,0,0,0,0,0,0,0,0,0,0,0,0,0,0
13,91,772.126374591608,1,0,37676.2898111493,37677.336851454,0,0,4,0,1,6,7,5052181,4171122,1161040,9281252,0,0,0,0,3031051,-2021130,0,0,0,0,0,0,2061031,0,0,0,0,2110091,0,0,0,0,0,0,1161040,0,0,0,0,0,4101061,1040171,0,0,4140020,0
13,92,1054.07948172797,0,0,37679.2897780427,37680.3368144977,0,0,4,1,0,35,3,0,2131090,1091061,5100101,0,0,0,0,0,0,0,0,0,2131090,0,0,0,0,0,0,0,0,0,0,0,0,0,0,0,1091061,0,1050011,0,0,0,0,0,0,-4050090,0
13,93,699.069638270885,1,0,37682.4426868462,37683.4897302305,0,0,4,0,1,29,3,3292262,0,0,7041211,0,2161061,1131201,0,0,0,0,0,0,0,0,0,0,0,0,0,0,0,0,0,0,0,0,0,0,0,0,0,-3010121,0,0,0,4031090,0,0,0
13,94,1350.82894835796,1,0,37685.3721084886,37686.4191164565,0,0,4,1,1,19,3,0,3211191,5230221,0,0,0,0,0,0,0,0,0,0,0,1060160,0,2151031,0,0,0,0,0,-3080030,0,0,2150191,0,0,0,0,0,0,0,0,0,0,0,0,0,0
13,95,1087.80321680388,1,0,37688.9249767172,37689.9720139421,0,0,4,0,1,32,3,7332241,0,2040081,3060100,4141090,0,3191151,0,0,0,0,0,0,0,0,0,0,0,0,0,0,0,0,0,2040081,0,0,0,0,0,0,0,0,0,0,-3060100,0,0,0,0
13,96,830.675087163399,1,0,37692.2190510901,37693.2661071781,0,0,4,0,1,13,3,0,1100190,2120040,3210171,0,0,0,0,0,0,0,0,0,0,0,0,-1100190,0,0,0,0,0,2120040,0,0,0,0,0,0,0,0,0,0,2150120,0,0,0,0,1060051,0
13,97,1687.77603856142,1,0,37698.5248656175,37699.5719174709,0,0,5,1,1,33,7,5172240,8361171,5241291,7181281,1011150,0,0,0,0,0,0,0,4161090,0,0,0,0,0,4160080,0,0,4201091,0,0,4070180,0,1171111,0,0,0,0,0,0,0,0,4041101,-3140180,0,0,0
13,98,672.708281577798,1,0,37702.3130716455,37703.3601138749,0,0,5,0,1,6,7,3141070,5221212,12382562,0,0,0,0,0,0,-3141070,0,0,0,2120141,0,0,3101071,0,0,0,0,0,2051131,2051041,3060150,4170120,1050120,0,0,0,0,0,0,0,0,0,0,0,0,0
13,99,2500.91868275922,0,0,37705.0777480896,37706.1247903191,0,0,5,1,0,10,7,7231353,6291140,3040141,1081181,2090050,0,0,1070151,0,1050071,3021081,0,0,-3131010,0,0,0,0,0,0,3160130,0,0,3040141,0,0,0,0,0,0,0,0,0,0,1081181,0,0,0,0,0
13,100,732.324490898463,0,0,37709.6541655351,37710.7012108443,0,0,5,0,0,17,7,1190090,5240202,6181222,5162291,1190090,0,0,0,0,0,0,0,0,0,0,0,2150091,0,0,2060010,-1030101,0,3111051,0,3070171,0,0,0,0,0,0,0,0,2141141,0,0,3021150,0,0,0
13,101,1323.20337987039,0,0,37712.5953153981,37713.6423568577,0,0,5,0,0,13,7,0,10253312,3071090,9461370,0,0,0,0,0,0,0,0,0,0,0,3080051,-4141170,0,1011070,0,2021021,0,0,0,0,0,0,3071090,0,0,0,4110060,0,3160200,0,0,0,0,0,2191110
13,102,1047.7337852426,1,0,37716.0188067169,37717.0659047657,0,0,5,1,1,27,3,0,4120010,3030031,7170131,0,0,0,0,0,0,0,0,0,0,0,0,0,0,4120010,0,0,0,0,0,0,0,0,0,0,0,-3030031,3060121,0,0,0,0,4110010,0,0,0
13,103,605.171500486904,1,0,37719.2423011923,37720.2893457315,0,0,5,0,1,16,3,3051131,2011030,3121151,4110170,0,0,0,0,0,0,0,3051131,0,0,0,0,0,0,0,-2011030,0,0,0,3121151,0,0,0,0,0,0,0,4110170,0,0,0,0,0,0,0,0
13,104,883.192616362066,1,0,37721.9363946593,37722.9834326542,0,0,5,0,1,1,3,1061090,3070041,4131080,3170051,-1061090,0,0,0,0,0,0,0,0,0,0,0,0,3070041,0,0,0,0,0,0,0,0,4131080,0,0,0,0,0,0,0,0,3170051,0,0,0,0
13,105,1117.96375322592,1,0,37724.9834230301,37726.0304583303,0,0,5,0,1,32,3,0,4031121,2070131,7211262,0,0,0,0,0,0,0,0,0,0,0,0,0,0,0,0,0,4031121,2070131,0,0,0,0,0,0,0,0,4070151,0,0,0,-3141111,0,0,0,0
13,106,653.412113402737,1,0,37728.1951430896,37729.2421922484,0,0,5,1,1,12,7,7220140,6191242,3111201,8191250,0,0,0,0,0,4200030,0,0,3020110,0,0,-2110081,2041141,0,0,0,2040020,0,0,0,0,0,0,0,0,0,3111201,0,0,0,4071050,0,4120200,0,0,0
13,107,687.846871369402,0,0,37730.9245309324,37731.9715731618,0,0,5,0,0,15,3,0,5291231,2250381,0,0,0,0,0,0,0,0,0,0,0,0,0,0,0,-1150191,4141040,0,0,0,0,0,0,1140181,0,0,1110200,0,0,0,0,0,0,0,0,0,0
13,108,1247.374539671,0,0,37733.8539133087,37734.9009551532,0,0,5,1,0,26,7,7231200,10471323,4040101,3030060,0,0,0,4100050,0,3131150,0,0,0,0,0,0,1150041,0,3180160,4101081,2040041,0,0,0,0,0,0,0,0,-4040101,0,0,0,0,0,0,0,3030060,0,0
13,109,1504.11154897301,1,0,37737.3362936455,37738.3832719715,0,0,5,0,1,21,7,8292422,6130432,3122291,0,2041090,4181141,0,0,0,2070191,0,0,0,0,0,0,2010061,3080200,0,0,1040171,0,0,0,-2021141,0,1101150,0,0,0,0,0,0,0,0,0,0,0,0,0
13,110,829.112915584119,0,0,37740.9832494127,37742.0302947219,0,0,5,0,0,29,3,4091130,0,1180101,4212151,0,0,0,0,0,0,0,4091130,0,0,0,0,0,0,0,0,0,0,1180101,0,0,0,0,0,0,0,0,0,-1171141,0,0,3041010,0,0,0,0
13,111,598.923199126148,0,0,37743.8773416479,37744.924377333,0,0,5,1,0,24,3,0,2110111,3221301,3021071,0,0,0,0,0,0,0,0,0,0,0,0,0,0,0,2110111,0,0,0,2141171,0,0,0,-1080130,0,0,0,0,0,0,3021071,0,0,0,0,0
13,112,809.088401270856,1,0,37746.7361764634,37747.7831748073,0,0,5,0,1,9,7,7251452,3091111,9521471,4201011,0,0,0,0,0,0,2010201,4200161,-1041090,0,0,0,0,0,0,3091111,0,0,3181150,0,3160190,0,0,0,0,0,3180131,0,0,0,0,0,4201011,0,0,0
13,113,1201.19577766309,0,0,37749.6890395336,37750.7360867675,0,0,5,0,0,25,7,0,4291332,7182252,8101243,0,0,0,0,0,0,0,0,0,1130151,0,0,0,0,3161181,0,0,0,2020161,0,0,0,3041071,0,-2121020,0,0,3010041,0,1041171,0,0,4050031,0,0,0
13,114,1076.68477432162,1,0,37753.065487083,37754.1125185336,0,0,5,1,1,35,3,0,2131090,1091061,5100101,0,0,0,0,0,0,0,0,0,2131090,0,0,0,0,0,0,0,0,0,0,0,0,0,0,0,1091061,0,1050011,0,0,0,0,0,0,-4050090,0
13,115,909.58707970276,0,0,37756.2654562092,37757.3125161468,0,0,5,1,0,5,7,1010020,8332351,6061062,6211342,0,0,0,0,-1010020,0,0,0,0,4150160,0,0,0,0,0,2101051,2081140,0,4050031,0,0,0,0,0,0,0,2011031,0,0,0,0,4070141,0,2141201,0,0
13,116,595.53592762677,1,0,37759.3007001551,37760.3477527785,0,0,5,1,1,11,3,0,4111101,1061050,7290372,0,0,0,0,0,0,0,0,0,0,-4111101,0,0,0,0,0,0,0,0,0,0,0,0,0,0,1061050,0,0,0,0,4200171,3090201,0,0,0,0
13,117,1327.37635669037,0,0,37762.0536210464,37763.1006659705,0,0,5,1,0,31,7,4010120,2190171,5251231,7311392,0,4010120,0,0,0,0,0,0,0,0,1120130,0,0,0,1070041,0,0,0,4061051,0,1190180,0,0,0,0,0,0,4130090,0,0,-1080181,2101121,0,0,0,0
13,118,811.510190673289,1,0,37765.5006392542,37766.5476849483,0,0,5,1,1,19,3,0,3211191,5230221,0,0,0,0,0,0,0,0,0,0,0,1060160,0,2151031,0,0,0,0,0,-3080030,0,0,2150191,0,0,0,0,0,0,0,0,0,0,0,0,0,0
13,119,906.47582521342,1,0,37768.3829647726,37769.4300096968,0,0,5,0,1,30,3,0,3090120,2130191,4041162,0,0,0,0,0,0,0,0,0,0,0,0,0,0,0,0,3090120,0,0,0,0,0,0,2130191,0,0,0,0,0,-1021141,0,0,0,0,0,3020021
13,120,745.422402636905,0,0,37771.4535177228,37772.5005599523,0,0,5,1,0,7,3,2171190,4361381,4090111,0,0,0,0,0,0,0,-2171190,0,0,1170181,0,0,3191200,0,0,0,0,0,0,0,4090111,0,0,0,0,0,0,0,0,0,0,0,0,0,0,0
13,121,992.270149814431,0,0,37777.4416886424,37778.4887316418,0,0,6,0,0,13,3,1130060,1110201,4091160,3160021,0,0,0,0,0,0,0,0,1130060,0,0,0,-1110201,0,0,0,0,0,0,0,0,4091160,0,0,0,0,0,3160021,0,0,0,0,0,0,0,0
13,122,647.601897617278,0,0,37780.653427565,37781.7004663298,0,0,6,1,0,7,3,2171190,4361381,4090111,0,0,0,0,0,0,0,-2171190,0,0,1170181,0,0,3191200,0,0,0,0,0,0,0,4090111,0,0,0,0,0,0,0,0,0,0,0,0,0,0,0
13,123,734.61962815054,0,0,37783.406331518,37784.4533768271,0,0,6,0,0,30,3,2181201,3060040,1070181,1131150,0,0,0,2181201,0,0,0,0,0,0,0,0,0,0,0,0,3060040,0,0,0,0,0,0,0,1070181,0,0,0,0,-1131150,0,0,0,0,0,0
13,124,1160.43457126216,1,0,37786.3004237531,37787.3474682923,0,0,6,1,1,33,7,5172240,8361171,5241291,7181281,1011150,0,0,0,0,0,0,0,4161090,0,0,0,0,0,4160080,0,0,4201091,0,0,4070180,0,1171111,0,0,0,0,0,0,0,0,4041101,-3140180,0,0,0
13,125,728.068362514023,1,0,37789.6180739052,37790.6650807182,0,0,6,0,1,1,7,9261400,4081201,5141302,1020201,-2080150,0,4080190,0,0,0,0,3101060,0,0,0,0,0,3071031,1010170,0,0,0,0,0,0,0,0,4051161,0,1090141,0,1020201,0,0,0,0,0,0,0,0
13,126,573.135819220624,1,0,37792.4297683263,37793.4768124805,0,0,6,1,1,5,7,1010020,8332351,6061062,6211342,0,0,0,0,-1010020,0,0,0,0,4150160,0,0,0,0,0,2101051,2081140,0,4050031,0,0,0,0,0,0,0,2011031,0,0,0,0,4070141,0,2141201,0,0
13,127,583.492423960706,0,0,37795.147392917,37796.194429757,0,0,6,0,0,6,7,4351171,4130100,6220171,4262121,3181080,0,0,0,0,-1170091,0,0,0,0,1070020,0,0,3060080,0,0,0,0,0,0,3030091,3190080,0,0,0,0,0,0,0,3171090,0,0,0,1091031,0,0
13,128,1193.29483889305,1,0,37797.9473614271,37798.9944025017,0,0,6,1,1,31,7,4010120,2190171,5251231,7311392,0,4010120,0,0,0,0,0,0,0,0,1120130,0,0,0,1070041,0,0,0,4061051,0,1190180,0,0,0,0,0,0,4130090,0,0,-1080181,2101121,0,0,0,0
13,129,670.614093949553,0,0,37801.3590860292,37802.4061297985,0,0,6,0,0,15,3,4121121,3200051,0,6382230,0,0,0,0,0,0,4121121,0,0,0,0,0,0,0,-3200051,0,0,0,0,0,0,0,0,0,0,0,0,0,0,0,0,0,0,4181150,2201080,0
13,130,1476.94600883551,1,0,37804.2296482954,37805.2766862903,0,0,6,0,1,32,3,5320162,2021190,0,3070100,0,0,0,0,3160101,0,0,2160061,0,0,0,0,0,0,0,0,2021190,0,0,0,0,0,0,0,0,0,0,0,0,0,0,-3070100,0,0,0,0
13,131,1009.46135145205,1,0,37807.8531376124,37808.9001821516,0,0,6,1,1,27,3,0,4120010,3030031,7170131,0,0,0,0,0,0,0,0,0,0,0,0,0,0,4120010,0,0,0,0,0,0,0,0,0,0,0,-3030031,3060121,0,0,0,0,4110010,0,0,0
13,132,793.771189593826,0,0,37811.0178273762,37812.0648507426,0,0,6,1,0,24,3,0,2110111,3221301,3021071,0,0,0,0,0,0,0,0,0,0,0,0,0,0,0,2110111,0,0,0,2141171,0,0,0,-1080130,0,0,0,0,0,0,3021071,0,0,0,0,0
13,133,1097.93230961077,1,0,37813.8766063724,37814.9236451372,0,0,6,1,1,26,7,7231200,10471323,4040101,3030060,0,0,0,4100050,0,3131150,0,0,0,0,0,0,1150041,0,3180160,4101081,2040041,0,0,0,0,0,0,0,0,-4040101,0,0,0,0,0,0,0,3030060,0,0
13,134,798.098150793521,1,0,37817.1353963785,37818.1824393779,0,0,6,0,1,21,3,0,0,5271160,8040261,0,0,0,0,0,0,0,0,0,0,0,0,0,0,0,0,0,0,0,0,-1130030,0,4141130,0,0,0,0,0,0,0,0,0,0,4020180,0,4020081
13,135,687.33949282614,0,0,37820.1471303736,37821.1941675985,0,0,6,1,0,10,7,7231353,6291140,3040141,1081181,2090050,0,0,1070151,0,1050071,3021081,0,0,-3131010,0,0,0,0,0,0,3160130,0,0,3040141,0,0,0,0,0,0,0,0,0,0,1081181,0,0,0,0,0
13,136,855.332221690333,1,0,37822.9941557417,37824.0411956614,0,0,6,1,1,19,3,0,3211191,5230221,0,0,0,0,0,0,0,0,0,0,0,1060160,0,2151031,0,0,0,0,0,-3080030,0,0,2150191,0,0,0,0,0,0,0,0,0,0,0,0,0,0
13,137,610.363468971627,1,0,37825.9941264847,37827.0411644796,0,0,6,0,1,16,7,3141302,6160250,8262261,4050170,0,0,0,2021121,0,0,1120181,0,0,0,0,3050180,0,0,0,-3110070,0,0,0,0,0,4051090,3090140,0,0,0,1121031,0,0,0,0,4050170,0,0,0,0
13,138,1112.30752182018,0,0,37828.7470385219,37829.7940776717,0,0,6,1,0,35,3,0,2131090,1091061,5100101,0,0,0,0,0,0,0,0,0,2131090,0,0,0,0,0,0,0,0,0,0,0,0,0,0,0,1091061,0,1050011,0,0,0,0,0,0,-4050090,0
13,139,677.970312957768,0,0,37832.0293561871,37833.0763918722,0,0,6,0,0,9,3,1120171,0,1130050,3261321,0,0,0,0,0,0,0,0,-1120171,0,0,0,0,0,0,0,0,0,0,0,1130050,0,0,0,0,0,0,0,2191120,0,0,0,0,1070201,0,0
13,140,785.315137116413,0,0,37834.8881486569,37835.9351931961,0,0,6,0,0,17,7,5150311,7263251,8272252,0,0,0,0,1010190,0,0,4140121,0,0,0,0,0,0,0,1131150,0,-2121050,4011051,2100051,0,3011011,0,0,3161190,0,0,0,0,0,0,0,0,0,0,0,0
13,141,516.589673563431,0,0,37837.8057650864,37838.8528088557,0,0,6,1,0,11,3,0,4111101,1061050,7290372,0,0,0,0,0,0,0,0,0,0,-4111101,0,0,0,0,0,0,0,0,0,0,0,0,0,0,1061050,0,0,0,0,4200171,3090201,0,0,0,0
13,142,1414.72861829971,1,0,37840.4645664874,37841.511607562,0,0,6,0,1,29,7,3241211,3070120,6272152,5422473,0,0,0,0,0,1111110,0,2130101,0,0,0,0,0,3070120,0,0,0,0,0,0,0,0,4121071,0,0,0,2151081,1071201,-1160141,0,0,0,0,0,0,3191131
13,143,629.067567184393,0,0,37844.0292310748,37845.0762686847,0,0,6,1,0,12,7,7220140,6191242,3111201,8191250,0,0,0,0,0,4200030,0,0,3020110,0,0,-2110081,2041141,0,0,0,2040020,0,0,0,0,0,0,0,0,0,3111201,0,0,0,4071050,0,4120200,0,0,0
13,144,1093.59726422554,0,0,37846.7586119882,37847.8056526778,0,0,6,0,0,25,7,0,7102271,13381391,5191311,0,0,0,0,0,0,0,0,0,4051110,0,0,0,0,3051161,0,0,0,0,4020101,1190090,0,0,4110150,-4061050,0,0,0,2090141,0,0,0,0,3101170,0,0
13,145,1072.94218386232,1,0,37854.8761705966,37855.9232101313,0,0,7,0,1,32,7,8300121,4030090,5251250,3251140,3090060,0,2090021,0,3120040,0,0,0,0,4030090,0,0,0,0,0,0,0,0,0,0,0,0,2201080,0,3050170,0,0,1110060,0,0,0,-2141080,0,0,0,0
13,146,561.976185919775,1,0,37858.0290797851,37859.076117395,0,0,7,1,1,12,7,7220140,6191242,3111201,8191250,0,0,0,0,0,4200030,0,0,3020110,0,0,-2110081,2041141,0,0,0,2040020,0,0,0,0,0,0,0,0,0,3111201,0,0,0,4071050,0,4120200,0,0,0
13,147,491.695403099584,1,0,37860.8172923575,37861.8643642289,0,0,7,1,1,10,7,7231353,6291140,3040141,1081181,2090050,0,0,1070151,0,1050071,3021081,0,0,-3131010,0,0,0,0,0,0,3160130,0,0,3040141,0,0,0,0,0,0,0,0,0,0,1081181,0,0,0,0,0
13,148,483.43221606774,1,0,37863.5466871295,37864.593708956,0,0,7,0,1,9,7,6242482,3130190,7201101,2150101,0,0,0,0,1030181,1181140,0,0,-4031161,0,0,0,3130190,0,0,0,0,0,0,0,0,0,3050010,0,2050070,0,2101021,0,0,0,0,0,0,2150101,0,0
13,149,814.150252954278,1,0,37866.1349070931,37867.1819189107,0,0,7,1,1,27,3,0,4120010,3030031,7170131,0,0,0,0,0,0,0,0,0,0,0,0,0,0,4120010,0,0,0,0,0,0,0,0,0,0,0,-3030031,3060121,0,0,0,0,4110010,0,0,0
13,150,624.758699144877,0,0,37869.1113239997,37870.1583631495,0,0,7,0,0,16,3,0,7351230,0,1141061,0,0,0,0,0,0,0,0,0,3110070,0,0,0,2111060,0,-2130100,0,0,0,0,0,0,0,0,0,0,0,0,0,0,1141061,0,0,0,0,0
13,151,1020.48278376606,1,0,37871.8524643157,37872.8995084699,0,0,7,1,1,35,3,0,2131090,1091061,5100101,0,0,0,0,0,0,0,0,0,2131090,0,0,0,0,0,0,0,0,0,0,0,0,0,0,0,1091061,0,1050011,0,0,0,0,0,0,-4050090,0
13,152,1468.742875717,0,0,37874.9583620716,37876.0053557959,0,0,7,0,0,30,7,1040200,8261292,5110202,5071291,0,0,0,0,0,1040200,0,0,0,0,0,4170030,0,3081151,0,1010111,0,0,0,3040081,2070121,0,0,0,0,0,0,0,3050171,-2021120,0,0,0,0,0,0
13,153,962.669731590722,0,0,37878.5112268356,37879.5583079461,0,0,7,1,0,26,7,7231200,10471323,4040101,3030060,0,0,0,4100050,0,3131150,0,0,0,0,0,0,1150041,0,3180160,4101081,2040041,0,0,0,0,0,0,0,0,-4040101,0,0,0,0,0,0,0,3030060,0,0
13,154,1300.70202673232,0,0,37881.6053082148,37882.6523492893,0,0,7,0,0,13,7,7212261,8382581,8322170,0,0,0,4101200,0,3111061,0,0,0,0,0,1110180,0,-2101141,3030060,0,0,0,2141200,4191110,0,0,4131060,0,0,0,0,0,0,0,0,0,0,0,0,0,0
13,155,591.208196507068,0,0,37885.0876165639,37886.1346630279,0,0,7,0,0,17,3,0,6230191,4130160,1100191,0,0,0,0,0,0,0,0,0,2120051,0,0,0,0,0,0,-4110140,0,0,0,0,0,4130160,0,0,0,0,0,0,0,0,0,0,0,1100191,0
13,156,1194.09132312285,0,0,37887.8287691986,37888.8758110431,0,0,7,1,0,31,7,4010120,2190171,5251231,7311392,0,4010120,0,0,0,0,0,0,0,0,1120130,0,0,0,1070041,0,0,0,4061051,0,1190180,0,0,0,0,0,0,4130090,0,0,-1080181,2101121,0,0,0,0
13,157,595.080903774942,0,0,37891.1816760003,37892.2287170749,0,0,7,1,0,24,3,0,2110111,3221301,3021071,0,0,0,0,0,0,0,0,0,0,0,0,0,0,0,2110111,0,0,0,2141171,0,0,0,-1080130,0,0,0,0,0,0,3021071,0,0,0,0,0
13,158,1100.17047264409,1,0,37894.0286990587,37895.0757409032,0,0,7,0,1,29,7,9502231,3071071,7260420,1051070,3170030,0,0,0,4161161,2171040,0,0,0,0,0,0,0,3071071,0,0,0,0,0,0,0,4120130,0,1030190,2110100,0,0,0,-1051070,0,0,0,0,0,0,0
13,159,1460.27219472307,0,0,37897.2874832904,37898.3345305243,0,0,7,1,0,5,7,1010020,8332351,6061062,6211342,0,0,0,0,-1010020,0,0,0,0,4150160,0,0,0,0,0,2101051,2081140,0,4050031,0,0,0,0,0,0,0,2011031,0,0,0,0,4070141,0,2141201,0,0
13,160,1434.61069705518,1,0,37900.9109841562,37901.9580783553,0,0,7,1,1,19,3,0,3211191,5230221,0,0,0,0,0,0,0,0,0,0,0,1060160,0,2151031,0,0,0,0,0,-3080030,0,0,2150191,0,0,0,0,0,0,0,0,0,0,0,0,0,0
13,161,476.157608783979,0,0,37904.5344684686,37905.5815153176,0,0,7,0,0,15,3,3060111,1021190,0,6310072,0,0,0,0,0,0,3060111,0,0,0,0,0,0,0,-1021190,0,0,0,0,0,0,0,0,0,0,0,0,0,0,0,0,0,2120031,4190041,0,0
13,162,850.509430762031,1,0,37907.2520953691,37908.2991287444,0,0,7,0,1,25,3,3121101,3060050,7262232,0,0,0,0,0,0,3121101,0,0,0,0,3060050,0,0,0,0,0,0,0,0,0,0,0,3111071,0,-4151161,0,0,0,0,0,0,0,0,0,0,0
13,163,895.114857325098,0,0,37910.2755868418,37911.3226298412,0,0,7,0,0,6,3,4240282,3010011,0,4051111,0,0,3080151,0,0,-1160131,0,0,0,0,0,0,0,3010011,0,0,0,0,0,0,0,0,0,0,0,0,0,0,0,0,0,0,0,4051111,0,0
13,164,1020.04854780535,1,0,37913.3226163676,37914.3696666812,0,0,7,0,1,21,7,6392212,5422232,3201180,4190071,0,0,0,0,0,2171111,2050070,0,2171031,0,0,0,1130071,0,3131031,0,0,1161130,0,0,-3201180,0,0,0,0,0,0,0,4190071,0,0,0,0,0,0,0
13,165,1138.106065584,1,0,37916.4755244011,37917.5225597013,0,0,7,1,1,11,3,0,4111101,1061050,7290372,0,0,0,0,0,0,0,0,0,0,-4111101,0,0,0,0,0,0,0,0,0,0,0,0,0,0,1061050,0,0,0,0,4200171,3090201,0,0,0,0
13,166,1574.84466092865,0,0,37919.7696057034,37920.8166417734,0,0,7,1,0,33,7,5172240,8361171,5241291,7181281,1011150,0,0,0,0,0,0,0,4161090,0,0,0,0,0,4160080,0,0,4201091,0,0,4070180,0,1171111,0,0,0,0,0,0,0,0,4041101,-3140180,0,0,0
13,167,918.622498422337,0,0,37923.451908586,37924.4989573598,0,0,7,0,0,1,3,4130351,3070031,0,4050050,-2100180,0,0,2030171,0,0,0,0,0,0,0,0,0,0,0,3070031,0,0,0,0,0,0,0,0,0,0,0,0,0,0,0,0,0,4050050,0,0
13,168,732.814161245187,0,0,37926.5107125277,37927.5577539872,0,0,7,1,0,7,3,2171190,4361381,4090111,0,0,0,0,0,0,0,-2171190,0,0,1170181,0,0,3191200,0,0,0,0,0,0,0,4090111,0,0,0,0,0,0,0,0,0,0,0,0,0,0,0
13,169,844.877451905631,1,0,37933.6165101938,37934.6635504984,0,0,8,0,1,9,7,6312071,3301090,0,6481062,1090020,0,0,0,0,1191020,0,0,-4031031,0,2100080,0,0,0,1201010,0,0,0,0,0,0,0,0,0,0,0,0,0,1200011,0,0,0,1181030,0,0,4100021
13,170,645.887666454655,0,0,37936.5223703005,37937.569402521,0,0,8,0,0,17,7,4040150,11603200,4040061,4140041,4040150,0,0,0,0,0,0,0,0,1191010,0,4190030,0,1061050,0,0,-2011050,3150060,0,0,0,0,0,0,0,4040061,0,0,0,0,0,0,4140041,0,0,0
13,171,1047.57903093559,0,0,37939.2517485193,37940.2987949833,0,0,8,0,0,32,3,1140051,3060181,3051071,1061181,0,0,1140051,0,0,0,0,0,0,3060181,0,0,0,0,0,0,0,0,0,0,0,0,0,0,3051071,0,0,0,0,0,0,-1061181,0,0,0,0
13,172,863.24894385325,1,0,37942.4399466941,37943.4869908483,0,0,8,0,1,29,7,4081192,6052321,5261300,6090241,0,0,0,0,3071141,0,0,1010051,0,0,0,0,0,0,4031190,0,2021131,0,0,0,1190160,0,0,0,0,0,4071140,0,-3080091,0,0,0,0,0,0,3010150
13,173,1002.93934284855,0,0,37945.5222752151,37946.5693078206,0,0,8,1,0,27,3,0,4120010,3030031,7170131,0,0,0,0,0,0,0,0,0,0,0,0,0,0,4120010,0,0,0,0,0,0,0,0,0,0,0,-3030031,3060121,0,0,0,0,4110010,0,0,0
13,174,880.663422845828,0,0,37948.7575348675,37949.8046179028,0,0,8,0,0,16,7,12533334,1080060,2090070,3270292,0,0,3201031,0,0,3101041,4180181,0,2051081,0,0,0,0,0,0,-1080060,0,0,0,0,0,0,2090070,0,0,0,0,0,0,2150091,0,0,0,0,1120201,0
13,175,1132.11953768041,1,0,37951.7810305748,37952.8280716493,0,0,8,1,1,26,7,7231200,10471323,4040101,3030060,0,0,0,4100050,0,3131150,0,0,0,0,0,0,1150041,0,3180160,4101081,2040041,0,0,0,0,0,0,0,0,-4040101,0,0,0,0,0,0,0,3030060,0,0
13,176,846.100472881517,0,0,37954.9810039355,37956.0280315364,0,0,8,0,0,6,3,5211282,1080191,3151040,0,0,0,0,4061121,0,-1150161,0,0,0,0,0,0,0,0,0,0,1080191,0,3151040,0,0,0,0,0,0,0,0,0,0,0,0,0,0,0,0,0
13,177,694.655290935771,0,0,37958.004536984,37959.0515322482,0,0,8,0,0,30,3,5180311,0,0,8182220,0,0,0,0,0,0,4030111,0,1150200,0,0,0,0,0,0,0,0,0,0,0,0,0,0,0,0,0,0,0,0,-4101150,0,0,0,4081070,0,0
13,178,699.164338671835,1,0,37960.9338754748,37961.9809111599,0,0,8,0,1,15,7,0,7331433,5271121,7122172,0,0,0,0,0,0,0,0,0,0,1090060,0,0,2140031,-2050141,2051201,0,0,0,0,0,0,0,0,0,3111041,2160080,0,0,0,4031061,3091111,0,0,0,0
13,179,695.911803508352,0,0,37963.8161952187,37964.8632339835,0,0,8,0,0,21,3,1130201,0,7301311,2121040,0,1130201,0,0,0,0,0,0,0,0,0,0,0,0,0,0,0,0,0,3150191,-4151120,0,0,0,0,0,0,0,0,0,0,0,0,0,2121040,0
13,180,639.248629719077,0,0,37966.5808681982,37967.6279131224,0,0,8,1,0,24,3,0,2110111,3221301,3021071,0,0,0,0,0,0,0,0,0,0,0,0,0,0,0,2110111,0,0,0,2141171,0,0,0,-1080130,0,0,0,0,0,0,3021071,0,0,0,0,0
13,181,1365.07596856973,1,0,37969.3690746112,37970.4161141459,0,0,8,0,1,1,3,2121061,2070161,1160031,3071070,-2121061,0,0,0,0,0,0,0,0,0,0,0,0,0,2070161,0,0,0,0,0,0,0,1160031,0,0,0,0,0,0,0,0,3071070,0,0,0,0
13,182,1174.45061488979,1,0,37972.8396308721,37973.8866673271,0,0,8,0,1,25,7,0,4051061,11382652,7352391,0,0,0,0,0,0,0,0,0,0,0,4051061,0,0,0,0,0,0,0,2190191,0,0,0,4030200,-3111170,0,2051091,0,0,4121040,0,0,2121181,0,0,1110170
13,183,774.023847166973,0,0,37976.2278235805,37977.2748673498,0,0,8,1,0,11,3,0,4111101,1061050,7290372,0,0,0,0,0,0,0,0,0,0,-4111101,0,0,0,0,0,0,0,0,0,0,0,0,0,0,1061050,0,0,0,0,4200171,3090201,0,0,0,0
13,184,919.945609239221,1,0,37979.2160322262,37980.2630671414,0,0,8,0,1,13,3,6181211,2100060,0,1130031,3170100,0,0,0,0,0,3011111,0,0,0,0,0,-2100060,0,0,0,0,0,0,0,0,0,0,0,0,0,0,0,0,0,0,0,1130031,0,0,0
13,185,1179.93168905377,0,0,37982.2630571324,37983.3101482519,0,0,8,1,0,33,7,5172240,8361171,5241291,7181281,1011150,0,0,0,0,0,0,0,4161090,0,0,0,0,0,4160080,0,0,4201091,0,0,4070180,0,1171111,0,0,0,0,0,0,0,0,4041101,-3140180,0,0,0
13,186,797.979197857785,0,0,37985.5218417491,37986.5688808989,0,0,8,1,0,10,7,7231353,6291140,3040141,1081181,2090050,0,0,1070151,0,1050071,3021081,0,0,-3131010,0,0,0,0,0,0,3160130,0,0,3040141,0,0,0,0,0,0,0,0,0,0,1081181,0,0,0,0,0
13,187,735.066567824106,0,0,37988.4276930017,37989.4747383109,0,0,8,1,0,12,7,7220140,6191242,3111201,8191250,0,0,0,0,0,4200030,0,0,3020110,0,0,-2110081,2041141,0,0,0,2040020,0,0,0,0,0,0,0,0,0,3111201,0,0,0,4071050,0,4120200,0,0,0
13,188,855.827666440746,1,0,37991.3100154404,37992.3570611345,0,0,8,1,1,7,3,2171190,4361381,4090111,0,0,0,0,0,0,0,-2171190,0,0,1170181,0,0,3191200,0,0,0,0,0,0,0,4090111,0,0,0,0,0,0,0,0,0,0,0,0,0,0,0
13,189,1466.03660015535,1,0,37994.4158639213,37995.4629030711,0,0,8,1,1,31,7,4010120,2190171,5251231,7311392,0,4010120,0,0,0,0,0,0,0,0,1120130,0,0,0,1070041,0,0,0,4061051,0,1190180,0,0,0,0,0,0,4130090,0,0,-1080181,2101121,0,0,0,0
13,190,969.065857963869,1,0,37998.1217083216,37999.1687493962,0,0,8,1,1,35,3,0,2131090,1091061,5100101,0,0,0,0,0,0,0,0,0,2131090,0,0,0,0,0,0,0,0,0,0,0,0,0,0,0,1091061,0,1050011,0,0,0,0,0,0,-4050090,0
13,191,936.845010473917,1,0,38001.2040510863,38002.2510682932,0,0,8,1,1,5,7,1010020,8332351,6061062,6211342,0,0,0,0,-1010020,0,0,0,0,4150160,0,0,0,0,0,2101051,2081140,0,4050031,0,0,0,0,0,0,0,2011031,0,0,0,0,4070141,0,2141201,0,0
13,192,1085.95886883268,0,0,38004.2157612137,38005.2627984387,0,0,8,1,0,19,3,0,3211191,5230221,0,0,0,0,0,0,0,0,0,0,0,1060160,0,2151031,0,0,0,0,0,-3080030,0,0,2150191,0,0,0,0,0,0,0,0,0,0,0,0,0,0
13,193,861.292187284562,1,0,38010.5333474623,38011.5803823775,0,0,9,1,1,12,7,7220140,6191242,3111201,8191250,0,0,0,0,0,4200030,0,0,3020110,0,0,-2110081,2041141,0,0,0,2040020,0,0,0,0,0,0,0,0,0,3111201,0,0,0,4071050,0,4120200,0,0,0
13,194,928.418215029524,0,0,38013.5921294612,38014.6391678411,0,0,9,0,0,1,3,5330180,4081091,0,3041171,-2200120,0,0,0,3130060,0,0,0,0,0,0,0,0,0,0,4081091,0,0,0,0,0,0,0,0,0,0,0,0,0,0,0,0,0,0,0,3041171
13,195,880.635705660097,1,0,38016.7450421144,38017.7920789544,0,0,9,1,1,35,3,0,2131090,1091061,5100101,0,0,0,0,0,0,0,0,0,2131090,0,0,0,0,0,0,0,0,0,0,0,0,0,0,0,1091061,0,1050011,0,0,0,0,0,0,-4050090,0
13,196,952.863236059784,0,0,38019.8155939097,38020.862628055,0,0,9,1,0,27,3,0,4120010,3030031,7170131,0,0,0,0,0,0,0,0,0,0,0,0,0,0,4120010,0,0,0,0,0,0,0,0,0,0,0,-3030031,3060121,0,0,0,0,4110010,0,0,0
13,197,878.805986212683,0,0,38022.9567729527,38024.0037809206,0,0,9,0,0,6,7,6141232,3240231,10312293,0,0,0,0,0,0,-2060161,0,4081071,0,0,0,1200141,0,0,0,2040090,0,0,3091181,1031021,2020011,0,0,0,0,0,4170080,0,0,0,0,0,0,0,0,0
13,198,452.899807358335,1,0,38025.909644492,38026.9567352266,0,0,9,1,1,11,3,0,4111101,1061050,7290372,0,0,0,0,0,0,0,0,0,0,-4111101,0,0,0,0,0,0,0,0,0,0,0,0,0,0,1061050,0,0,0,0,4200171,3090201,0,0,0,0
13,199,1341.76927710359,0,0,38028.5567222919,38029.6037144764,0,0,9,1,0,26,7,7231200,10471323,4040101,3030060,0,0,0,4100050,0,3131150,0,0,0,0,0,0,1150041,0,3180160,4101081,2040041,0,0,0,0,0,0,0,0,-4040101,0,0,0,0,0,0,0,3030060,0,0
13,200,711.884988668317,0,0,38032.0625205739,38033.109556259,0,0,9,0,0,29,3,4160140,0,3100090,3121181,0,0,0,0,0,0,0,0,4160140,0,0,0,0,0,0,0,0,0,0,0,3100090,0,0,0,0,0,0,0,-1030031,0,0,0,0,0,0,2091150
13,201,675.930019860971,0,0,38034.9683737513,38036.0154163657,0,0,9,0,0,21,7,6301232,5200361,6250272,6262021,0,0,0,2120171,0,0,0,0,4181061,0,0,0,4070180,1130181,0,0,0,0,0,3110151,-3140121,0,0,0,0,0,0,0,0,0,4071010,0,0,2191011,0,0
13,202,1005.97591490805,1,0,38037.8624548225,38038.9094958971,0,0,9,0,1,13,3,10292341,2181100,0,0,0,0,0,3080020,0,3051161,0,4161160,0,0,0,0,-2181100,0,0,0,0,0,0,0,0,0,0,0,0,0,0,0,0,0,0,0,0,0,0,0
13,203,608.329335249437,1,0,38040.9330139321,38041.9800550067,0,0,9,0,1,17,3,3072180,3090131,0,2051181,0,0,1041120,0,0,0,0,0,2031060,0,0,0,0,0,0,0,-3090131,0,0,0,0,0,0,0,0,0,0,0,0,0,2051181,0,0,0,0,0
13,204,749.88025057246,0,0,38043.662390611,38044.7094313006,0,0,9,1,0,7,3,2171190,4361381,4090111,0,0,0,0,0,0,0,-2171190,0,0,1170181,0,0,3191200,0,0,0,0,0,0,0,4090111,0,0,0,0,0,0,0,0,0,0,0,0,0,0,0
13,205,535.299931158079,1,0,38046.5800108902,38047.6270515798,0,0,9,0,1,15,3,1180200,5202191,4090021,0,0,1180200,0,0,0,0,0,0,0,0,0,0,0,1131100,-4071091,0,0,0,0,0,0,0,0,4090021,0,0,0,0,0,0,0,0,0,0,0,0
13,206,779.761690289888,0,0,38049.2035175304,38050.25055822,0,0,9,0,0,30,7,7201120,0,9423271,10201221,0,0,0,0,0,4181070,0,3020050,0,0,0,0,0,0,0,0,0,0,0,0,0,4141121,4161030,0,1121120,0,0,0,4091011,-3040130,0,0,3070080,0,0,0
13,207,1502.98707800539,1,0,38052.1211335749,38053.1681707999,0,0,9,0,1,32,7,5131340,8352111,3211300,7191261,0,0,0,4091140,0,0,1040200,0,0,4171030,0,0,4181081,0,0,0,0,0,0,0,0,0,0,2181170,0,0,1030130,0,0,4030171,0,-3161090,0,0,0,0
13,208,648.540047477582,1,0,38055.697555255,38056.7445986393,0,0,9,1,1,5,7,1010020,8332351,6061062,6211342,0,0,0,0,-1010020,0,0,0,0,4150160,0,0,0,0,0,2101051,2081140,0,4050031,0,0,0,0,0,0,0,2011031,0,0,0,0,4070141,0,2141201,0,0
13,209,859.381241069059,0,0,38058.4386917213,38059.4857489643,0,0,9,1,0,19,3,0,3211191,5230221,0,0,0,0,0,0,0,0,0,0,0,1060160,0,2151031,0,0,0,0,0,-3080030,0,0,2150191,0,0,0,0,0,0,0,0,0,0,0,0,0,0
13,210,1399.7728849572,0,0,38061.4033754028,38062.4504261014,0,0,9,1,0,33,7,5172240,8361171,5241291,7181281,1011150,0,0,0,0,0,0,0,4161090,0,0,0,0,0,4160080,0,0,4201091,0,0,4070180,0,1171111,0,0,0,0,0,0,0,0,4041101,-3140180,0,0,0
13,211,1286.13202428096,1,0,38064.8739293539,38065.9209727382,0,0,9,1,1,31,7,4010120,2190171,5251231,7311392,0,4010120,0,0,0,0,0,0,0,0,1120130,0,0,0,1070041,0,0,0,4061051,0,1190180,0,0,0,0,0,0,4130090,0,0,-1080181,2101121,0,0,0,0
13,212,1847.6022055911,1,0,38068.3915424728,38069.4385793127,0,0,9,0,1,16,7,0,6392381,4373242,7351221,0,0,0,0,0,0,0,0,0,0,0,0,0,2160151,0,-3041150,0,1191080,0,0,0,1201150,0,1101081,0,0,2071011,4151120,0,0,0,0,0,3200101,0,0
13,213,735.042700245685,0,0,38072.3679647688,38073.4150100779,0,0,9,1,0,10,7,7231353,6291140,3040141,1081181,2090050,0,0,1070151,0,1050071,3021081,0,0,-3131010,0,0,0,0,0,0,3160130,0,0,3040141,0,0,0,0,0,0,0,0,0,0,1081181,0,0,0,0,0
13,214,537.225505882816,1,0,38075.3208755741,38076.3679293524,0,0,9,0,1,9,3,5272311,0,0,8221242,0,0,0,0,3151131,0,0,0,-2121180,0,0,0,0,0,0,0,0,0,0,0,0,0,0,0,0,0,0,0,0,0,0,0,4191111,4030131,0,0
13,215,1065.7919189689,1,0,38078.1090816021,38079.1561211368,0,0,9,0,1,25,7,3200051,3200171,8433310,3191161,3200051,0,0,0,0,0,0,0,0,0,1070131,0,0,2130040,0,0,0,0,3041070,0,0,4201050,0,0,-1191190,0,0,0,2110061,0,0,1081100,0,0,0,0
13,216,757.652612373931,0,0,38081.391401962,38082.4384395719,0,0,9,1,0,24,3,0,2110111,3221301,3021071,0,0,0,0,0,0,0,0,0,0,0,0,0,0,0,2110111,0,0,0,2141171,0,0,0,-1080130,0,0,0,0,0,0,3021071,0,0,0,0,0
13,217,722.994192081387,1,0,38089.3089567978,38090.3559971024,0,0,10,0,1,30,3,0,8271171,0,3181130,0,0,0,0,0,0,0,0,0,0,0,0,1120011,0,0,3011100,0,4140060,0,0,0,0,0,0,0,0,0,0,0,-3181130,0,0,0,0,0,0
13,218,521.562984220509,1,0,38092.0854003436,38093.1324460377,0,0,10,1,1,10,7,7231353,6291140,3040141,1081181,2090050,0,0,1070151,0,1050071,3021081,0,0,-3131010,0,0,0,0,0,0,3160130,0,0,3040141,0,0,0,0,0,0,0,0,0,0,1081181,0,0,0,0,0
13,219,633.548897727451,0,0,38094.7441921206,38095.7912366598,0,0,10,0,0,15,7,3150111,8432472,7340472,0,0,0,0,0,3150111,0,0,0,0,0,0,1151081,0,0,-3020181,0,3091160,1170050,0,2070151,0,0,3090160,0,0,2180161,0,0,0,0,0,0,0,0,0,0
13,220,643.93398957327,1,0,38097.6147578515,38098.6617916118,0,0,10,0,1,17,7,5230231,5272311,9303310,0,3040060,0,0,0,0,0,0,0,2190171,0,0,0,0,0,2131120,0,-3141191,0,0,1040030,0,1011130,3071120,4181030,0,0,0,0,0,0,0,0,0,0,0,0
13,221,538.947051303694,0,0,38100.3559674604,38101.4029384721,0,0,10,0,0,9,3,3011180,4170071,3061021,4160131,0,0,0,0,0,0,0,0,-3011180,0,4170071,0,0,0,0,0,0,0,0,0,0,0,0,3061021,0,0,0,4160131,0,0,0,0,0,0,0,0
13,222,1155.58136841719,0,0,38102.9441081221,38103.9911484267,0,0,10,1,0,26,7,7231200,10471323,4040101,3030060,0,0,0,4100050,0,3131150,0,0,0,0,0,0,1150041,0,3180160,4101081,2040041,0,0,0,0,0,0,0,0,-4040101,0,0,0,0,0,0,0,3030060,0,0
13,223,1216.10108111781,1,0,38106.2734857249,38107.3205225649,0,0,10,0,1,16,7,0,3332242,1080161,11632423,0,0,0,0,0,0,0,0,0,0,0,0,0,0,0,-1130070,1111041,1091131,0,0,0,1080161,0,0,0,0,0,4150110,2141171,0,2171071,0,0,0,0,3170071
13,224,942.527804181736,1,0,38109.7440358264,38110.7910749762,0,0,10,1,1,24,3,0,2110111,3221301,3021071,0,0,0,0,0,0,0,0,0,0,0,0,0,0,0,2110111,0,0,0,2141171,0,0,0,-1080130,0,0,0,0,0,0,3021071,0,0,0,0,0
13,225,1632.2200124996,0,0,38112.8263524137,38113.8733931033,0,0,10,0,0,25,7,4172432,0,6110131,10463331,0,0,1021141,0,0,0,0,1111111,2040180,0,0,0,0,0,0,0,0,0,0,0,0,0,3100071,0,-3010060,0,0,0,0,4171121,0,0,3191040,0,3101170,0
13,226,1007.92843689851,0,0,38116.6616068305,38117.7086405908,0,0,10,1,0,19,3,0,3211191,5230221,0,0,0,0,0,0,0,0,0,0,0,1060160,0,2151031,0,0,0,0,0,-3080030,0,0,2150191,0,0,0,0,0,0,0,0,0,0,0,0,0,0
13,227,629.401328333188,0,0,38119.8262750365,38120.8733207306,0,0,10,0,0,32,3,0,5241251,0,4170322,0,0,0,0,0,0,0,0,0,3041170,0,0,2200081,0,0,0,0,0,0,0,0,0,0,0,0,0,0,0,0,0,0,-3130201,0,0,1040121,0
13,228,991.534874374338,0,0,38122.5439065565,38123.5909364672,0,0,10,0,0,1,3,4131021,2201130,0,3061161,-3081010,0,0,1050011,0,0,0,0,0,2201130,0,0,0,0,0,0,0,0,0,0,0,0,0,0,0,0,0,0,0,0,0,0,0,0,3061161,0
13,229,1031.82065398869,0,0,38125.6026897103,38126.6497423337,0,0,10,1,0,35,3,0,2131090,1091061,5100101,0,0,0,0,0,0,0,0,0,2131090,0,0,0,0,0,0,0,0,0,0,0,0,0,0,0,1091061,0,1050011,0,0,0,0,0,0,-4050090,0
13,230,743.881018948741,1,0,38128.7085258725,38129.7555719515,0,0,10,1,1,12,7,7220140,6191242,3111201,8191250,0,0,0,0,0,4200030,0,0,3020110,0,0,-2110081,2041141,0,0,0,2040020,0,0,0,0,0,0,0,0,0,3111201,0,0,0,4071050,0,4120200,0,0,0
13,231,610.712628556939,1,0,38131.6026184925,38132.6496822798,0,0,10,0,1,29,3,2170171,0,2031160,4050211,0,0,2170171,0,0,0,0,0,0,0,0,0,0,0,0,0,0,0,0,0,0,0,0,0,0,2031160,0,0,-3040101,0,0,1010110,0,0,0,0
13,232,1124.05653035239,0,0,38134.461414812,38135.5084470325,0,0,10,1,0,31,7,4010120,2190171,5251231,7311392,0,4010120,0,0,0,0,0,0,0,0,1120130,0,0,0,1070041,0,0,0,4061051,0,1190180,0,0,0,0,0,0,4130090,0,0,-1080181,2101121,0,0,0,0
13,233,1385.53548877098,1,0,38137.7319626807,38138.7790033703,0,0,10,1,1,33,7,5172240,8361171,5241291,7181281,1011150,0,0,0,0,0,0,0,4161090,0,0,0,0,0,4160080,0,0,4201091,0,0,4070180,0,1171111,0,0,0,0,0,0,0,0,4041101,-3140180,0,0,0
13,234,634.256455981813,1,0,38141.3672217941,38142.414259789,0,0,10,1,1,27,3,0,4120010,3030031,7170131,0,0,0,0,0,0,0,0,0,0,0,0,0,0,4120010,0,0,0,0,0,0,0,0,0,0,0,-3030031,3060121,0,0,0,0,4110010,0,0,0
13,235,1297.88372753683,1,0,38144.2024850651,38145.2495642508,0,0,10,1,1,5,7,1010020,8332351,6061062,6211342,0,0,0,0,-1010020,0,0,0,0,4150160,0,0,0,0,0,2101051,2081140,0,4050031,0,0,0,0,0,0,0,2011031,0,0,0,0,4070141,0,2141201,0,0
13,236,1269.3323279309,0,0,38147.7318568165,38148.7788959662,0,0,10,0,0,13,3,2050070,3040170,0,5150161,0,0,0,0,0,0,0,0,2050070,0,0,0,-3040170,0,0,0,0,0,0,0,0,0,0,0,0,0,0,0,0,0,0,1050140,4100021,0,0,0
13,237,691.634502269153,1,0,38151.1906409712,38152.2376812758,0,0,10,1,1,7,3,2171190,4361381,4090111,0,0,0,0,0,0,0,-2171190,0,0,1170181,0,0,3191200,0,0,0,0,0,0,0,4090111,0,0,0,0,0,0,0,0,0,0,0,0,0,0,0
13,238,741.277527966304,0,0,38153.9788496939,38155.0258880738,0,0,10,0,0,6,7,6141172,7471332,5160061,4010140,0,0,0,4070111,0,-2071061,0,0,0,0,1161131,0,0,0,3120130,0,0,3190071,0,0,1120011,0,0,4040050,0,0,0,0,0,0,0,0,4010140,0,0,0
13,239,484.952426893869,0,0,38156.8611671281,38157.9082066628,0,0,10,1,0,11,3,0,4111101,1061050,7290372,0,0,0,0,0,0,0,0,0,0,-4111101,0,0,0,0,0,0,0,0,0,0,0,0,0,0,1061050,0,0,0,0,4200171,3090201,0,0,0,0
13,240,1114.91601729358,1,0,38159.5081929582,38160.5552382674,0,0,10,0,1,21,7,14400512,3190151,5232152,4050041,0,0,0,0,0,3200131,4060141,3120200,4020040,0,0,3190151,0,0,0,0,0,0,0,0,-1051081,4181071,0,0,0,0,0,0,0,0,0,0,4050041,0,0,0
13,241,868.673043798481,1,0,38167.0963455537,38168.1433931726,0,0,11,0,1,21,7,3170021,2281201,6141420,6140260,0,0,0,0,3170021,0,0,0,0,0,0,1100161,0,0,0,0,0,1181040,0,0,-3070080,0,1021180,0,2050160,0,0,0,0,0,0,2020090,0,0,4120170,0
13,242,873.878870872431,1,0,38170.0492578988,38171.0963082125,0,0,11,1,1,35,3,0,2131090,1091061,5100101,0,0,0,0,0,0,0,0,0,2131090,0,0,0,0,0,0,0,0,0,0,0,0,0,0,0,1091061,0,1050011,0,0,0,0,0,0,-4050090,0
13,243,555.859156243969,1,0,38173.0962885795,38174.1433292691,0,0,11,0,1,30,3,0,0,2170091,7193312,0,0,0,0,0,0,0,0,0,0,0,0,0,0,0,0,0,0,0,0,0,0,0,0,0,0,2170091,0,0,-3151131,2021030,0,2021151,0,0,0
13,244,1080.25028274278,1,0,38175.7197925249,38176.7668266702,0,0,11,1,1,24,3,0,2110111,3221301,3021071,0,0,0,0,0,0,0,0,0,0,0,0,0,0,0,2110111,0,0,0,2141171,0,0,0,-1080130,0,0,0,0,0,0,3021071,0,0,0,0,0
13,245,971.262830156775,0,0,38178.8726936292,38179.9197331639,0,0,11,1,0,26,7,7231200,10471323,4040101,3030060,0,0,0,4100050,0,3131150,0,0,0,0,0,0,1150041,0,3180160,4101081,2040041,0,0,0,0,0,0,0,0,-4040101,0,0,0,0,0,0,0,3030060,0,0
13,246,862.61260338506,0,0,38181.9432546636,38182.9903142163,0,0,11,1,0,5,7,1010020,8332351,6061062,6211342,0,0,0,0,-1010020,0,0,0,0,4150160,0,0,0,0,0,2101051,2081140,0,4050031,0,0,0,0,0,0,0,2011031,0,0,0,0,4070141,0,2141201,0,0
13,247,1796.62221046601,1,0,38184.8961581547,38185.943201924,0,0,11,0,1,1,7,9390283,2111020,1130051,9321260,-2190141,0,4070051,0,0,0,0,0,3130091,0,0,0,0,0,0,2111020,0,0,0,0,1130051,0,0,0,0,0,0,2160120,3091100,0,0,0,0,4070040,0,0
13,248,1069.65615709487,1,0,38188.7902299869,38189.8372695216,0,0,11,0,1,17,7,7221151,9432342,4120300,2200171,0,0,0,0,0,4031030,0,0,3190121,1110101,0,0,0,0,0,0,-4141171,4181070,0,3090100,0,0,1030200,0,0,0,0,0,2200171,0,0,0,0,0,0,0
13,249,1005.63291469007,0,0,38191.9901906438,38193.0372332582,0,0,11,0,0,13,3,4040101,6310221,1111171,0,0,0,0,0,0,0,0,0,4040101,0,0,3200090,-3110131,0,0,0,0,0,0,0,1111171,0,0,0,0,0,0,0,0,0,0,0,0,0,0,0
13,250,887.525736943644,0,0,38195.0842801072,38196.1313211818,0,0,11,0,0,32,3,1101191,4171111,0,3090141,0,0,0,0,0,0,0,0,1101191,0,0,0,0,4171111,0,0,0,0,0,0,0,0,0,0,0,0,0,0,0,0,0,-1080091,0,0,0,2010050
13,251,553.380392622785,0,0,38198.0724802839,38199.1195240531,0,0,11,1,0,12,7,7220140,6191242,3111201,8191250,0,0,0,0,0,4200030,0,0,3020110,0,0,-2110081,2041141,0,0,0,2040020,0,0,0,0,0,0,0,0,0,3111201,0,0,0,4071050,0,4120200,0,0,0
13,252,696.580865660508,0,0,38200.7430464767,38201.7901287421,0,0,11,0,0,16,3,0,2190011,6301240,3171011,0,0,0,0,0,0,0,0,0,0,0,0,0,0,0,-2190011,0,0,0,0,0,0,0,2100120,0,4201120,0,0,3171011,0,0,0,0,0,0,0
13,253,614.820162016258,0,0,38203.6488919549,38204.6959796098,0,0,11,1,0,11,3,0,4111101,1061050,7290372,0,0,0,0,0,0,0,0,0,0,-4111101,0,0,0,0,0,0,0,0,0,0,0,0,0,0,1061050,0,0,0,0,4200171,3090201,0,0,0,0
13,254,1304.25444648426,0,0,38206.5194499866,38207.5664895214,0,0,11,0,0,25,7,8282302,4130090,7482382,2200011,0,0,0,0,0,0,2011131,4171110,2100061,0,0,0,4130090,0,0,0,0,0,0,0,0,0,0,3171101,-3151091,1160190,0,0,0,0,0,0,0,0,2200011,0
13,255,649.17754282942,0,0,38210.0605853751,38211.1076256798,0,0,11,0,0,9,3,5241120,0,0,4330121,0,0,0,0,0,0,0,3131070,-2110050,0,0,0,0,0,0,0,0,0,0,0,0,0,0,0,0,0,0,0,2200020,0,0,0,2130101,0,0,0
13,256,580.257597001037,1,0,38212.7664378596,38213.8134827838,0,0,11,1,1,10,7,7231353,6291140,3040141,1081181,2090050,0,0,1070151,0,1050071,3021081,0,0,-3131010,0,0,0,0,0,0,3160130,0,0,3040141,0,0,0,0,0,0,0,0,0,0,1081181,0,0,0,0,0
13,257,521.708499465603,1,0,38215.4958734375,38216.5428548432,0,0,11,0,1,15,7,9223451,4201170,5141351,2230151,0,0,0,0,3031190,4141191,2051070,0,0,0,0,0,0,0,-4201170,0,0,0,0,0,0,0,4061161,0,0,0,1080190,0,1170051,0,0,0,0,1060100,0,0
13,258,463.995922102185,1,0,38218.107554462,38219.1545990012,0,0,11,0,1,6,3,4082161,0,2011041,1140011,1041140,0,0,0,0,-3041021,0,0,0,0,0,0,0,0,0,0,0,0,0,0,0,0,2011041,0,0,0,0,0,0,0,1140011,0,0,0,0,0
13,259,1757.9725149335,0,0,38220.7545852966,38221.8016259862,0,0,11,0,0,29,7,4052341,9352250,6151161,4121150,0,1031170,0,0,0,0,0,3021171,0,0,0,1180170,4021010,4151070,0,0,0,0,4030011,0,0,0,2121150,0,0,0,0,0,-4121150,0,0,0,0,0,0,0
13,260,1218.11712167255,0,0,38224.7663092826,38225.8133488174,0,0,11,1,0,19,3,0,3211191,5230221,0,0,0,0,0,0,0,0,0,0,0,1060160,0,2151031,0,0,0,0,0,-3080030,0,0,2150191,0,0,0,0,0,0,0,0,0,0,0,0,0,0
13,261,816.704468925309,1,0,38228.1427360442,38229.1897840481,0,0,11,1,1,27,3,0,4120010,3030031,7170131,0,0,0,0,0,0,0,0,0,0,0,0,0,0,4120010,0,0,0,0,0,0,0,0,0,0,0,-3030031,3060121,0,0,0,0,4110010,0,0,0
13,262,772.828928347735,0,0,38231.0485923013,38232.0956957396,0,0,11,1,0,7,3,2171190,4361381,4090111,0,0,0,0,0,0,0,-2171190,0,0,1170181,0,0,3191200,0,0,0,0,0,0,0,4090111,0,0,0,0,0,0,0,0,0,0,0,0,0,0,0
13,263,1354.05761594302,1,0,38234.0603209069,38235.1073589018,0,0,11,1,1,31,7,4010120,2190171,5251231,7311392,0,4010120,0,0,0,0,0,0,0,0,1120130,0,0,0,1070041,0,0,0,4061051,0,1190180,0,0,0,0,0,0,4130090,0,0,-1080181,2101121,0,0,0,0
13,264,1060.00095122727,1,0,38237.6485127684,38238.6955565377,0,0,11,1,1,33,7,5172240,8361171,5241291,7181281,1011150,0,0,0,0,0,0,0,4161090,0,0,0,0,0,4160080,0,0,4201091,0,0,4070180,0,1171111,0,0,0,0,0,0,0,0,4041101,-3140180,0,0,0
13,265,856.414346941165,0,0,38244.4719700566,38245.5190088214,0,0,12,1,0,10,7,7231353,6291140,3040141,1081181,2090050,0,0,1070151,0,1050071,3021081,0,0,-3131010,0,0,0,0,0,0,3160130,0,0,3040141,0,0,0,0,0,0,0,0,0,0,1081181,0,0,0,0,0
13,266,548.598022600345,1,0,38247.4366818402,38248.4836890382,0,0,12,0,1,16,3,3190151,9202180,0,0,0,0,0,0,0,0,0,0,3190151,0,0,0,0,4070020,0,-4051120,1081040,0,0,0,0,0,0,0,0,0,0,0,0,0,0,0,0,0,0,0
13,267,921.98474745237,1,0,38250.0483767232,38251.0954166429,0,0,12,0,1,6,3,3111222,4160071,0,1180060,0,1090121,0,0,0,-2021101,0,0,0,0,0,0,0,4160071,0,0,0,0,0,0,0,0,0,0,0,0,0,0,1180060,0,0,0,0,0,0,0
13,268,537.453017816006,0,0,38253.1777555579,38254.2247970174,0,0,12,1,0,5,7,1010020,8332351,6061062,6211342,0,0,0,0,-1010020,0,0,0,0,4150160,0,0,0,0,0,2101051,2081140,0,4050031,0,0,0,0,0,0,0,2011031,0,0,0,0,4070141,0,2141201,0,0
13,269,689.735489846498,0,0,38255.8365500295,38256.8835961086,0,0,12,0,0,15,3,7142241,1041061,0,2071120,0,0,0,3081071,4061170,0,0,0,0,0,0,0,0,0,-1041061,0,0,0,0,0,0,0,0,0,0,0,0,0,0,2071120,0,0,0,0,0,0
13,270,1071.10745991668,0,0,38258.7071122958,38259.7541464411,0,0,12,1,0,35,3,0,2131090,1091061,5100101,0,0,0,0,0,0,0,0,0,2131090,0,0,0,0,0,0,0,0,0,0,0,0,0,0,0,1091061,0,1050011,0,0,0,0,0,0,-4050090,0
13,271,1101.34960806317,1,0,38262.024722412,38263.0717619467,0,0,12,0,1,21,7,0,9360582,9401530,2070181,0,0,0,0,0,0,0,0,0,2170091,0,0,2080141,2020160,0,0,3090190,0,4060190,0,-1160170,0,0,0,4181170,0,0,0,2070181,0,0,0,0,0,0,0
13,272,1081.30969530612,1,0,38265.3188017894,38266.3658393993,0,0,12,1,1,7,3,2171190,4361381,4090111,0,0,0,0,0,0,0,-2171190,0,0,1170181,0,0,3191200,0,0,0,0,0,0,0,4090111,0,0,0,0,0,0,0,0,0,0,0,0,0,0,0
13,273,1244.33950745879,1,0,38268.6246471136,38269.6716874183,0,0,12,1,1,33,7,5172240,8361171,5241291,7181281,1011150,0,0,0,0,0,0,0,4161090,0,0,0,0,0,4160080,0,0,4201091,0,0,4070180,0,1171111,0,0,0,0,0,0,0,0,4041101,-3140180,0,0,0
13,274,980.709772149567,0,0,38271.9423149739,38272.9892940698,0,0,12,0,0,13,3,3171041,6161241,2011180,0,3171041,0,0,0,0,0,0,0,0,0,0,0,-3151051,0,0,3010190,0,0,0,0,0,0,0,2011180,0,0,0,0,0,0,0,0,0,0,0,0
13,275,847.142947161046,0,0,38275.0128171093,38276.0598554891,0,0,12,1,0,24,3,0,2110111,3221301,3021071,0,0,0,0,0,0,0,0,0,0,0,0,0,0,0,2110111,0,0,0,2141171,0,0,0,-1080130,0,0,0,0,0,0,3021071,0,0,0,0,0
13,276,716.61577391933,1,0,38278.0363174361,38279.0833473468,0,0,12,1,1,19,3,0,3211191,5230221,0,0,0,0,0,0,0,0,0,0,0,1060160,0,2151031,0,0,0,0,0,-3080030,0,0,2150191,0,0,0,0,0,0,0,0,0,0,0,0,0,0
13,277,1087.70697656291,0,0,38280.8950987421,38281.9422021803,0,0,12,1,0,26,7,7231200,10471323,4040101,3030060,0,0,0,4100050,0,3131150,0,0,0,0,0,0,1150041,0,3180160,4101081,2040041,0,0,0,0,0,0,0,0,-4040101,0,0,0,0,0,0,0,3030060,0,0
13,278,1120.68273249315,1,0,38284.0363051174,38285.0832819035,0,0,12,0,1,29,7,0,0,12272542,14333321,0,0,0,0,0,0,0,0,0,0,0,0,0,0,0,0,0,0,0,3051091,1110190,4011181,0,4100080,0,0,0,3030201,-3131070,4091020,0,0,4081030,0,0,0
13,279,973.43324006215,0,0,38287.2714947068,38288.3185423257,0,0,12,0,0,32,7,8301191,0,2130191,4401070,0,3090050,1040100,0,0,0,4171041,0,0,0,0,0,0,0,0,0,0,0,0,0,0,1070060,1060131,0,0,0,0,2190040,0,0,0,-1151010,0,1060020,0,0
13,280,1326.59681074438,0,0,38290.3302851749,38291.3773343336,0,0,12,1,0,31,7,4010120,2190171,5251231,7311392,0,4010120,0,0,0,0,0,0,0,0,1120130,0,0,0,1070041,0,0,0,4061051,0,1190180,0,0,0,0,0,0,4130090,0,0,-1080181,2101121,0,0,0,0
13,281,731.325517204823,1,0,38293.8714263377,38294.9184724168,0,0,12,0,1,9,3,4120170,2060120,3151031,1200010,0,0,0,0,0,0,0,0,-4120170,0,2060120,0,0,0,0,0,0,0,0,0,3151031,0,0,0,0,0,0,0,0,0,0,1200010,0,0,0,0
13,282,906.378815052449,0,0,38296.7655108736,38297.8125577226,0,0,12,0,0,17,3,0,1110131,5170271,1080100,0,0,0,0,0,0,0,0,0,0,0,0,0,0,0,0,-1110131,0,4020181,0,0,0,0,1150090,0,0,0,0,0,0,1080100,0,0,0,0,0
13,283,1515.43864029372,0,0,38299.8243067311,38300.8713478057,0,0,12,0,0,25,7,2120121,7340201,14432322,3111041,0,0,0,2120121,0,0,0,0,0,3170071,0,0,0,0,4170130,0,0,0,0,0,0,2080170,0,4191011,-4071071,0,4090070,0,0,0,0,3111041,0,0,0,0
13,284,592.437761813926,1,0,38303.4242629996,38304.4713021493,0,0,12,1,1,11,3,0,4111101,1061050,7290372,0,0,0,0,0,0,0,0,0,0,-4111101,0,0,0,0,0,0,0,0,0,0,0,0,0,0,1061050,0,0,0,0,4200171,3090201,0,0,0,0
13,285,1066.20998656581,1,0,38306.1065839754,38307.1536277447,0,0,12,0,1,30,7,1171090,2101021,2120010,14732471,0,0,0,0,1171090,0,0,0,0,2101021,0,0,0,0,0,0,0,0,0,0,2120010,0,0,0,0,0,0,0,4160080,-1151140,4161050,4080110,0,1180091,0,0
13,286,1490.32994656591,1,0,38309.3653759063,38310.4124150561,0,0,12,0,1,1,7,1121041,8111300,5392382,7202101,-1121041,0,0,0,0,0,0,0,0,0,0,4040180,4071120,0,0,0,0,0,1151160,3151061,1090161,0,0,0,0,0,0,0,0,3021090,0,0,0,0,0,4181011
13,287,1041.32341531658,0,0,38312.9182706972,38313.9653175462,0,0,12,1,0,27,3,0,4120010,3030031,7170131,0,0,0,0,0,0,0,0,0,0,0,0,0,0,4120010,0,0,0,0,0,0,0,0,0,0,0,-3030031,3060121,0,0,0,0,4110010,0,0,0
13,288,808.050546518643,0,0,38316.1535330443,38317.2005737339,0,0,12,1,0,12,7,7220140,6191242,3111201,8191250,0,0,0,0,0,4200030,0,0,3020110,0,0,-2110081,2041141,0,0,0,2040020,0,0,0,0,0,0,0,0,0,3111201,0,0,0,4071050,0,4120200,0,0,0
13,289,726.210540917236,1,0,38328.765162099,38329.8122054833,0,0,13,1,1,12,7,7220140,6191242,3111201,8191250,0,0,0,0,0,4200030,0,0,3020110,0,0,-2110081,2041141,0,0,0,2040020,0,0,0,0,0,0,0,0,0,3111201,0,0,0,4071050,0,4120200,0,0,0
13,290,1296.63452921523,0,0,38331.7298330767,38332.7768718415,0,0,13,1,0,27,3,0,4120010,3030031,7170131,0,0,0,0,0,0,0,0,0,0,0,0,0,0,4120010,0,0,0,0,0,0,0,0,0,0,0,-3030031,3060121,0,0,0,0,4110010,0,0,0
13,291,1280.04117195087,1,0,38335.2003777888,38336.2474273325,0,0,13,0,1,13,7,2131060,11463412,5211080,3201230,0,0,2131060,0,0,0,0,0,0,3201190,0,0,-4181121,4081101,0,0,0,0,0,0,3201060,0,0,2010020,0,0,0,0,2010200,0,0,0,0,0,0,1191030
13,292,922.038257027452,0,0,38338.6474013861,38339.6944382261,0,0,13,1,0,24,3,0,2110111,3221301,3021071,0,0,0,0,0,0,0,0,0,0,0,0,0,0,0,2110111,0,0,0,2141171,0,0,0,-1080130,0,0,0,0,0,0,3021071,0,0,0,0,0
13,293,870.689084345941,1,0,38341.6356077221,38342.6826511064,0,0,13,0,1,1,3,6102281,0,3360291,0,-3041101,0,0,0,0,0,0,3061180,0,0,0,0,0,0,0,0,0,0,0,0,0,0,2190111,0,0,0,1170180,0,0,0,0,0,0,0,0,0
13,294,935.393707652111,0,0,38344.6708639868,38345.7179069861,0,0,13,1,0,35,3,0,2131090,1091061,5100101,0,0,0,0,0,0,0,0,0,2131090,0,0,0,0,0,0,0,0,0,0,0,0,0,0,0,1091061,0,1050011,0,0,0,0,0,0,-4050090,0
13,295,538.31148075551,1,0,38347.8120118479,38348.8590475331,0,0,13,0,1,17,3,2201170,1041101,0,5281291,0,0,0,0,0,0,2201170,0,0,0,0,0,0,0,0,0,-1041101,0,0,0,0,0,0,0,0,0,0,0,0,4141120,0,0,1140171,0,0,0
13,296,936.341096574324,1,0,38350.5060956909,38351.5531356106,0,0,13,1,1,19,3,0,3211191,5230221,0,0,0,0,0,0,0,0,0,0,0,1060160,0,2151031,0,0,0,0,0,-3080030,0,0,2150191,0,0,0,0,0,0,0,0,0,0,0,0,0,0
13,297,705.454985734832,0,0,38353.67078276,38354.7178107459,0,0,13,0,0,6,7,4301150,5570302,1051171,4292292,0,0,0,0,0,-3170090,1131060,0,0,0,1200051,0,0,1180090,0,0,0,3190161,0,0,0,1051171,0,0,0,0,0,2171101,0,0,0,0,0,0,0,2121191
13,298,911.295536447142,1,0,38356.6119087554,38357.6589509849,0,0,13,0,1,25,3,0,3032081,3160030,2180131,0,0,0,0,0,0,0,0,0,0,0,2011051,0,1021030,0,0,0,0,0,0,0,0,0,0,-3160030,0,0,0,0,0,0,0,0,2180131,0,0
13,299,795.13972580753,0,0,38359.6001120117,38360.647155396,0,0,13,1,0,7,3,2171190,4361381,4090111,0,0,0,0,0,0,0,-2171190,0,0,1170181,0,0,3191200,0,0,0,0,0,0,0,4090111,0,0,0,0,0,0,0,0,0,0,0,0,0,0,0
13,300,561.031876677589,0,0,38362.6471346082,38363.6941745278,0,0,13,0,0,21,3,0,0,8182131,7131281,0,0,0,0,0,0,0,0,0,0,0,0,0,0,0,0,0,0,0,0,-4031051,0,4151080,0,0,0,0,0,0,0,4041171,0,3090110,0,0,0
13,301,528.632407316763,1,0,38365.4235708398,38366.470614609,0,0,13,0,1,9,7,4050061,4361390,5552392,3161221,0,0,0,0,0,0,0,0,-4050061,0,1160200,0,0,0,3201190,0,0,0,0,0,0,0,0,1151101,2201191,0,2200100,2070161,0,0,1091060,0,0,0,0,0
13,302,1465.51844270289,0,0,38368.1764905762,38369.2235266462,0,0,13,0,0,29,7,6201250,0,14212513,6231280,4081060,0,0,2120190,0,0,0,0,0,0,0,0,0,0,0,0,0,0,0,4121200,2010011,0,4071191,0,4010111,0,0,0,-3091170,0,0,0,0,0,3140110,0
13,303,1136.41108247248,0,0,38371.8117431452,38372.8587803702,0,0,13,0,0,30,7,2171190,3190201,4350161,7392481,0,0,0,0,1140050,0,1031140,0,0,0,0,0,0,3190201,0,0,0,0,0,3170061,1180100,0,0,0,0,0,0,0,0,-3111120,0,3160190,1121171,0,0,0
13,304,678.57239190198,1,0,38375.0822917839,38376.1293909875,0,0,13,1,1,5,7,1010020,8332351,6061062,6211342,0,0,0,0,-1010020,0,0,0,0,4150160,0,0,0,0,0,2101051,2081140,0,4050031,0,0,0,0,0,0,0,2011031,0,0,0,0,4070141,0,2141201,0,0
13,305,1677.55724984454,0,0,38377.9175546699,38378.9645980542,0,0,13,1,0,33,7,5172240,8361171,5241291,7181281,1011150,0,0,0,0,0,0,0,4161090,0,0,0,0,0,4160080,0,0,4201091,0,0,4070180,0,1171111,0,0,0,0,0,0,0,0,4041101,-3140180,0,0,0
13,306,1400.10741603328,0,0,38381.6939816624,38382.7410200422,0,0,13,1,0,31,7,4010120,2190171,5251231,7311392,0,4010120,0,0,0,0,0,0,0,0,1120130,0,0,0,1070041,0,0,0,4061051,0,1190180,0,0,0,0,0,0,4130090,0,0,-1080181,2101121,0,0,0,0
13,307,697.911675699288,1,0,38385.3409967136,38386.3880377882,0,0,13,1,1,11,3,0,4111101,1061050,7290372,0,0,0,0,0,0,0,0,0,0,-4111101,0,0,0,0,0,0,0,0,0,0,0,0,0,0,1061050,0,0,0,0,4200171,3090201,0,0,0,0
13,308,845.859102351824,0,0,38388.2821458067,38389.3291903459,0,0,13,1,0,10,7,7231353,6291140,3040141,1081181,2090050,0,0,1070151,0,1050071,3021081,0,0,-3131010,0,0,0,0,0,0,3160130,0,0,3040141,0,0,0,0,0,0,0,0,0,0,1081181,0,0,0,0,0
13,309,1275.23685915367,0,0,38391.3056392042,38392.3526806637,0,0,13,1,0,26,7,7231200,10471323,4040101,3030060,0,0,0,4100050,0,3131150,0,0,0,0,0,0,1150041,0,3180160,4101081,2040041,0,0,0,0,0,0,0,0,-4040101,0,0,0,0,0,0,0,3030060,0,0
13,310,1027.07062069385,1,0,38394.74089416,38395.7879321549,0,0,13,0,1,15,3,3111231,6212282,0,0,0,0,0,0,1091150,0,2020081,0,0,0,0,0,3031121,0,-3181161,0,0,0,0,0,0,0,0,0,0,0,0,0,0,0,0,0,0,0,0,0
13,311,1086.42197687004,1,0,38397.9173302376,38398.9643770866,0,0,13,0,1,16,7,0,13572232,6332262,3291270,0,0,0,0,0,0,0,0,0,0,0,0,0,2141010,3090050,-4171161,0,4170011,0,0,0,0,2151081,0,4181181,0,0,0,0,0,0,0,1090170,0,2201100,0
13,312,1080.99595212116,0,0,38401.0937667002,38402.1408023853,0,0,13,0,0,32,3,3201041,3100141,1131071,2170170,0,0,0,0,0,0,0,0,3201041,0,0,0,0,0,3100141,0,0,0,0,1131071,0,0,0,0,0,0,0,0,0,0,0,-2170170,0,0,0,0
13,313,772.003187077644,1,0,38407.387812971,38408.4348525057,0,0,14,1,1,10,7,7231353,6291140,3040141,1081181,2090050,0,0,1070151,0,1050071,3021081,0,0,-3131010,0,0,0,0,0,0,3160130,0,0,3040141,0,0,0,0,0,0,0,0,0,0,1081181,0,0,0,0,0
13,314,1064.66629311763,0,0,38410.3171876481,38411.3642321873,0,0,14,1,0,19,3,0,3211191,5230221,0,0,0,0,0,0,0,0,0,0,0,1060160,0,2151031,0,0,0,0,0,-3080030,0,0,2150191,0,0,0,0,0,0,0,0,0,0,0,0,0,0
13,315,740.56150058459,0,0,38413.5759911278,38414.6230237332,0,0,14,0,0,15,7,3331141,3090031,9221342,2300230,1200130,0,0,0,0,0,0,2131011,0,0,0,0,0,0,-3090031,0,0,0,0,0,4020041,0,0,2150180,0,0,3051121,1100140,0,0,0,1200090,0,0,0,0
13,316,602.748941157188,0,0,38416.5288865347,38417.5759337686,0,0,14,1,0,11,3,0,4111101,1061050,7290372,0,0,0,0,0,0,0,0,0,0,-4111101,0,0,0,0,0,0,0,0,0,0,0,0,0,0,1061050,0,0,0,0,4200171,3090201,0,0,0,0
13,317,524.449036551232,0,0,38419.364146726,38420.41119242,0,0,14,0,0,17,3,3051060,4202131,4040021,0,0,0,3051060,0,0,0,0,0,0,0,0,0,0,2031061,0,0,-2171070,0,0,4040021,0,0,0,0,0,0,0,0,0,0,0,0,0,0,0,0
13,318,859.923266107216,1,0,38422.1405956613,38423.1876321163,0,0,14,0,1,6,3,3160070,6302041,0,4051190,0,0,0,0,0,-3160070,0,0,0,0,0,3131011,0,0,0,0,0,3171030,0,0,0,0,0,0,0,0,0,0,4051190,0,0,0,0,0,0,0
13,319,738.704833864176,1,0,38425.0817347454,38426.1287854439,0,0,14,0,1,16,7,4150370,2111070,4101251,9392193,2110200,2040170,0,0,0,0,0,0,0,0,0,0,0,0,0,-2111070,0,0,0,0,0,3070161,0,0,1031090,0,0,3151051,0,3171061,0,0,0,3070081,0,0
13,320,881.575780324056,1,0,38428.0228865332,38429.0699187536,0,0,14,1,1,35,3,0,2131090,1091061,5100101,0,0,0,0,0,0,0,0,0,2131090,0,0,0,0,0,0,0,0,0,0,0,0,0,0,0,1091061,0,1050011,0,0,0,0,0,0,-4050090,0
13,321,1150.2758364586,0,0,38430.9993157585,38432.046357218,0,0,14,0,0,32,3,8321151,0,4180041,3120071,0,0,0,4181011,0,0,0,4140140,0,0,0,0,0,0,0,0,0,0,0,4180041,0,0,0,0,0,0,0,0,0,0,0,-3120071,0,0,0,0
13,322,1478.15979074221,0,0,38434.3051672421,38435.3522033121,0,0,14,0,0,1,3,4150181,0,0,6481460,-4150181,0,0,0,0,0,0,0,0,0,0,0,0,0,0,0,0,0,0,0,0,0,0,0,0,0,0,0,1160160,1170190,0,0,4151110,0,0,0
13,323,693.649772896606,0,0,38437.9168852227,38438.9639259124,0,0,14,1,0,24,3,0,2110111,3221301,3021071,0,0,0,0,0,0,0,0,0,0,0,0,0,0,0,2110111,0,0,0,2141171,0,0,0,-1080130,0,0,0,0,0,0,3021071,0,0,0,0,0
13,324,1028.92112803238,1,0,38440.6815651316,38441.728636618,0,0,14,0,1,30,7,8211140,5060220,4111061,8322161,4130020,0,0,0,0,0,0,4081120,0,0,0,0,0,2050160,0,3010060,0,0,0,0,0,0,0,4111061,0,0,0,0,0,-4151040,0,0,0,2090021,0,2081100
13,325,1166.44419682416,0,0,38443.9168170847,38444.9638593141,0,0,14,1,0,33,7,5172240,8361171,5241291,7181281,1011150,0,0,0,0,0,0,0,4161090,0,0,0,0,0,4160080,0,0,4201091,0,0,4070180,0,1171111,0,0,0,0,0,0,0,0,4041101,-3140180,0,0,0
13,326,1227.09479623882,0,0,38447.1403130999,38448.187349555,0,0,14,1,0,5,7,1010020,8332351,6061062,6211342,0,0,0,0,-1010020,0,0,0,0,4150160,0,0,0,0,0,2101051,2081140,0,4050031,0,0,0,0,0,0,0,2011031,0,0,0,0,4070141,0,2141201,0,0
13,327,1348.44527008681,1,0,38450.610867051,38451.6579019662,0,0,14,1,1,31,7,4010120,2190171,5251231,7311392,0,4010120,0,0,0,0,0,0,0,0,1120130,0,0,0,1070041,0,0,0,4061051,0,1190180,0,0,0,0,0,0,4130090,0,0,-1080181,2101121,0,0,0,0
13,328,691.737671804731,1,0,38454.1755343331,38455.2225757927,0,0,14,0,1,21,3,0,4361251,3180150,2121120,0,0,0,0,0,0,0,0,0,0,0,3180050,0,0,0,1181201,0,0,0,0,-3180150,0,0,0,0,0,0,0,0,0,0,0,2121120,0,0,0
13,329,812.048751060502,1,0,38457.0460885152,38458.0931284349,0,0,14,1,1,12,7,7220140,6191242,3111201,8191250,0,0,0,0,0,4200030,0,0,3020110,0,0,-2110081,2041141,0,0,0,2040020,0,0,0,0,0,0,0,0,0,3111201,0,0,0,4071050,0,4120200,0,0,0
13,330,1269.1386925726,0,0,38459.940173821,38460.9872102761,0,0,14,1,0,26,7,7231200,10471323,4040101,3030060,0,0,0,4100050,0,3131150,0,0,0,0,0,0,1150041,0,3180160,4101081,2040041,0,0,0,0,0,0,0,0,-4040101,0,0,0,0,0,0,0,3030060,0,0
13,331,634.017395219416,0,0,38463.3401332462,38464.3871754756,0,0,14,0,0,29,7,3050141,6532502,4180130,4231230,0,0,3050141,0,0,0,0,0,0,2081111,1090181,2160060,0,0,0,1201150,0,0,4180130,0,0,0,0,0,0,0,0,0,-1160130,0,3071100,0,0,0,0,0
13,332,1210.05565417727,1,0,38466.0459811111,38467.0930221857,0,0,14,0,1,25,7,4181151,10322362,5190331,4011021,0,0,3070060,0,0,0,0,0,1111091,0,0,4011171,0,3171180,0,0,0,3140011,0,0,0,0,2160181,0,-3030150,0,0,0,0,0,0,0,0,0,4011021,0
13,333,870.471581401944,1,0,38469.363593922,38470.4106388462,0,0,14,0,1,9,3,7421341,3150011,0,0,0,2120060,0,0,0,0,0,3160201,-2141080,0,3150011,0,0,0,0,0,0,0,0,0,0,0,0,0,0,0,0,0,0,0,0,0,0,0,0,0
13,334,1305.21761880664,0,0,38472.2929685991,38473.3400142932,0,0,14,1,0,7,3,2171190,4361381,4090111,0,0,0,0,0,0,0,-2171190,0,0,1170181,0,0,3191200,0,0,0,0,0,0,0,4090111,0,0,0,0,0,0,0,0,0,0,0,0,0,0,0
13,335,1598.89779170044,1,0,38475.834110147,38476.8811620004,0,0,14,0,1,13,7,2051061,6332071,8261221,7473220,0,0,0,2051061,0,0,0,0,0,0,0,0,-4151020,0,0,0,0,2181051,0,4160050,0,0,0,0,0,4101171,0,0,1101010,0,0,0,2191050,0,0,4181160
13,336,955.375491299492,1,0,38479.610541759,38480.6575793689,0,0,14,1,1,27,3,0,4120010,3030031,7170131,0,0,0,0,0,0,0,0,0,0,0,0,0,0,4120010,0,0,0,0,0,0,0,0,0,0,0,-3030031,3060121,0,0,0,0,4110010,0,0,0
13,337,848.045295650081,0,0,38485.8339892692,38486.8810368881,0,0,15,1,0,24,3,0,2110111,3221301,3021071,0,0,0,0,0,0,0,0,0,0,0,0,0,0,0,2110111,0,0,0,2141171,0,0,0,-1080130,0,0,0,0,0,0,3021071,0,0,0,0,0
13,338,631.698775352561,1,0,38488.8222063841,38489.8692428392,0,0,15,1,1,12,7,7220140,6191242,3111201,8191250,0,0,0,0,0,4200030,0,0,3020110,0,0,-2110081,2041141,0,0,0,2040020,0,0,0,0,0,0,0,0,0,3111201,0,0,0,4071050,0,4120200,0,0,0
13,339,1037.19586389343,1,0,38491.6457040932,38492.6927397783,0,0,15,0,1,6,7,1131111,4120110,5372052,8271461,0,0,0,0,0,-1131111,0,0,0,2010020,0,0,0,2110090,0,0,0,0,0,0,0,0,0,2191031,0,0,3181021,0,0,3131080,0,2080200,0,3060181,0,0
13,340,939.56745439209,0,0,38494.8692297505,38495.9162342538,0,0,15,0,0,17,3,3242141,2050191,0,3010101,0,0,1071080,0,2171061,0,0,0,0,0,0,0,0,0,0,0,-2050191,0,0,0,0,0,0,0,0,0,0,0,0,0,0,0,0,3010101,0,0
13,341,1324.64428874664,0,0,38497.8692043431,38498.9161999922,0,0,15,1,0,19,3,0,3211191,5230221,0,0,0,0,0,0,0,0,0,0,0,1060160,0,2151031,0,0,0,0,0,-3080030,0,0,2150191,0,0,0,0,0,0,0,0,0,0,0,0,0,0
13,342,1198.76628903148,1,0,38501.3279449972,38502.374983377,0,0,15,1,1,7,3,2171190,4361381,4090111,0,0,0,0,0,0,0,-2171190,0,0,1170181,0,0,3191200,0,0,0,0,0,0,0,4090111,0,0,0,0,0,0,0,0,0,0,0,0,0,0,0
13,343,748.734221793711,0,0,38504.7279055772,38505.7749474217,0,0,15,0,0,9,3,6121082,0,1181141,4200161,0,0,0,0,0,0,0,3051051,-3070031,0,0,0,0,0,0,0,0,0,0,0,0,0,1181141,0,0,0,0,0,4200161,0,0,0,0,0,0,0
13,344,783.056956119253,0,0,38507.5396438838,38508.5866776441,0,0,15,1,0,27,3,0,4120010,3030031,7170131,0,0,0,0,0,0,0,0,0,0,0,0,0,0,4120010,0,0,0,0,0,0,0,0,0,0,0,-3030031,3060121,0,0,0,0,4110010,0,0,0
13,345,632.281606252945,1,0,38510.3984348138,38511.4454720388,0,0,15,0,1,16,3,0,1191161,0,10482461,0,0,0,0,0,0,0,0,0,0,0,0,0,0,0,-1191161,0,0,0,0,0,0,0,0,0,0,0,2100201,0,4181130,0,0,4201130,0,0,0
13,346,1001.97155099158,0,0,38513.2336930803,38514.2807329999,0,0,15,1,0,33,7,5172240,8361171,5241291,7181281,1011150,0,0,0,0,0,0,0,4161090,0,0,0,0,0,4160080,0,0,4201091,0,0,4070180,0,1171111,0,0,0,0,0,0,0,0,4041101,-3140180,0,0,0
13,347,1459.04917374719,0,0,38516.4924838563,38517.5395191564,0,0,15,1,0,31,7,4010120,2190171,5251231,7311392,0,4010120,0,0,0,0,0,0,0,0,1120130,0,0,0,1070041,0,0,0,4061051,0,1190180,0,0,0,0,0,0,4130090,0,0,-1080181,2101121,0,0,0,0
13,348,1227.89628496685,1,0,38520.1277356554,38521.1748337042,0,0,15,0,1,29,7,4121181,8293371,1021111,7431270,0,0,0,4121181,0,0,0,0,0,0,4011150,0,0,0,0,1201071,3081150,0,0,0,0,0,1021111,0,0,0,0,0,-3071150,0,3180110,0,1180010,0,0,0
13,349,1029.19175558782,0,0,38523.4923864612,38524.5394440891,0,0,15,0,0,21,7,2141081,6101252,11540402,1151150,0,0,0,0,2141081,0,0,0,0,3070121,0,0,0,0,0,0,0,3031131,0,2150060,-2150160,0,0,0,4040141,3200041,0,0,0,0,0,1151150,0,0,0,0
13,350,1208.84264219058,1,0,38526.6217887785,38527.6688263884,0,0,15,0,1,30,3,2171130,2031020,2031121,3080140,0,0,2171130,0,0,0,0,0,0,0,0,2031020,0,0,0,0,0,0,0,0,2031121,0,0,0,0,0,0,0,0,-3080140,0,0,0,0,0,0
13,351,573.232059461589,0,0,38529.9393838812,38530.9864299602,0,0,15,1,0,10,7,7231353,6291140,3040141,1081181,2090050,0,0,1070151,0,1050071,3021081,0,0,-3131010,0,0,0,0,0,0,3160130,0,0,3040141,0,0,0,0,0,0,0,0,0,0,1081181,0,0,0,0,0
13,352,1240.34091795329,1,0,38532.751120263,38533.7981698067,0,0,15,0,1,32,3,3110101,2090060,3091120,3090090,0,0,0,0,0,3110101,0,0,0,0,0,0,0,0,2090060,0,0,0,0,0,0,0,0,0,3091120,0,0,0,0,0,0,-3090090,0,0,0,0
13,353,503.312370019557,1,0,38536.1040255248,38537.1510689092,0,0,15,1,1,11,3,0,4111101,1061050,7290372,0,0,0,0,0,0,0,0,0,0,-4111101,0,0,0,0,0,0,0,0,0,0,0,0,0,0,1061050,0,0,0,0,4200171,3090201,0,0,0,0
13,354,845.649298629723,1,0,38538.6687066655,38539.7157504348,0,0,15,0,1,13,7,3212191,10503423,3181080,4140060,0,1141090,0,0,0,0,0,2071101,0,1151140,0,4011121,-2190021,0,3151141,0,0,0,0,0,0,3181080,0,0,0,0,0,0,0,0,0,0,0,0,0,4140060
13,355,1020.58171873068,0,0,38541.7157769971,38542.7627695666,0,0,15,0,0,25,7,3040130,2080041,4352412,7171282,0,0,0,0,0,3040130,0,0,0,0,2080041,0,0,0,0,0,0,0,0,1111160,0,0,2161171,0,-1080081,0,0,0,3110100,0,3011091,0,0,0,1050091,0
13,356,696.239790253458,1,0,38544.7980446944,38545.8450888486,0,0,15,1,1,5,7,1010020,8332351,6061062,6211342,0,0,0,0,-1010020,0,0,0,0,4150160,0,0,0,0,0,2101051,2081140,0,4050031,0,0,0,0,0,0,0,2011031,0,0,0,0,4070141,0,2141201,0,0
13,357,1137.97633374634,0,0,38547.5862461029,38548.6332864075,0,0,15,1,0,26,7,7231200,10471323,4040101,3030060,0,0,0,4100050,0,3131150,0,0,0,0,0,0,1150041,0,3180160,4101081,2040041,0,0,0,0,0,0,0,0,-4040101,0,0,0,0,0,0,0,3030060,0,0
13,358,782.083389844047,1,0,38550.9391567542,38551.9861920543,0,0,15,0,1,15,7,5223243,3090070,8492231,1200030,0,0,2071061,0,0,0,0,1091111,2061071,0,0,0,0,0,-3090070,0,0,0,0,0,0,0,1131080,0,4180071,0,3181080,0,0,0,0,0,0,0,0,1200030
13,359,673.544801749813,1,0,38553.9626516916,38555.0096889165,0,0,15,1,1,35,3,0,2131090,1091061,5100101,0,0,0,0,0,0,0,0,0,2131090,0,0,0,0,0,0,0,0,0,0,0,0,0,0,0,1091061,0,1050011,0,0,0,0,0,0,-4050090,0
13,360,700.346938741859,1,0,38556.7979080332,38557.8449514176,0,0,15,0,1,1,3,2041091,3171200,4192271,0,-2041091,0,0,0,0,0,0,0,0,0,0,0,0,0,3171200,0,0,0,0,0,3171200,0,0,0,0,0,1021071,0,0,0,0,0,0,0,0,0
13,361,672.822999942582,0,0,38564.221409361,38565.2684073199,0,0,16,0,0,17,7,9271433,1070161,4090200,4091171,2010151,3070191,2070011,0,2121080,0,0,0,0,0,0,0,0,0,0,0,-1070161,0,0,0,0,0,2070010,2020190,0,0,0,0,0,0,4091171,0,0,0,0,0
13,362,547.660257696407,1,0,38567.0683850691,38568.115433458,0,0,16,1,1,10,7,7231353,6291140,3040141,1081181,2090050,0,0,1070151,0,1050071,3021081,0,0,-3131010,0,0,0,0,0,0,3160130,0,0,3040141,0,0,0,0,0,0,0,0,0,0,1081181,0,0,0,0,0
13,363,748.771178041352,1,0,38569.7154763426,38570.7624562084,0,0,16,1,1,7,3,2171190,4361381,4090111,0,0,0,0,0,0,0,-2171190,0,0,1170181,0,0,3191200,0,0,0,0,0,0,0,4090111,0,0,0,0,0,0,0,0,0,0,0,0,0,0,0
13,364,1030.09217928047,1,0,38572.538911688,38573.5859543024,0,0,16,0,1,6,7,14661444,0,4021180,6270141,0,2161051,4120081,0,0,-2200061,0,3090080,3090171,0,0,0,0,0,0,0,0,0,0,0,0,0,0,4021180,0,0,0,0,4200080,0,0,0,0,0,2070061,0
13,365,835.587958950782,0,0,38575.7153558498,38576.7624169424,0,0,16,0,0,32,3,3140091,4090171,1191091,1141150,0,0,0,0,0,3140091,0,0,0,0,0,0,0,0,0,4090171,0,0,0,0,0,0,1191091,0,0,0,0,0,0,0,0,-1141150,0,0,0,0
13,366,771.107767890499,0,0,38578.7388403933,38579.7858845475,0,0,16,0,0,30,7,1020101,6200131,0,13432422,0,0,0,0,0,0,0,0,1020101,0,0,0,0,0,0,0,4170110,2030021,0,0,0,0,0,0,0,0,0,1030051,0,-3041180,2190020,0,4020050,0,3151121,0
13,367,716.264689523086,0,0,38581.5976347879,38582.644671243,0,0,16,0,0,15,3,9330351,3131110,0,0,0,0,0,0,3070170,3070171,3190010,0,0,0,0,0,0,0,-3131110,0,0,0,0,0,0,0,0,0,0,0,0,0,0,0,0,0,0,0,0,0
13,368,649.629102037579,0,0,38584.4093696299,38585.4564068549,0,0,16,1,0,24,3,0,2110111,3221301,3021071,0,0,0,0,0,0,0,0,0,0,0,0,0,0,0,2110111,0,0,0,2141171,0,0,0,-1080130,0,0,0,0,0,0,3021071,0,0,0,0,0
13,369,1301.1131650419,1,0,38587.1387466938,38588.1857896931,0,0,16,1,1,31,7,4010120,2190171,5251231,7311392,0,4010120,0,0,0,0,0,0,0,0,1120130,0,0,0,1070041,0,0,0,4061051,0,1190180,0,0,0,0,0,0,4130090,0,0,-1080181,2101121,0,0,0,0
13,370,1038.12939422642,0,0,38590.5387091986,38591.5857471935,0,0,16,1,0,19,3,0,3211191,5230221,0,0,0,0,0,0,0,0,0,0,0,1060160,0,2151031,0,0,0,0,0,-3080030,0,0,2150191,0,0,0,0,0,0,0,0,0,0,0,0,0,0
13,371,493.965517882316,1,0,38593.7269323959,38594.7739472931,0,0,16,0,1,9,3,8442491,0,0,1070041,0,2121200,0,0,0,0,3190180,0,-3131111,0,0,0,0,0,0,0,0,0,0,0,0,0,0,0,0,0,0,0,0,0,0,0,0,0,0,1070041
13,372,545.037133706501,0,0,38596.3268836598,38597.3739162652,0,0,16,1,0,11,3,0,4111101,1061050,7290372,0,0,0,0,0,0,0,0,0,0,-4111101,0,0,0,0,0,0,0,0,0,0,0,0,0,0,1061050,0,0,0,0,4200171,3090201,0,0,0,0
13,373,962.364842511306,0,0,38598.9974398437,38600.0444801483,0,0,16,1,0,5,7,1010020,8332351,6061062,6211342,0,0,0,0,-1010020,0,0,0,0,4150160,0,0,0,0,0,2101051,2081140,0,4050031,0,0,0,0,0,0,0,2011031,0,0,0,0,4070141,0,2141201,0,0
13,374,882.410375692416,1,0,38602.197397806,38603.2444411903,0,0,16,1,1,27,3,0,4120010,3030031,7170131,0,0,0,0,0,0,0,0,0,0,0,0,0,0,4120010,0,0,0,0,0,0,0,0,0,0,0,-3030031,3060121,0,0,0,0,4110010,0,0,0
13,375,919.531006285979,1,0,38605.3032532162,38606.3502923659,0,0,16,1,1,35,3,0,2131090,1091061,5100101,0,0,0,0,0,0,0,0,0,2131090,0,0,0,0,0,0,0,0,0,0,0,0,0,0,0,1091061,0,1050011,0,0,0,0,0,0,-4050090,0
13,376,431.315046269447,1,0,38608.4443906834,38609.4914332978,0,0,16,0,1,16,3,5191281,2071161,0,4120011,0,0,0,3060081,0,0,2131200,0,0,0,0,0,0,0,0,-2071161,0,0,0,0,0,0,0,0,0,0,0,0,0,0,0,0,0,4120011,0,0
13,377,1201.57265444141,0,0,38610.9620692456,38612.0090995413,0,0,16,0,0,29,7,0,3190100,3281312,9531501,0,0,0,0,0,0,0,0,0,2090070,0,0,0,0,0,1100030,0,0,1200100,0,0,0,0,0,0,1031191,1050021,0,-4190140,3161190,0,0,0,0,2180171,0
13,378,1444.8656720997,1,0,38614.2678572107,38615.3149044446,0,0,16,1,1,33,7,5172240,8361171,5241291,7181281,1011150,0,0,0,0,0,0,0,4161090,0,0,0,0,0,4160080,0,0,4201091,0,0,4070180,0,1171111,0,0,0,0,0,0,0,0,4041101,-3140180,0,0,0
13,379,784.246485491167,0,0,38617.7854580108,38618.8325010101,0,0,16,0,0,13,7,8350151,5311362,4101200,4142301,0,0,4190060,4160091,0,0,0,0,0,0,0,1061150,-2160021,0,0,0,2090191,0,0,0,4101200,0,0,0,0,0,0,0,0,0,0,0,0,2081170,2061131,0
13,380,1049.19009255536,1,0,38620.6913111882,38621.7383526477,0,0,16,1,1,26,7,7231200,10471323,4040101,3030060,0,0,0,4100050,0,3131150,0,0,0,0,0,0,1150041,0,3180160,4101081,2040041,0,0,0,0,0,0,0,0,-4040101,0,0,0,0,0,0,0,3030060,0,0
13,381,1143.37887587317,0,0,38623.9971545876,38625.0441956622,0,0,16,0,0,1,3,2201161,0,3080110,2212320,-2201161,0,0,0,0,0,0,0,0,0,0,0,0,0,0,0,0,0,0,0,0,3080110,0,0,0,0,0,1191150,0,0,0,0,0,1021170,0,0
13,382,712.695716458256,1,0,38627.2677744441,38628.3147916511,0,0,16,1,1,12,7,7220140,6191242,3111201,8191250,0,0,0,0,0,4200030,0,0,3020110,0,0,-2110081,2041141,0,0,0,2040020,0,0,0,0,0,0,0,0,0,3111201,0,0,0,4071050,0,4120200,0,0,0
13,383,763.179111927457,0,0,38630.079440378,38631.1264814526,0,0,16,0,0,21,3,1040140,0,3100110,6171231,0,0,0,0,0,0,0,1040140,0,0,0,0,0,0,0,0,0,0,0,0,-3100110,0,0,0,0,0,0,0,4160081,0,0,0,0,2011150,0,0
13,384,1027.13721893815,1,0,38632.9382332328,38633.9852793119,0,0,16,0,1,25,7,7410352,12381502,4100201,0,0,0,0,0,0,3120161,3180121,1110070,0,3060061,0,2050110,0,4120171,3151160,0,0,0,0,0,0,0,0,0,-4100201,0,0,0,0,0,0,0,0,0,0,0
13,385,647.420965964557,0,0,38641.0910738983,38642.1381222871,0,0,17,1,0,10,7,7231353,6291140,3040141,1081181,2090050,0,0,1070151,0,1050071,3021081,0,0,-3131010,0,0,0,0,0,0,3160130,0,0,3040141,0,0,0,0,0,0,0,0,0,0,1081181,0,0,0,0,0
13,386,630.108116660267,0,0,38643.8322246082,38644.8792656827,0,0,17,0,0,9,7,5362262,5282401,5132362,0,0,0,0,0,0,2130091,1191020,0,-2041151,0,1151201,1071110,0,0,0,0,0,3060090,0,3101201,0,0,2031161,0,0,0,0,0,0,0,0,0,0,0,0,0
13,387,1729.59126807109,1,0,38646.5616159156,38647.608707805,0,0,17,0,1,1,7,11502491,4081091,6220191,2170021,-3070120,0,0,3200111,0,3061180,0,0,2171080,0,0,0,4081091,0,0,0,0,0,0,0,3130081,0,0,0,3090110,0,0,0,0,0,0,2170021,0,0,0,0
13,388,534.817575076886,1,0,38650.3615663326,38651.4086659213,0,0,17,0,1,16,3,4181181,6231310,0,2101091,4181181,0,0,0,0,0,0,0,0,0,0,4131120,0,0,0,-2100190,0,0,0,0,0,0,0,0,0,0,0,0,0,0,0,0,0,0,2101091,0
13,389,1410.61608034943,1,0,38652.9615453138,38654.008638743,0,0,17,0,1,25,7,7131201,4192091,10261131,2070061,0,0,3050051,4081150,0,0,0,0,0,1131021,0,0,0,0,0,0,3061070,0,0,0,0,4131040,0,0,-4080050,2050041,0,0,0,2070061,0,0,0,0,0,0
13,390,782.382889476139,0,0,38656.4438490433,38657.4908866533,0,0,17,0,0,6,3,4362151,0,3080190,4021161,0,0,0,1201091,0,-3161060,0,0,0,0,0,0,0,0,0,0,0,0,0,0,0,0,0,0,0,0,3080190,0,0,0,0,0,0,4021161,0,0
13,391,660.20975405263,1,0,38659.2791126993,38660.326151849,0,0,17,1,1,7,3,2171190,4361381,4090111,0,0,0,0,0,0,0,-2171190,0,0,1170181,0,0,3191200,0,0,0,0,0,0,0,4090111,0,0,0,0,0,0,0,0,0,0,0,0,0,0,0
13,392,1438.96653032425,1,0,38662.1261388373,38663.1731760623,0,0,17,0,1,15,7,12402552,3201040,1140040,3051090,0,0,1020140,1060030,3130201,4051070,3141111,0,0,0,0,0,0,0,-3201040,0,0,0,0,0,0,1140040,0,0,0,0,0,0,0,0,0,0,3051090,0,0,0
13,393,956.265521039313,1,0,38665.6908038097,38666.7378464241,0,0,17,1,1,26,7,7231200,10471323,4040101,3030060,0,0,0,4100050,0,3131150,0,0,0,0,0,0,1150041,0,3180160,4101081,2040041,0,0,0,0,0,0,0,0,-4040101,0,0,0,0,0,0,0,3030060,0,0
13,394,553.005825604487,0,0,38668.726062769,38669.7731065383,0,0,17,0,0,13,3,0,5381280,2011110,4151010,0,0,0,0,0,0,0,0,0,0,2181140,0,-3200140,0,0,0,0,0,0,0,0,2011110,0,0,0,0,0,0,0,0,0,4151010,0,0,0,0
13,395,705.963904125383,1,0,38671.4672146338,38672.5142441596,0,0,17,1,1,27,3,0,4120010,3030031,7170131,0,0,0,0,0,0,0,0,0,0,0,0,0,0,4120010,0,0,0,0,0,0,0,0,0,0,0,-3030031,3060121,0,0,0,0,4110010,0,0,0
13,396,982.147986294876,1,0,38674.3259963248,38675.3730397091,0,0,17,1,1,31,7,4010120,2190171,5251231,7311392,0,4010120,0,0,0,0,0,0,0,0,1120130,0,0,0,1070041,0,0,0,4061051,0,1190180,0,0,0,0,0,0,4130090,0,0,-1080181,2101121,0,0,0,0
13,397,854.144232165709,1,0,38677.4789116726,38678.5259519773,0,0,17,0,1,29,3,4221130,0,1101031,4180181,2131040,0,0,0,2090090,0,0,0,0,0,0,0,0,0,0,0,0,0,0,0,0,1101031,0,0,0,0,0,0,-4180181,0,0,0,0,0,0,0
13,398,1108.33934423135,0,0,38680.5376955964,38681.5847382108,0,0,17,1,0,24,3,0,2110111,3221301,3021071,0,0,0,0,0,0,0,0,0,0,0,0,0,0,0,2110111,0,0,0,2141171,0,0,0,-1080130,0,0,0,0,0,0,3021071,0,0,0,0,0
13,399,1076.6470481467,1,0,38683.9023629555,38684.94940403,0,0,17,1,1,35,3,0,2131090,1091061,5100101,0,0,0,0,0,0,0,0,0,2131090,0,0,0,0,0,0,0,0,0,0,0,0,0,0,0,1091061,0,1050011,0,0,0,0,0,0,-4050090,0
13,400,1651.10157771414,0,0,38687.2317370936,38688.2787762434,0,0,17,1,0,12,7,7220140,6191242,3111201,8191250,0,0,0,0,0,4200030,0,0,3020110,0,0,-2110081,2041141,0,0,0,2040020,0,0,0,0,0,0,0,0,0,3111201,0,0,0,4071050,0,4120200,0,0,0
13,401,957.207520514203,0,0,38690.9375834187,38691.9846237234,0,0,17,0,0,30,7,8190212,1161170,10271431,6100111,0,0,0,4060041,4130171,0,0,0,0,0,0,1161170,0,0,0,0,0,0,4070150,0,0,0,4170171,2031110,0,0,0,0,3080011,-3020100,0,0,0,0,0,0
13,402,581.872508235392,0,0,38694.0198965414,38695.0669310716,0,0,17,1,0,11,3,0,4111101,1061050,7290372,0,0,0,0,0,0,0,0,0,0,-4111101,0,0,0,0,0,0,0,0,0,0,0,0,0,0,1061050,0,0,0,0,4200171,3090201,0,0,0,0
13,403,753.185910347383,0,0,38696.7257447913,38697.7727966448,0,0,17,0,0,32,7,6121241,6241240,0,10421422,0,3020050,3101191,0,0,0,0,0,0,0,3040050,0,3201190,0,0,0,0,0,0,0,0,0,0,0,0,0,0,0,0,1130020,0,-2020081,0,0,4110120,3161201
13,404,477.243968620314,1,0,38699.6316010484,38700.6786394282,0,0,17,0,1,17,3,6220290,2221331,0,0,2150170,0,0,0,0,0,4070120,0,0,1120140,0,0,0,0,0,0,-1101191,0,0,0,0,0,0,0,0,0,0,0,0,0,0,0,0,0,0,0
13,405,1418.72412811063,0,0,38702.3139224092,38703.3610219978,0,0,17,1,0,33,7,5172240,8361171,5241291,7181281,1011150,0,0,0,0,0,0,0,4161090,0,0,0,0,0,4160080,0,0,4201091,0,0,4070180,0,1171111,0,0,0,0,0,0,0,0,4041101,-3140180,0,0,0
13,406,558.04111497855,1,0,38705.9256446245,38706.9726864689,0,0,17,0,1,21,3,4160101,4060051,3380232,0,0,0,0,0,4160101,0,0,0,0,0,0,0,0,4060051,0,0,0,0,0,1190131,-2190101,0,0,0,0,0,0,0,0,0,0,0,0,0,0,0
13,407,1214.58048532077,1,0,38708.6550332372,38709.7020693072,0,0,17,1,1,5,7,1010020,8332351,6061062,6211342,0,0,0,0,-1010020,0,0,0,0,4150160,0,0,0,0,0,2101051,2081140,0,4050031,0,0,0,0,0,0,0,2011031,0,0,0,0,4070141,0,2141201,0,0
13,408,943.219194072299,0,0,38711.9844046806,38713.0314426755,0,0,17,1,0,19,3,0,3211191,5230221,0,0,0,0,0,0,0,0,0,0,0,1060160,0,2151031,0,0,0,0,0,-3080030,0,0,2150191,0,0,0,0,0,0,0,0,0,0,0,0,0,0
13,409,1196.88344497263,1,0,38744.313441593,38745.3604834374,0,0,18,0,1,17,7,3380132,4312311,4201121,5442372,0,0,1200081,0,0,0,2180051,0,0,0,0,0,0,0,0,1201200,-3111111,0,0,0,0,0,4201121,0,0,0,0,3201021,1141151,1100200,0,0,0,0,0,0
13,410,617.85557919211,1,0,38747.7604636505,38748.8075031852,0,0,18,0,1,15,3,2171051,1131101,1111020,3060061,0,0,0,0,2171051,0,0,0,0,0,0,0,0,0,-1131101,0,0,0,1111020,0,0,0,0,0,0,0,0,0,0,0,0,0,3060061,0,0,0
13,411,1199.9966242729,1,0,38750.4663199846,38751.5133660636,0,0,18,0,1,1,7,14322422,2122112,0,5230170,-3191101,4091060,0,0,4010200,0,3030061,0,0,0,0,0,0,0,1111051,0,0,1011061,0,0,0,0,0,0,0,0,0,0,0,0,0,1120160,0,4110010,0,0
13,412,788.717037125025,0,0,38753.854541565,38754.9015529976,0,0,18,1,0,35,3,0,2131090,1091061,5100101,0,0,0,0,0,0,0,0,0,2131090,0,0,0,0,0,0,0,0,0,0,0,0,0,0,0,1091061,0,1050011,0,0,0,0,0,0,-4050090,0
13,413,506.317760242382,0,0,38756.878011095,38757.9250540943,0,0,18,1,0,10,7,7231353,6291140,3040141,1081181,2090050,0,0,1070151,0,1050071,3021081,0,0,-3131010,0,0,0,0,0,0,3160130,0,0,3040141,0,0,0,0,0,0,0,0,0,0,1081181,0,0,0,0,0
13,414,987.557842687238,1,0,38759.4897463989,38760.5368098012,0,0,18,1,1,31,7,4010120,2190171,5251231,7311392,0,4010120,0,0,0,0,0,0,0,0,1120130,0,0,0,1070041,0,0,0,4061051,0,1190180,0,0,0,0,0,0,4130090,0,0,-1080181,2101121,0,0,0,0
13,415,717.36875755596,1,0,38762.6779430339,38763.7249898829,0,0,18,1,1,27,3,0,4120010,3030031,7170131,0,0,0,0,0,0,0,0,0,0,0,0,0,0,4120010,0,0,0,0,0,0,0,0,0,0,0,-3030031,3060121,0,0,0,0,4110010,0,0,0
13,416,1214.94850800082,1,0,38765.5132097695,38766.5602342907,0,0,18,0,1,6,7,3271060,7421291,4261191,3190040,0,0,0,0,1080030,-2191030,0,0,0,2141100,0,0,0,0,2170041,3110150,0,0,3150150,0,0,0,1111041,0,0,0,0,0,0,0,0,3190040,0,0,0,0
13,417,988.526789427851,0,0,38768.7955266647,38769.8425650446,0,0,18,1,0,19,3,0,3211191,5230221,0,0,0,0,0,0,0,0,0,0,0,1060160,0,2151031,0,0,0,0,0,-3080030,0,0,2150191,0,0,0,0,0,0,0,0,0,0,0,0,0,0
13,418,472.848869321751,1,0,38772.0072536535,38773.0542889536,0,0,18,0,1,21,3,3131021,2081120,4130171,3141080,0,0,0,0,0,3131021,0,0,0,0,0,0,0,0,0,2081120,0,0,0,0,-4130171,0,0,0,0,0,0,0,0,0,0,0,0,3141080,0,0
13,419,1427.04236455756,1,1,38774.5601653827,38775.6072018377,0,0,18,1,0,12,7,7220140,6191242,3111201,8191250,0,0,0,0,0,4200030,0,0,3020110,0,0,-2110081,2041141,0,0,0,2040020,0,0,0,0,0,0,0,0,0,3111201,0,0,0,4071050,0,4120200,0,0,0
13,420,1238.36491334077,1,0,38778.077763873,38779.1248188062,0,0,18,1,1,33,7,5172240,8361171,5241291,7181281,1011150,0,0,0,0,0,0,0,4161090,0,0,0,0,0,4160080,0,0,4201091,0,0,4070180,0,1171111,0,0,0,0,0,0,0,0,4041101,-3140180,0,0,0
13,421,661.555192607921,0,0,38781.3953943921,38782.4424173735,0,0,18,1,0,5,7,1010020,8332351,6061062,6211342,0,0,0,0,-1010020,0,0,0,0,4150160,0,0,0,0,0,2101051,2081140,0,4050031,0,0,0,0,0,0,0,2011031,0,0,0,0,4070141,0,2141201,0,0
13,422,397.595160800847,1,0,38784.136525469,38785.1835680834,0,0,18,1,1,11,3,0,4111101,1061050,7290372,0,0,0,0,0,0,0,0,0,0,-4111101,0,0,0,0,0,0,0,0,0,0,0,0,0,0,1061050,0,0,0,0,4200171,3090201,0,0,0,0
13,423,811.211460975755,0,0,38786.6776724063,38787.7247146358,0,0,18,0,0,13,3,3312241,7111181,0,0,2171131,0,1141110,0,0,0,0,0,0,0,0,0,-4091111,0,0,0,0,3020070,0,0,0,0,0,0,0,0,0,0,0,0,0,0,0,0,0,0
13,424,749.385960698419,0,0,38789.6776346801,38790.7246842238,0,0,18,1,0,24,3,0,2110111,3221301,3021071,0,0,0,0,0,0,0,0,0,0,0,0,0,0,0,2110111,0,0,0,2141171,0,0,0,-1080130,0,0,0,0,0,0,3021071,0,0,0,0,0
13,425,1106.6824722584,1,0,38792.6541412826,38793.7011492505,0,0,18,1,1,26,7,7231200,10471323,4040101,3030060,0,0,0,4100050,0,3131150,0,0,0,0,0,0,1150041,0,3180160,4101081,2040041,0,0,0,0,0,0,0,0,-4040101,0,0,0,0,0,0,0,3030060,0,0
13,426,949.282329202106,0,0,38795.8775718545,38796.9246090795,0,0,18,0,0,30,7,2190070,4241181,6343171,2081120,0,0,0,0,2190070,0,0,0,0,1011121,0,0,2100040,0,0,1130020,0,0,1091060,0,0,1091040,0,0,4161071,0,0,0,0,-2081120,0,0,0,0,0,0
13,427,1024.78664730734,0,0,38799.0069452997,38800.0539779052,0,0,18,0,0,9,7,9263451,6321202,0,5201181,0,3050190,1071040,0,0,0,0,3021041,-2121180,0,2131071,0,0,0,0,0,0,4190131,0,0,0,0,0,0,0,0,0,0,0,0,0,0,2171131,3030050,0,0
13,428,790.738082177995,0,0,38802.1010786487,38803.1480615941,0,0,18,0,0,32,3,2081190,1080070,0,6211380,0,0,0,0,2081190,0,0,0,0,0,0,0,0,1080070,0,0,0,0,0,0,0,0,0,0,0,0,0,0,0,0,0,-4101200,2110180,0,0,0
13,429,1020.23640875268,1,0,38805.0774678381,38806.1245066029,0,0,18,1,1,7,3,2171190,4361381,4090111,0,0,0,0,0,0,0,-2171190,0,0,1170181,0,0,3191200,0,0,0,0,0,0,0,4090111,0,0,0,0,0,0,0,0,0,0,0,0,0,0,0
13,430,1598.52245476213,0,0,38808.33624976,38809.3832892947,0,0,18,0,0,25,7,2210211,8253150,4131091,2030101,0,1060160,0,1150051,0,0,0,0,0,0,1011050,0,3121040,0,0,0,4121060,0,0,0,0,0,2021081,0,-2110010,0,0,0,0,0,0,0,0,2030101,0,0
13,431,929.766733279394,0,0,38812.1950911199,38813.2420717556,0,0,18,0,0,16,3,0,4201300,5080161,0,0,0,0,0,0,0,0,0,0,0,0,0,0,2120170,0,-2081130,0,0,2060041,0,0,0,0,3020120,0,0,0,0,0,0,0,0,0,0,0,0
13,432,667.493600398302,1,0,38815.2891147549,38816.3361519799,0,0,18,0,1,29,3,1070190,0,2160131,5270230,0,1070190,0,0,0,0,0,0,0,0,0,0,0,0,0,0,0,0,0,0,0,0,0,0,0,0,2160131,0,-3090030,0,0,0,0,0,0,2180200
13,433,1312.29936064483,0,0,38823.9243072701,38824.9713460349,0,0,19,0,0,25,3,0,0,6462291,1180061,0,0,0,0,0,0,0,0,0,0,0,0,0,0,0,0,0,0,0,1170111,0,0,0,3181030,-2111150,0,0,0,0,0,0,0,0,1180061,0,0
13,434,915.990905290528,1,0,38827.4536828711,38828.5007216359,0,0,19,1,1,35,3,0,2131090,1091061,5100101,0,0,0,0,0,0,0,0,0,2131090,0,0,0,0,0,0,0,0,0,0,0,0,0,0,0,1091061,0,1050011,0,0,0,0,0,0,-4050090,0
13,435,679.073611070635,0,0,38830.5124725692,38831.5595067145,0,0,19,0,0,29,3,0,6091341,0,3141061,0,0,0,0,0,0,0,0,0,4040171,0,0,2051170,0,0,0,0,0,0,0,0,0,0,0,0,0,0,0,-1051020,0,0,0,0,2090041,0,0
13,436,1409.29989882716,0,0,38833.3242000969,38834.3712396317,0,0,19,0,0,32,3,0,5282220,0,6121331,0,0,0,0,0,0,0,0,0,0,3111040,0,0,0,0,0,2171180,0,0,0,0,0,0,0,0,0,0,4060140,0,0,0,-2061191,0,0,0,0
13,437,614.696589545929,0,0,38836.8888608347,38837.9359115333,0,0,19,0,0,15,3,6331181,2050020,0,3201161,0,0,3161171,3170010,0,0,0,0,0,0,0,0,0,0,-2050020,0,0,0,0,0,0,0,0,0,0,0,0,0,3201161,0,0,0,0,0,0,0
13,438,1249.10570911015,1,0,38839.618243288,38840.6652870573,0,0,19,1,1,33,7,5172240,8361171,5241291,7181281,1011150,0,0,0,0,0,0,0,4161090,0,0,0,0,0,4160080,0,0,4201091,0,0,4070180,0,1171111,0,0,0,0,0,0,0,0,4041101,-3140180,0,0,0
13,439,1431.04788335768,1,0,38843.0064483152,38844.0534847702,0,0,19,0,1,1,7,6091211,5332181,0,14552442,-2020071,4071140,0,0,0,0,0,0,0,0,0,1151081,0,0,0,0,0,4181100,0,0,0,0,0,0,0,0,0,0,3031030,0,0,3150200,4181201,0,0,4190011
13,440,501.26283786085,1,0,38846.5711102078,38847.618155132,0,0,19,0,1,17,7,2121021,4181291,11363292,1151130,0,0,0,0,0,0,0,0,2121021,0,0,0,2031141,0,0,0,-2150150,0,0,0,4190070,3031090,1111061,0,0,3031071,0,0,0,0,0,0,0,0,1151130,0
13,441,775.210681807948,1,0,38849.3122497538,38850.359294678,0,0,19,1,1,7,3,2171190,4361381,4090111,0,0,0,0,0,0,0,-2171190,0,0,1170181,0,0,3191200,0,0,0,0,0,0,0,4090111,0,0,0,0,0,0,0,0,0,0,0,0,0,0,0
13,442,1163.65245993075,0,0,38852.2416405993,38853.2886839836,0,0,19,1,0,12,7,7220140,6191242,3111201,8191250,0,0,0,0,0,4200030,0,0,3020110,0,0,-2110081,2041141,0,0,0,2040020,0,0,0,0,0,0,0,0,0,3111201,0,0,0,4071050,0,4120200,0,0,0
13,443,1161.72072582413,0,0,38855.5474828438,38856.5945196838,0,0,19,0,0,13,7,9621381,4391172,1131031,0,0,3160071,0,0,2111190,0,3200030,1150090,0,0,0,0,-1141151,0,0,1150010,0,2100011,1131031,0,0,0,0,0,0,0,0,0,0,0,0,0,0,0,0,0
13,444,1298.65210960998,0,0,38858.8886171544,38859.9356613087,0,0,19,1,0,26,7,7231200,10471323,4040101,3030060,0,0,0,4100050,0,3131150,0,0,0,0,0,0,1150041,0,3180160,4101081,2040041,0,0,0,0,0,0,0,0,-4040101,0,0,0,0,0,0,0,3030060,0,0
13,445,988.917524802673,0,0,38862.4062268086,38863.4532586441,0,0,19,0,0,30,7,5041091,8322081,2181050,9400422,0,0,4021041,0,0,0,1020050,0,0,0,4191021,0,0,4131060,0,0,0,0,0,0,0,0,0,2181050,0,0,0,0,0,-4030190,4190121,0,0,1180111,0,0
13,446,443.953314621467,1,0,38865.5591263731,38866.6061686025,0,0,19,1,1,10,7,7231353,6291140,3040141,1081181,2090050,0,0,1070151,0,1050071,3021081,0,0,-3131010,0,0,0,0,0,0,3160130,0,0,3040141,0,0,0,0,0,0,0,0,0,0,1081181,0,0,0,0,0
13,447,986.318268391187,0,0,38868.1708666815,38869.2179015967,0,0,19,1,0,19,3,0,3211191,5230221,0,0,0,0,0,0,0,0,0,0,0,1060160,0,2151031,0,0,0,0,0,-3080030,0,0,2150191,0,0,0,0,0,0,0,0,0,0,0,0,0,0
13,448,734.228507812077,1,0,38871.3708296482,38872.4178680281,0,0,19,0,1,21,3,3030141,0,5141221,1121141,0,0,0,0,3030141,0,0,0,0,0,0,0,0,0,0,0,0,0,0,0,-4100160,0,0,0,0,1041061,0,1121141,0,0,0,0,0,0,0,0
13,449,1242.67185656936,1,0,38874.1943531497,38875.2413695868,0,0,19,0,1,9,3,3110171,4272300,0,2201041,0,0,0,0,0,0,0,0,-3110171,0,2081140,0,0,0,0,0,2191160,0,0,0,0,0,0,0,0,0,0,0,0,2201041,0,0,0,0,0,0
13,450,1010.71054976637,1,0,38877.6413482599,38878.6883951089,0,0,19,0,1,6,7,2212342,6351210,3330280,2170160,0,0,1171191,0,0,-1041151,0,0,0,0,0,0,0,0,3180030,0,0,3171180,0,0,0,1070030,1060070,0,0,1200180,0,0,2170160,0,0,0,0,0,0,0
13,451,762.352215788269,0,0,38880.8766059875,38881.923647447,0,0,19,1,0,27,3,0,4120010,3030031,7170131,0,0,0,0,0,0,0,0,0,0,0,0,0,0,4120010,0,0,0,0,0,0,0,0,0,0,0,-3030031,3060121,0,0,0,0,4110010,0,0,0
13,452,1021.23499748268,1,0,38883.7706928331,38884.8177265934,0,0,19,1,1,31,7,4010120,2190171,5251231,7311392,0,4010120,0,0,0,0,0,0,0,0,1120130,0,0,0,1070041,0,0,0,4061051,0,1190180,0,0,0,0,0,0,4130090,0,0,-1080181,2101121,0,0,0,0
13,453,680.34205744334,1,0,38887.0177091932,38888.0647545023,0,0,19,1,1,24,3,0,2110111,3221301,3021071,0,0,0,0,0,0,0,0,0,0,0,0,0,0,0,2110111,0,0,0,2141171,0,0,0,-1080130,0,0,0,0,0,0,3021071,0,0,0,0,0
13,454,503.544116523699,1,0,38889.7823837125,38890.8294270969,0,0,19,0,1,16,7,11531142,2021121,4190091,6291320,3050010,2201021,0,0,0,0,2140051,0,4140060,0,0,0,0,0,0,-2021121,0,0,0,0,0,0,4190091,0,0,0,0,0,0,4090140,0,0,0,0,2201180,0
13,455,756.533530860906,0,0,38892.3823553794,38893.429396454,0,0,19,1,0,5,7,1010020,8332351,6061062,6211342,0,0,0,0,-1010020,0,0,0,0,4150160,0,0,0,0,0,2101051,2081140,0,4050031,0,0,0,0,0,0,0,2011031,0,0,0,0,4070141,0,2141201,0,0
13,456,523.528594887466,0,0,38895.3823234277,38896.4293594977,0,0,19,1,0,11,3,0,4111101,1061050,7290372,0,0,0,0,0,0,0,0,0,0,-4111101,0,0,0,0,0,0,0,0,0,0,0,0,0,0,1061050,0,0,0,0,4200171,3090201,0,0,0,0
13,457,1009.02673052769,1,0,38909.9586134511,38911.0056672294,0,0,20,1,1,24,3,0,2110111,3221301,3021071,0,0,0,0,0,0,0,0,0,0,0,0,0,0,0,2110111,0,0,0,2141171,0,0,0,-1080130,0,0,0,0,0,0,3021071,0,0,0,0,0
13,458,1868.83126274915,1,0,38913.0997709363,38914.1468020019,0,0,20,0,1,21,7,8492381,0,8243342,4271150,0,0,4191161,3160180,0,0,1141040,0,0,0,0,0,0,0,0,0,0,0,3071141,0,-1151021,4021180,0,0,0,0,0,0,0,0,3161120,0,0,1110030,0,0
13,459,862.443605525186,1,0,38917.0291356044,38918.0761755241,0,0,20,0,1,1,3,2111181,1120121,4010090,4021080,-2111181,0,0,0,0,0,0,0,0,0,0,0,0,1120121,0,0,0,0,0,4010090,0,0,0,0,0,0,0,0,0,0,0,4021080,0,0,0,0
13,460,766.560224052228,1,0,38919.9820429451,38921.0290790152,0,0,20,0,1,32,3,6140261,4160101,0,2140151,0,0,2070130,0,0,0,0,0,4070131,0,4160101,0,0,0,0,0,0,0,0,0,0,0,0,0,0,0,0,0,0,0,0,-2140151,0,0,0,0
13,461,876.161689368018,0,0,38922.8525998219,38923.899635892,0,0,20,0,0,6,3,4031071,2081100,3041110,4191201,0,0,0,0,0,-4031071,0,0,0,0,0,0,2081100,0,0,0,0,0,0,0,0,0,3041110,0,0,0,0,0,0,0,0,0,0,4191201,0,0
13,462,640.022786210466,0,0,38925.8525582461,38926.8996081748,0,0,20,1,0,7,3,2171190,4361381,4090111,0,0,0,0,0,0,0,-2171190,0,0,1170181,0,0,3191200,0,0,0,0,0,0,0,4090111,0,0,0,0,0,0,0,0,0,0,0,0,0,0,0
13,463,492.418359783187,0,0,38928.6172343053,38929.6642799994,0,0,20,1,0,11,3,0,4111101,1061050,7290372,0,0,0,0,0,0,0,0,0,0,-4111101,0,0,0,0,0,0,0,0,0,0,0,0,0,0,1061050,0,0,0,0,4200171,3090201,0,0,0,0
13,464,797.588847446605,0,0,38931.1819112115,38932.2289580604,0,0,20,0,0,16,3,0,6031151,4020180,3060170,0,0,0,0,0,0,0,0,0,0,0,0,0,0,0,-4020120,0,2011031,0,0,0,0,0,0,4020180,0,0,0,0,0,3060170,0,0,0,0,0
13,465,916.050959196582,1,0,38934.0524730928,38935.0995064681,0,0,20,1,1,35,3,0,2131090,1091061,5100101,0,0,0,0,0,0,0,0,0,2131090,0,0,0,0,0,0,0,0,0,0,0,0,0,0,0,1091061,0,1050011,0,0,0,0,0,0,-4050090,0
13,466,747.537378156267,0,0,38937.0289050128,38938.075949552,0,0,20,1,0,5,7,1010020,8332351,6061062,6211342,0,0,0,0,-1010020,0,0,0,0,4150160,0,0,0,0,0,2101051,2081140,0,4050031,0,0,0,0,0,0,0,2011031,0,0,0,0,4070141,0,2141201,0,0
