sub_id,Trial,RT,Resp,Error,Fix_onset,Disp_onset,q1,q2,block,repeat,tid,tloc,d_setsize,quad1,quad2,quad3,quad4,loc1,loc2,loc3,loc4,loc5,loc6,loc7,loc8,loc9,loc10,loc11,loc12,loc13,loc14,loc15,loc16,loc17,loc18,loc19,loc20,loc21,loc22,loc23,loc24,loc25,loc26,loc27,loc28,loc29,loc30,loc31,loc32,loc33,loc34,loc35,loc36
22,1,785.252821078757,0,0,115087.7160649,115088.763149475,0,24,1,0,0,31,3,0,3051191,2261200,1150020,0,0,0,0,0,0,0,0,0,0,0,0,0,0,3051191,0,0,0,0,1090030,0,0,0,0,0,1171170,0,0,0,0,-1150020,0,0,0,0,0
22,2,682.939051708672,0,0,115090.59847203,115091.645532738,0,24,1,1,0,36,7,4282262,4312430,2110121,1020080,1021061,0,1141090,2120111,0,0,0,0,0,1181130,0,0,1080100,0,0,2051200,0,0,0,0,0,0,0,0,2110121,0,0,0,0,0,0,0,0,0,0,-1020080
22,3,835.938321062713,0,0,115093.351442197,115094.398559878,0,24,1,0,0,11,3,5091202,3130140,3021201,0,0,0,0,0,3020031,0,0,0,2071171,0,-3130140,0,0,0,0,0,0,0,0,0,0,0,0,0,0,0,3021201,0,0,0,0,0,0,0,0,0
22,4,906.077438237844,0,0,115096.257361587,115097.30442268,0,24,1,0,0,34,7,11401331,0,8464372,4051151,0,0,0,4140051,3200080,0,4061200,0,0,0,0,0,0,0,0,0,0,0,0,3171081,3031020,0,0,0,1181081,1081190,0,0,0,0,0,0,0,-4051151,0,0
22,5,915.356922210776,1,0,115099.280921583,115100.327994225,0,24,1,1,1,24,7,9313441,1050191,9210222,0,1081131,0,0,0,0,3180080,3011050,0,2041180,0,0,0,0,0,0,0,1050191,0,0,0,0,3020120,0,-2060021,0,0,4130081,0,0,0,0,0,0,0,0,0
22,6,1175.15090650704,1,0,115102.316256765,115103.363320167,0,24,1,0,1,12,7,0,12452352,1190181,8262451,0,0,0,0,0,0,0,0,0,0,1050010,-4090160,0,3151021,0,4161161,0,0,0,0,0,1190181,0,0,0,0,0,0,0,0,0,0,1080120,0,4101150,3081181
22,7,802.142213316984,1,0,115105.669237864,115106.716291642,0,24,1,1,1,33,3,1061070,0,5151071,2190061,0,0,0,0,0,0,0,1061070,0,0,0,0,0,0,0,0,0,0,0,0,0,3110030,2041041,0,0,0,0,0,0,0,0,0,-2190061,0,0,0
22,8,1066.3694080431,0,0,115108.645741002,115109.692806714,0,24,1,0,0,20,3,3181090,0,2121091,2191091,0,0,2121070,0,1060020,0,0,0,0,0,0,0,0,0,0,0,0,0,0,-2121091,0,0,0,0,0,0,0,0,2191091,0,0,0,0,0,0,0
22,9,917.342165892478,1,0,115111.798712169,115112.84578481,0,24,1,1,1,8,3,1021200,0,3182391,4131150,0,0,0,0,0,0,0,-1021200,0,0,0,0,0,0,0,0,0,0,1121201,0,0,2061190,0,0,0,0,0,0,0,0,4131150,0,0,0,0,0
22,10,1287.87132551952,0,0,115114.822288333,115115.869357895,0,24,1,0,0,7,7,12501393,4111230,0,5271260,0,0,2031031,0,0,0,-4180090,2090181,4200091,3080050,0,1031180,0,0,0,0,0,0,0,0,0,0,0,0,0,0,0,0,0,4080090,0,0,0,0,1191170,0
22,11,1062.75654942147,0,0,115118.316448475,115119.363506873,0,24,1,0,0,10,3,4182172,1031180,0,3140130,0,0,1161141,0,0,0,0,0,3021031,-1031180,0,0,0,0,0,0,0,0,0,0,0,0,0,0,0,0,0,0,0,0,0,0,3140130,0,0,0
22,12,1415.08590969897,1,0,115121.434120262,115122.481187514,0,24,1,1,1,35,7,5161111,6302241,0,11693442,0,0,0,2151051,3010060,0,0,0,0,3161040,0,0,0,0,0,0,3141201,0,0,0,0,0,0,0,0,0,0,0,0,4191191,3171010,0,0,0,-1161090,3170151
22,13,1088.60552306578,1,0,115124.975388077,115126.022405284,0,24,1,0,1,6,7,5131111,2130091,7392141,4160101,0,4100051,0,0,0,-1031060,0,0,0,1040020,0,0,0,0,0,0,1090071,0,4101050,2160081,0,0,0,1131010,0,0,0,4160101,0,0,0,0,0,0,0,0
22,14,1295.37344475102,1,0,115128.163615124,115129.210678142,0,24,1,1,1,3,7,3312141,0,12583524,1101011,0,2201051,-1111090,0,0,0,0,0,0,0,0,0,0,0,0,0,0,0,3191081,0,0,1141171,2041090,0,2180081,4030101,0,0,0,0,1101011,0,0,0,0,0
22,15,766.449787886813,1,0,115131.669536594,115132.716605001,0,24,1,1,1,17,3,4050072,2141201,3181140,0,0,3020011,0,0,0,1030061,0,0,0,0,0,0,0,0,0,0,-2141201,0,0,0,3181140,0,0,0,0,0,0,0,0,0,0,0,0,0,0,0
22,16,1382.3796264478,0,0,115134.563691193,115135.610759984,0,24,1,0,0,15,3,0,5331281,4170130,2061120,0,0,0,0,0,0,0,0,0,0,0,0,0,0,-1160140,0,0,4171141,4170130,0,0,0,0,0,0,0,0,0,0,0,0,2061120,0,0,0,0
22,17,655.043240622035,0,0,115137.99902545,115139.046131198,0,24,1,1,0,29,3,4191031,0,5320171,1131200,0,0,0,4191031,0,0,0,0,0,0,0,0,0,0,0,0,0,0,2140081,0,0,0,0,0,0,3180090,0,0,-1131200,0,0,0,0,0,0,0
22,18,806.936517124996,1,0,115140.751996771,115141.79909482,0,24,1,1,1,27,7,4150170,4231281,9341192,8301251,0,0,0,0,0,0,0,0,4150170,0,0,2050141,0,0,0,0,2181140,0,0,0,4140030,0,0,3171101,0,0,-2030061,4121191,0,0,0,0,0,4180060,0,0
22,19,768.671397599974,1,0,115143.787325794,115144.834388811,0,24,1,1,1,4,3,1081161,6260361,3091150,0,0,0,0,-1081161,0,0,0,0,0,4110171,2150190,0,0,0,0,0,0,0,0,3091150,0,0,0,0,0,0,0,0,0,0,0,0,0,0,0,0
22,20,1023.90166968689,0,0,115146.752070684,115147.799160649,0,24,1,1,0,13,3,0,4121201,2070100,1190171,0,0,0,0,0,0,0,0,0,0,0,2050030,-2071171,0,0,0,0,0,2070100,0,0,0,0,0,0,0,0,0,0,0,0,0,0,1190171,0,0
22,21,949.845737573924,1,0,115149.905055325,115150.951910685,0,24,1,0,1,19,7,7100252,4011110,12433382,4171081,0,0,4010051,0,0,0,0,3090201,0,0,0,0,0,0,0,0,0,4011110,-4161051,0,0,0,0,2111030,0,2110130,4051171,0,0,0,0,0,0,4171081,0,0
22,22,761.036851807148,0,0,115153.022730576,115154.069797058,0,24,1,0,0,18,7,1080101,6402483,8310382,3111090,0,0,0,1080101,0,0,0,0,0,0,3201081,0,0,0,1170201,0,0,-2031201,1030091,0,0,0,4100130,0,0,3180161,0,3111090,0,0,0,0,0,0,0,0
22,23,682.627618283732,1,0,115155.952178396,115157.011071264,0,24,1,0,1,2,3,2070100,0,7202220,2091180,0,-2070100,0,0,0,0,0,0,0,0,0,0,0,0,0,0,0,0,0,0,4061100,0,0,0,0,3141120,0,0,0,0,0,0,2091180,0,0,0
22,24,1065.70881503285,0,0,115158.858095477,115159.9051558,0,24,1,1,0,25,7,0,1180150,8270313,10512421,0,0,0,0,0,0,0,0,0,0,0,0,0,0,1180150,0,0,0,0,1090071,3110111,0,0,0,-4070131,0,0,0,0,1091151,0,4060010,1201110,0,0,4160150
22,25,959.759474353632,0,0,115187.83489619,115188.881969986,0,24,2,1,0,36,7,4282262,4312430,2110121,1020080,1021061,0,1141090,2120111,0,0,0,0,0,1181130,0,0,1080100,0,0,2051200,0,0,0,0,0,0,0,0,2110121,0,0,0,0,0,0,0,0,0,0,-1020080
22,26,716.720145966974,1,0,115190.999650627,115192.046710565,0,24,2,0,1,11,3,4011131,5242351,0,4150171,0,0,0,0,0,0,0,0,4011131,4051181,-1191170,0,0,0,0,0,0,0,0,0,0,0,0,0,0,0,0,0,0,0,0,0,4150171,0,0,0
22,27,722.262043957016,1,0,115193.834978571,115194.882036199,0,24,2,0,1,7,3,6271291,4100211,0,0,0,0,0,0,0,0,-4100180,0,2171111,2020200,0,0,0,0,2080011,0,0,0,0,0,0,0,0,0,0,0,0,0,0,0,0,0,0,0,0,0
22,28,668.490696916706,0,0,115196.69382917,115197.740901812,0,24,2,0,0,2,3,4221371,0,3111190,1081021,0,-3160200,1061171,0,0,0,0,0,0,0,0,0,0,0,0,0,0,0,0,3111190,0,0,0,0,0,0,0,1081021,0,0,0,0,0,0,0,0
22,29,613.029371248558,1,0,115199.576221672,115200.623286999,0,24,2,0,1,31,3,2020191,0,1050120,6290141,0,0,0,2020191,0,0,0,0,0,0,0,0,0,0,0,0,0,0,1050120,0,0,0,0,0,0,0,0,0,0,0,-2190111,0,0,0,4100030,0
22,30,818.630091278465,0,0,115202.258603087,115203.305665719,0,24,2,1,0,3,7,3312141,0,12583524,1101011,0,2201051,-1111090,0,0,0,0,0,0,0,0,0,0,0,0,0,0,0,3191081,0,0,1141171,2041090,0,2180081,4030101,0,0,0,0,1101011,0,0,0,0,0
22,31,882.387710618787,0,0,115205.152753451,115206.199822627,0,24,2,0,0,10,7,8543563,3222181,0,3212180,3121101,0,0,0,0,1061071,0,2161201,2200190,-2181050,0,0,0,0,0,1041131,0,0,0,0,0,0,0,0,0,0,0,2121010,1091170,0,0,0,0,0,0,0
22,32,581.765921670012,1,0,115208.117554545,115209.164559049,0,24,2,0,1,20,7,3070170,0,12592384,8111371,3070170,0,0,0,0,0,0,0,0,0,0,0,0,0,0,0,0,0,3100041,-3111041,1180131,0,1180150,0,0,0,4021021,0,0,0,0,0,0,4051181,0,4060190
22,33,1370.62099388277,1,0,115210.917528445,115211.964589152,0,24,2,1,1,24,7,9313441,1050191,9210222,0,1081131,0,0,0,0,3180080,3011050,0,2041180,0,0,0,0,0,0,0,1050191,0,0,0,0,3020120,0,-2060021,0,0,4130081,0,0,0,0,0,0,0,0,0
22,34,597.132023394806,1,0,115214.541105148,115215.588161236,0,24,2,1,1,27,7,4150170,4231281,9341192,8301251,0,0,0,0,0,0,0,0,4150170,0,0,2050141,0,0,0,0,2181140,0,0,0,4140030,0,0,3171101,0,0,-2030061,4121191,0,0,0,0,0,4180060,0,0
22,35,907.39669946197,1,0,115217.211718306,115218.258787483,0,24,2,1,1,29,3,4191031,0,5320171,1131200,0,0,0,4191031,0,0,0,0,0,0,0,0,0,0,0,0,0,0,2140081,0,0,0,0,0,0,3180090,0,0,-1131200,0,0,0,0,0,0,0
22,36,1479.36515112815,0,0,115220.2588152,115221.305882837,0,24,2,0,0,34,7,0,5270122,7431570,11371411,0,0,0,0,0,0,0,0,0,0,0,0,0,0,0,1070111,4200011,0,4141190,0,1120190,0,0,0,0,0,2170190,0,0,4060190,0,3111090,0,-4200131,0,0
22,37,643.234948103782,1,0,115223.905908398,115224.952983734,0,24,2,0,1,12,3,3131140,6241172,2180160,0,0,0,0,0,0,0,0,3131140,0,0,0,-4060101,2181071,0,0,0,0,0,2180160,0,0,0,0,0,0,0,0,0,0,0,0,0,0,0,0,0
22,38,564.868060289882,0,0,115226.788311294,115227.835368152,0,24,2,1,0,33,3,1061070,0,5151071,2190061,0,0,0,0,0,0,0,1061070,0,0,0,0,0,0,0,0,0,0,0,0,0,3110030,2041041,0,0,0,0,0,0,0,0,0,-2190061,0,0,0
22,39,946.950668294448,1,0,115229.50598131,115230.553042017,0,24,2,1,1,25,7,0,1180150,8270313,10512421,0,0,0,0,0,0,0,0,0,0,0,0,0,0,1180150,0,0,0,0,1090071,3110111,0,0,0,-4070131,0,0,0,0,1091151,0,4060010,1201110,0,0,4160150
22,40,891.574034030782,0,0,115232.529545155,115233.576615872,0,24,2,0,0,18,3,0,10482311,1021060,0,0,0,0,0,0,0,0,0,0,0,3171180,0,3200071,0,0,0,0,-4111060,0,0,0,0,0,0,0,0,1021060,0,0,0,0,0,0,0,0,0
22,41,919.258501555305,0,0,115235.470750453,115236.517819629,0,24,2,1,0,4,3,1081161,6260361,3091150,0,0,0,0,-1081161,0,0,0,0,0,4110171,2150190,0,0,0,0,0,0,0,0,3091150,0,0,0,0,0,0,0,0,0,0,0,0,0,0,0,0
22,42,614.310521326843,0,0,115238.623736633,115239.670803115,0,24,2,1,0,13,3,0,4121201,2070100,1190171,0,0,0,0,0,0,0,0,0,0,0,2050030,-2071171,0,0,0,0,0,2070100,0,0,0,0,0,0,0,0,0,0,0,0,0,0,1190171,0,0
22,43,963.541715798783,1,0,115241.400240618,115242.44730325,0,24,2,1,1,8,3,1021200,0,3182391,4131150,0,0,0,0,0,0,0,-1021200,0,0,0,0,0,0,0,0,0,0,1121201,0,0,2061190,0,0,0,0,0,0,0,0,4131150,0,0,0,0,0
22,44,676.518287829822,1,0,115244.588511166,115245.635575723,0,24,2,0,1,19,7,2242041,5201161,12331281,2061120,1081010,0,0,0,0,0,1161031,0,0,3071070,0,0,0,0,0,0,2130091,0,-4081080,0,0,4080140,0,0,0,4170061,0,0,0,0,0,0,0,2061120,0,0
22,45,970.317028710269,0,0,115247.482658835,115248.529727242,0,24,2,1,0,17,3,4050072,2141201,3181140,0,0,3020011,0,0,0,1030061,0,0,0,0,0,0,0,0,0,0,-2141201,0,0,0,3181140,0,0,0,0,0,0,0,0,0,0,0,0,0,0,0
22,46,812.639328796649,0,0,115250.659208861,115251.706234152,0,24,2,0,0,6,7,11312282,4241301,3071120,0,0,0,0,0,0,-3101060,4190171,4021051,0,2180040,0,0,1041151,0,0,1020110,0,0,0,0,1030100,0,0,0,0,2041020,0,0,0,0,0,0,0,0,0,0
22,47,1446.75626301614,1,0,115253.71803744,115254.765093528,0,24,2,1,1,35,7,5161111,6302241,0,11693442,0,0,0,2151051,3010060,0,0,0,0,3161040,0,0,0,0,0,0,3141201,0,0,0,0,0,0,0,0,0,0,0,0,4191191,3171010,0,0,0,-1161090,3170151
22,48,708.746834541671,1,0,115257.365129484,115258.412200585,0,24,2,0,1,15,7,9291501,16534590,0,0,0,4201180,0,0,2080201,0,0,3010120,0,4131080,3201130,3111200,0,3010050,-3081130,0,0,0,0,0,0,0,0,0,0,0,0,0,0,0,0,0,0,0,0,0
22,49,1171.81214009179,1,0,115273.34179469,115274.388901208,0,24,3,0,1,31,7,0,7191282,8221231,12332253,0,0,0,0,0,0,0,0,0,0,1010020,0,0,0,0,3050151,3131111,0,0,0,0,0,0,4141170,4080061,0,0,0,0,4161151,-4010051,4161051,0,0,0,0
22,50,1171.67547895224,0,0,115276.683004838,115277.73007363,0,24,3,1,0,24,7,9313441,1050191,9210222,0,1081131,0,0,0,0,3180080,3011050,0,2041180,0,0,0,0,0,0,0,1050191,0,0,0,0,3020120,0,-2060021,0,0,4130081,0,0,0,0,0,0,0,0,0
22,51,1015.29625237163,0,0,115279.918337633,115280.96540373,0,24,3,0,0,7,3,4201160,2121161,2031091,3091150,0,0,0,0,0,0,-4201160,0,0,0,0,0,0,0,2121161,0,0,0,0,0,0,0,0,0,0,0,2031091,0,0,0,0,0,0,0,0,3091150
22,52,597.419589248602,0,0,115283.03600711,115284.083090915,0,24,3,1,0,27,7,4150170,4231281,9341192,8301251,0,0,0,0,0,0,0,0,4150170,0,0,2050141,0,0,0,0,2181140,0,0,0,4140030,0,0,3171101,0,0,-2030061,4121191,0,0,0,0,0,4180060,0,0
22,53,1196.30335642432,1,0,115285.836057617,115286.883118324,0,24,3,1,1,36,7,4282262,4312430,2110121,1020080,1021061,0,1141090,2120111,0,0,0,0,0,1181130,0,0,1080100,0,0,2051200,0,0,0,0,0,0,0,0,2110121,0,0,0,0,0,0,0,0,0,0,-1020080
22,54,773.871450248407,0,0,115289.106689407,115290.15374434,0,24,3,1,0,8,3,1021200,0,3182391,4131150,0,0,0,0,0,0,0,-1021200,0,0,0,0,0,0,0,0,0,0,1121201,0,0,2061190,0,0,0,0,0,0,0,0,4131150,0,0,0,0,0
22,55,738.532803952694,1,0,115292.047883541,115293.094957337,0,24,3,1,1,4,3,1081161,6260361,3091150,0,0,0,0,-1081161,0,0,0,0,0,4110171,2150190,0,0,0,0,0,0,0,0,3091150,0,0,0,0,0,0,0,0,0,0,0,0,0,0,0,0
22,56,606.809557008091,0,0,115294.859713853,115295.906754927,0,24,3,0,0,15,3,0,6301261,0,5252310,0,0,0,0,0,0,0,0,0,0,0,0,0,0,-3111200,0,3190061,0,0,0,0,0,0,0,0,0,0,3171140,0,0,2081170,0,0,0,0,0
22,57,745.747357330401,0,0,115297.6126794,115298.659731638,0,24,3,0,0,12,3,2061121,5232221,3101161,0,0,0,0,0,2061121,0,0,0,0,0,0,-1151090,0,0,4081131,0,0,0,0,0,0,0,0,0,3101161,0,0,0,0,0,0,0,0,0,0,0
22,58,1094.92504221271,0,0,115300.47151614,115301.518590706,0,24,3,0,0,11,7,2041190,4110051,8302252,4261332,0,0,0,2041190,0,0,0,0,0,0,-3090041,0,0,0,0,0,0,1020010,2151070,0,0,4011171,0,0,2140011,0,0,0,0,0,0,3141141,0,1120191,0,0
22,59,632.877573443693,1,0,115303.671563798,115304.718624891,0,24,3,1,1,33,3,1061070,0,5151071,2190061,0,0,0,0,0,0,0,1061070,0,0,0,0,0,0,0,0,0,0,0,0,0,3110030,2041041,0,0,0,0,0,0,0,0,0,-2190061,0,0,0
22,60,624.98433390283,1,0,115306.530415937,115307.577483574,0,24,3,1,1,13,3,0,4121201,2070100,1190171,0,0,0,0,0,0,0,0,0,0,0,2050030,-2071171,0,0,0,0,0,2070100,0,0,0,0,0,0,0,0,0,0,0,0,0,0,1190171,0,0
22,61,690.233291999903,0,0,115309.295160519,115310.342214297,0,24,3,0,0,2,3,3040190,0,4322280,1090140,0,-3040190,0,0,0,0,0,0,0,0,0,0,0,0,0,0,0,0,0,3141200,1181080,0,0,0,0,0,0,0,0,0,1090140,0,0,0,0,0
22,62,791.091523962677,0,0,115312.095182924,115313.142250176,0,24,3,0,0,18,7,0,3191302,9441393,7251281,0,0,0,0,0,0,0,0,0,0,0,0,0,0,2021191,0,0,-1170111,3130111,0,0,0,1020061,0,1111081,0,4180140,0,0,0,3201150,0,4050131,0,0,0
22,63,1366.45571628469,1,0,115314.977569266,115316.024656536,0,24,3,1,1,35,7,5161111,6302241,0,11693442,0,0,0,2151051,3010060,0,0,0,0,3161040,0,0,0,0,0,0,3141201,0,0,0,0,0,0,0,0,0,0,0,0,4191191,3171010,0,0,0,-1161090,3170151
22,64,637.591805381817,1,0,115318.483502284,115319.530560682,0,24,3,0,1,10,7,4031111,4221131,5190161,10151201,0,4031111,0,0,0,0,0,0,0,-3070070,0,0,0,0,0,0,0,1151061,4080010,0,0,1110151,0,0,0,0,0,0,4011010,0,0,0,0,3120161,0,3020030
22,65,558.297931565903,1,0,115321.365886317,115322.412952414,0,24,3,0,1,20,7,5301072,11223513,4180121,3010050,0,0,0,3121021,0,0,0,0,2180051,0,4111161,0,0,0,0,3091151,0,4021201,0,-3030010,0,1150111,0,0,0,0,0,0,0,0,0,0,0,0,0,3010050
22,66,608.683162005036,0,0,115324.048301223,115325.095395807,0,24,3,0,0,6,3,1110071,0,4140011,5060311,0,0,0,0,0,-1110071,0,0,0,0,0,0,0,0,0,0,0,0,0,0,0,0,0,4140011,0,0,0,0,3030111,0,0,0,0,0,2030200,0
22,67,599.039120002999,0,0,115326.907128725,115327.954187507,0,24,3,0,0,19,3,2080312,0,6281312,0,1020161,0,0,0,1060151,0,0,0,0,0,0,0,0,0,0,0,0,0,-3110131,0,0,0,0,3171181,0,0,0,0,0,0,0,0,0,0,0,0
22,68,538.012798686395,1,0,115329.660097736,115330.707226582,0,24,3,1,1,3,7,3312141,0,12583524,1101011,0,2201051,-1111090,0,0,0,0,0,0,0,0,0,0,0,0,0,0,0,3191081,0,0,1141171,2041090,0,2180081,4030101,0,0,0,0,1101011,0,0,0,0,0
22,69,655.878605917678,1,0,115332.366013354,115333.413075216,0,24,3,1,1,17,3,4050072,2141201,3181140,0,0,3020011,0,0,0,1030061,0,0,0,0,0,0,0,0,0,0,-2141201,0,0,0,3181140,0,0,0,0,0,0,0,0,0,0,0,0,0,0,0
22,70,711.734516560682,1,0,115335.154280976,115336.201347843,0,24,3,0,1,34,7,4230301,11452300,0,3102332,0,1140191,0,0,0,0,3090110,0,0,0,1140030,2111120,4031020,0,4170130,0,0,0,0,0,0,0,0,0,0,0,0,0,0,0,0,1091161,0,-2011171,0,0
22,71,841.90637084248,1,0,115337.919015934,115338.966081646,0,24,3,1,1,25,7,0,1180150,8270313,10512421,0,0,0,0,0,0,0,0,0,0,0,0,0,0,1180150,0,0,0,0,1090071,3110111,0,0,0,-4070131,0,0,0,0,1091151,0,4060010,1201110,0,0,4160150
22,72,569.709329327452,0,0,115340.966117832,115342.013232435,0,24,3,1,0,29,3,4191031,0,5320171,1131200,0,0,0,4191031,0,0,0,0,0,0,0,0,0,0,0,0,0,0,2140081,0,0,0,0,0,0,3180090,0,0,-1131200,0,0,0,0,0,0,0
22,73,652.756187555497,0,0,115362.742899374,115363.789903492,0,24,4,1,0,4,3,1081161,6260361,3091150,0,0,0,0,-1081161,0,0,0,0,0,4110171,2150190,0,0,0,0,0,0,0,0,3091150,0,0,0,0,0,0,0,0,0,0,0,0,0,0,0,0
22,74,591.10738435993,1,0,115365.61346703,115366.660524273,0,24,4,0,1,11,3,0,6071262,4070071,1091141,0,0,0,0,0,0,0,0,0,0,-3051071,0,0,0,0,0,0,3020191,0,0,0,0,4070071,0,0,0,0,0,0,0,0,1091141,0,0,0,0
22,75,1074.96173669642,0,0,115368.448846944,115369.495853372,0,24,4,1,0,35,7,5161111,6302241,0,11693442,0,0,0,2151051,3010060,0,0,0,0,3161040,0,0,0,0,0,0,3141201,0,0,0,0,0,0,0,0,0,0,0,0,4191191,3171010,0,0,0,-1161090,3170151
22,76,453.442264974001,0,0,115371.684120455,115372.731184242,0,24,4,0,0,15,7,3200170,10390351,2060101,10433320,0,0,0,0,0,0,0,3200170,0,0,0,3030020,0,0,-4180181,0,3180150,0,0,2060101,0,0,0,0,0,0,0,0,4141140,2101090,0,0,0,4191090,0,0
22,77,1404.0263662464,0,0,115374.260616432,115375.307683299,0,24,4,1,0,25,7,0,1180150,8270313,10512421,0,0,0,0,0,0,0,0,0,0,0,0,0,0,1180150,0,0,0,0,1090071,3110111,0,0,0,-4070131,0,0,0,0,1091151,0,4060010,1201110,0,0,4160150
22,78,746.266284695594,0,0,115377.731246606,115378.778313473,0,24,4,1,0,24,7,9313441,1050191,9210222,0,1081131,0,0,0,0,3180080,3011050,0,2041180,0,0,0,0,0,0,0,1050191,0,0,0,0,3020120,0,-2060021,0,0,4130081,0,0,0,0,0,0,0,0,0
22,79,541.678011984914,1,0,115380.648939642,115381.696002275,0,24,4,1,1,8,3,1021200,0,3182391,4131150,0,0,0,0,0,0,0,-1021200,0,0,0,0,0,0,0,0,0,0,1121201,0,0,2061190,0,0,0,0,0,0,0,0,4131150,0,0,0,0,0
22,80,1565.63952205761,1,0,115383.354848716,115384.401910194,0,24,4,0,1,6,7,9372272,7191101,5321190,4101031,0,0,0,0,0,-4110070,3181181,2081021,0,3060030,0,4131071,0,0,0,0,0,0,0,0,0,0,0,0,0,3170160,2151030,0,0,0,0,0,0,4101031,0,0
22,81,675.095857091947,1,0,115387.037244374,115388.084314706,0,24,4,1,1,13,3,0,4121201,2070100,1190171,0,0,0,0,0,0,0,0,0,0,0,2050030,-2071171,0,0,0,0,0,2070100,0,0,0,0,0,0,0,0,0,0,0,0,0,0,1190171,0,0
22,82,882.216018027975,0,0,115389.896095743,115390.943166075,0,24,4,0,0,31,3,1081050,2041031,3200130,2150080,0,0,0,0,0,1081050,0,0,0,0,0,0,0,0,2041031,0,0,0,0,0,0,0,0,3200130,0,0,0,0,0,0,-2150080,0,0,0,0,0
22,83,1239.38433759031,1,0,115392.907905576,115393.954967053,0,24,4,0,1,10,7,0,4171191,7291120,10512591,0,0,0,0,0,0,0,0,0,-4171191,0,0,0,0,0,0,0,0,0,4200070,0,0,0,3091050,0,0,0,0,3171020,0,2060110,1030130,1081131,0,0,3170200
22,84,1185.75619602052,1,0,115396.319707555,115397.366770572,0,24,4,0,1,19,3,3080110,0,4222340,1011100,0,3080110,0,0,0,0,0,0,0,0,0,0,0,0,0,0,0,0,-3191190,0,1031150,0,0,0,0,0,0,0,0,0,1011100,0,0,0,0,0
22,85,736.219573533162,0,0,115399.602094128,115400.64916369,0,24,4,1,0,29,3,4191031,0,5320171,1131200,0,0,0,4191031,0,0,0,0,0,0,0,0,0,0,0,0,0,0,2140081,0,0,0,0,0,0,3180090,0,0,-1131200,0,0,0,0,0,0,0
22,86,882.677971181693,0,0,115402.472719528,115403.519786395,0,24,4,1,0,36,7,4282262,4312430,2110121,1020080,1021061,0,1141090,2120111,0,0,0,0,0,1181130,0,0,1080100,0,0,2051200,0,0,0,0,0,0,0,0,2110121,0,0,0,0,0,0,0,0,0,0,-1020080
22,87,1001.41302026168,0,0,115405.460994002,115406.508060099,0,24,4,1,0,33,3,1061070,0,5151071,2190061,0,0,0,0,0,0,0,1061070,0,0,0,0,0,0,0,0,0,0,0,0,0,3110030,2041041,0,0,0,0,0,0,0,0,0,-2190061,0,0,0
22,88,738.311066437745,1,0,115408.672791824,115409.719857921,0,24,4,0,1,12,3,0,9311411,0,0,0,0,0,0,0,0,0,0,0,1160030,0,-2040040,0,4060160,0,2051181,0,0,0,0,0,0,0,0,0,0,0,0,0,0,0,0,0,0,0,0
22,89,644.514173371135,0,0,115411.531641653,115412.578721608,0,24,4,0,0,2,3,2200140,0,6130371,4020170,0,-2200140,0,0,0,0,0,0,0,0,0,0,0,0,0,0,0,0,0,0,2040170,0,0,0,4090201,0,0,0,4020170,0,0,0,0,0,0,0
22,90,460.466262666159,1,0,115414.319915049,115415.366981916,0,24,4,0,1,20,7,8150202,4183301,2050161,1170140,0,4060120,0,1030011,0,0,0,0,3060071,0,2161140,0,0,1011081,0,0,0,1011080,0,-2050161,0,0,0,0,0,0,0,0,1170140,0,0,0,0,0,0,0
22,91,484.980961642577,0,0,115416.967005552,115418.014359215,0,24,4,1,0,27,7,4150170,4231281,9341192,8301251,0,0,0,0,0,0,0,0,4150170,0,0,2050141,0,0,0,0,2181140,0,0,0,4140030,0,0,3171101,0,0,-2030061,4121191,0,0,0,0,0,4180060,0,0
22,92,1585.33220001846,1,0,115419.672918476,115420.719989192,0,24,4,0,1,18,7,8230232,5291290,10493362,0,0,0,0,2120060,2040081,4070091,0,0,0,0,2150100,0,0,0,0,0,0,-3141190,3131061,0,0,0,3191191,0,0,0,4171110,0,0,0,0,0,0,0,0,0
22,93,879.005443610367,1,0,115423.414146563,115424.461207655,0,24,4,0,1,34,3,3292251,0,4120101,2010190,0,0,0,0,0,2181110,1111141,0,0,0,0,0,0,0,0,0,0,0,0,4120101,0,0,0,0,0,0,0,0,0,0,0,0,0,-2010190,0,0
22,94,862.601102184271,1,0,115426.44947443,115427.496538218,0,24,4,1,1,17,3,4050072,2141201,3181140,0,0,3020011,0,0,0,1030061,0,0,0,0,0,0,0,0,0,0,-2141201,0,0,0,3181140,0,0,0,0,0,0,0,0,0,0,0,0,0,0,0
22,95,687.076997070108,1,0,115429.425979108,115430.473045975,0,24,4,0,1,7,7,4301412,4371162,4121081,3062262,0,1100191,0,0,1040161,0,-2161060,0,0,3190051,0,0,0,1181111,0,0,0,0,0,0,4121081,0,0,0,0,0,0,0,2011191,0,0,0,0,0,1051071,0
22,96,743.873367347987,0,0,115432.320132937,115433.367204808,0,24,4,1,0,3,7,3312141,0,12583524,1101011,0,2201051,-1111090,0,0,0,0,0,0,0,0,0,0,0,0,0,0,0,3191081,0,0,1141171,2041090,0,2180081,4030101,0,0,0,0,1101011,0,0,0,0,0
22,97,547.42855882796,0,0,115451.073287499,115452.120361296,0,24,5,0,0,11,3,0,3341531,4121091,0,0,0,0,0,0,0,0,0,0,1111201,-1180150,0,0,0,0,1050180,0,0,0,4121091,0,0,0,0,0,0,0,0,0,0,0,0,0,0,0,0
22,98,1563.55534341128,0,0,115453.720380698,115454.76744333,0,24,5,0,0,20,7,6182322,10362452,5161132,0,1091141,0,0,0,0,0,0,1070160,4021021,0,3071201,0,4160121,0,0,0,3131130,0,3031031,-2130101,0,0,0,0,0,0,0,0,0,0,0,0,0,0,0,0
22,99,637.110989133362,1,0,115457.355716033,115458.402781745,0,24,5,1,1,17,3,4050072,2141201,3181140,0,0,3020011,0,0,0,1030061,0,0,0,0,0,0,0,0,0,0,-2141201,0,0,0,3181140,0,0,0,0,0,0,0,0,0,0,0,0,0,0,0
22,100,612.252135077142,1,0,115460.073408762,115461.120465235,0,24,5,0,1,15,3,0,10321313,4071070,0,0,0,0,0,0,0,0,0,0,0,0,0,3021071,0,-4140121,0,3160121,0,0,4071070,0,0,0,0,0,0,0,0,0,0,0,0,0,0,0,0
22,101,759.514331220998,0,0,115462.791073004,115463.83815065,0,24,5,1,0,8,3,1021200,0,3182391,4131150,0,0,0,0,0,0,0,-1021200,0,0,0,0,0,0,0,0,0,0,1121201,0,0,2061190,0,0,0,0,0,0,0,0,4131150,0,0,0,0,0
22,102,622.82316305209,1,0,115465.696992394,115466.744055797,0,24,5,1,1,4,3,1081161,6260361,3091150,0,0,0,0,-1081161,0,0,0,0,0,4110171,2150190,0,0,0,0,0,0,0,0,3091150,0,0,0,0,0,0,0,0,0,0,0,0,0,0,0,0
22,103,1227.12718059483,0,0,115468.473496764,115469.520564401,0,24,5,0,0,31,7,2191011,4231221,7381392,1201151,0,0,0,0,0,0,2191011,0,0,0,0,0,0,1120180,3111041,0,0,0,0,0,1160041,2080150,0,0,0,3071010,1070191,0,0,0,-1201151,0,0,0,0,0
22,104,1428.3308765298,1,0,115471.838298475,115472.885309907,0,24,5,1,1,25,7,0,1180150,8270313,10512421,0,0,0,0,0,0,0,0,0,0,0,0,0,0,1180150,0,0,0,0,1090071,3110111,0,0,0,-4070131,0,0,0,0,1091151,0,4060010,1201110,0,0,4160150
22,105,827.432993581169,0,0,115475.450035703,115476.497109115,0,24,5,0,0,6,7,10422281,2080191,4200070,2161221,0,0,3200091,0,0,-4111090,2051070,0,1060030,0,0,0,0,2080191,0,0,0,0,0,0,0,0,0,0,0,4200070,0,0,0,1111141,0,1050080,0,0,0,0
22,106,573.124318019836,0,0,115478.42655347,115479.473619952,0,24,5,1,0,36,7,4282262,4312430,2110121,1020080,1021061,0,1141090,2120111,0,0,0,0,0,1181130,0,0,1080100,0,0,2051200,0,0,0,0,0,0,0,0,2110121,0,0,0,0,0,0,0,0,0,0,-1020080
22,107,799.12257954129,0,0,115481.132476017,115482.179525561,0,24,5,1,0,35,7,5161111,6302241,0,11693442,0,0,0,2151051,3010060,0,0,0,0,3161040,0,0,0,0,0,0,3141201,0,0,0,0,0,0,0,0,0,0,0,0,4191191,3171010,0,0,0,-1161090,3170151
22,108,638.779024971882,1,0,115484.167806194,115485.214861127,0,24,5,1,1,3,7,3312141,0,12583524,1101011,0,2201051,-1111090,0,0,0,0,0,0,0,0,0,0,0,0,0,0,0,3191081,0,0,1141171,2041090,0,2180081,4030101,0,0,0,0,1101011,0,0,0,0,0
22,109,692.024515345111,1,0,115487.03842428,115488.085474209,0,24,5,0,1,18,3,0,9311430,0,2071080,0,0,0,0,0,0,0,0,0,0,4110120,0,0,0,3041170,0,0,-2160140,0,0,0,0,0,0,0,0,0,0,0,0,2071080,0,0,0,0,0
22,110,589.935178228188,1,0,115489.791390597,115490.838458618,0,24,5,1,1,24,7,9313441,1050191,9210222,0,1081131,0,0,0,0,3180080,3011050,0,2041180,0,0,0,0,0,0,0,1050191,0,0,0,0,3020120,0,-2060021,0,0,4130081,0,0,0,0,0,0,0,0,0
22,111,494.273534277454,1,0,115492.55612594,115493.603201661,0,24,5,1,1,29,3,4191031,0,5320171,1131200,0,0,0,4191031,0,0,0,0,0,0,0,0,0,0,0,0,0,0,2140081,0,0,0,0,0,0,3180090,0,0,-1131200,0,0,0,0,0,0,0
22,112,936.821190523915,0,0,115495.132631156,115496.179721891,0,24,5,0,0,7,7,2190050,3201131,15413663,4171200,0,0,0,0,0,0,-2190050,0,0,3201131,0,0,0,0,0,0,0,0,0,4040140,0,4190071,1021181,2131121,4031150,0,0,0,0,0,0,0,0,0,0,4171200
22,113,953.066543079331,0,0,115498.29737443,115499.344436677,0,24,5,1,0,13,3,0,4121201,2070100,1190171,0,0,0,0,0,0,0,0,0,0,0,2050030,-2071171,0,0,0,0,0,2070100,0,0,0,0,0,0,0,0,0,0,0,0,0,0,1190171,0,0
22,114,719.528436180553,1,0,115501.332712306,115502.379770319,0,24,5,0,1,2,3,4121011,1170081,0,8140112,0,-4121011,0,0,0,0,0,0,0,0,0,1170081,0,0,0,0,0,0,0,0,0,0,0,0,0,0,0,0,4110031,0,0,0,0,4030081,0,0
22,115,834.252961969469,0,0,115504.120965299,115505.16804256,0,24,5,0,0,10,7,2201131,3181070,5350152,10352454,0,0,2201131,0,0,0,0,0,0,-3181070,0,0,0,0,0,0,0,0,0,0,0,0,1160131,0,4190021,0,0,0,3070121,0,4090071,2061161,0,0,1131101,0
22,116,843.808077974245,1,0,115507.097479216,115508.144592663,0,24,5,0,1,34,3,6280101,0,0,5090151,0,0,0,2100071,0,0,4180030,0,0,0,0,0,0,0,0,0,0,0,0,0,0,0,0,0,0,0,0,0,0,0,2080111,0,0,-3010040,0,0
22,117,945.419293580926,0,0,115510.085745991,115511.132825947,0,24,5,1,0,27,7,4150170,4231281,9341192,8301251,0,0,0,0,0,0,0,0,4150170,0,0,2050141,0,0,0,0,2181140,0,0,0,4140030,0,0,3171101,0,0,-2030061,4121191,0,0,0,0,0,4180060,0,0
22,118,685.479024134111,0,1,115513.238726012,115514.285794804,0,24,5,0,1,19,7,9262431,0,5310341,7360281,0,0,4041050,0,1180181,4041200,0,0,0,0,0,0,0,0,0,0,0,0,-1110170,1070160,0,0,0,0,0,3130011,0,3160091,0,0,4200190,0,0,0,0,0
22,119,739.004766088328,0,0,115516.062286855,115517.109372585,0,24,5,1,0,33,3,1061070,0,5151071,2190061,0,0,0,0,0,0,0,1061070,0,0,0,0,0,0,0,0,0,0,0,0,0,3110030,2041041,0,0,0,0,0,0,0,0,0,-2190061,0,0,0
22,120,663.748747800128,0,0,115519.003500236,115520.050569798,0,24,5,0,0,12,3,0,7262142,7201112,0,0,0,0,0,0,0,0,0,0,0,4081041,-3181101,0,0,0,0,0,0,0,0,0,0,3121021,4080091,0,0,0,0,0,0,0,0,0,0,0,0
22,121,784.616480596014,0,0,115541.015513328,115542.062592129,0,24,6,1,0,13,3,0,4121201,2070100,1190171,0,0,0,0,0,0,0,0,0,0,0,2050030,-2071171,0,0,0,0,0,2070100,0,0,0,0,0,0,0,0,0,0,0,0,0,0,1190171,0,0
22,122,1842.68899646122,0,0,115543.874378556,115544.921447347,0,24,6,0,0,2,7,7262252,7322271,0,9312303,0,-4141071,0,2031110,1090071,0,0,0,0,0,0,0,0,0,0,0,4121140,3201131,0,0,0,0,0,0,0,0,0,0,0,0,4010011,4121141,0,0,0,1181151
22,123,530.213104648283,1,0,115547.803841004,115548.850902866,0,24,6,1,1,29,3,4191031,0,5320171,1131200,0,0,0,4191031,0,0,0,0,0,0,0,0,0,0,0,0,0,0,2140081,0,0,0,0,0,0,3180090,0,0,-1131200,0,0,0,0,0,0,0
22,124,679.567178653087,0,0,115550.533287746,115551.580353073,0,24,6,0,0,10,7,5272242,5151381,3180130,4091171,0,0,1120081,0,2071111,0,0,2081050,0,-1020091,2081090,0,0,0,2050200,0,0,0,0,0,3180130,0,0,0,0,0,0,0,0,0,0,0,4091171,0,0,0
22,125,584.611168131232,1,0,115553.333314,115554.380380867,0,24,6,0,1,34,3,2131120,0,2120131,5241302,0,0,2131120,0,0,0,0,0,0,0,0,0,0,0,0,0,0,0,0,2120131,0,0,0,0,0,0,0,0,3201201,0,0,0,0,-2040101,0,0
22,126,1730.82742534461,1,0,115556.09808168,115557.145118135,0,24,6,0,1,31,7,11241203,2110020,6293151,3130061,0,4170071,0,0,4010061,3061071,0,0,0,0,0,2110020,0,0,0,0,0,0,0,1031030,1141111,0,4121010,0,0,0,0,0,0,0,-3130061,0,0,0,0,0
22,127,636.341452176566,0,0,115560.039281588,115561.086342295,0,24,6,1,0,35,7,5161111,6302241,0,11693442,0,0,0,2151051,3010060,0,0,0,0,3161040,0,0,0,0,0,0,3141201,0,0,0,0,0,0,0,0,0,0,0,0,4191191,3171010,0,0,0,-1161090,3170151
22,128,988.291240952094,1,0,115562.733426255,115563.780490042,0,24,6,0,1,7,7,2170290,7482272,4230271,0,0,0,0,0,0,0,-1030200,1140090,0,1200011,4201170,2081091,0,0,0,0,0,0,2060021,1100180,0,0,1070070,0,0,0,0,0,0,0,0,0,0,0,0,0
22,129,739.318509280565,1,0,115565.980526151,115567.027589169,0,24,6,0,1,6,3,6321102,1190020,4031190,0,0,3190041,0,0,0,-3131061,0,0,0,0,0,0,1190020,0,0,0,0,0,0,0,0,4031190,0,0,0,0,0,0,0,0,0,0,0,0,0,0
22,130,686.798670314602,1,0,115568.815871419,115569.862917498,0,24,6,1,1,4,3,1081161,6260361,3091150,0,0,0,0,-1081161,0,0,0,0,0,4110171,2150190,0,0,0,0,0,0,0,0,3091150,0,0,0,0,0,0,0,0,0,0,0,0,0,0,0,0
22,131,577.748469091603,1,0,115571.757055158,115572.804128955,0,24,6,0,1,11,3,5211201,2180040,4120040,0,0,0,0,0,2130090,0,0,0,3081111,0,-2180040,0,0,0,0,0,0,0,0,0,4120040,0,0,0,0,0,0,0,0,0,0,0,0,0,0,0
22,132,759.40384741989,1,0,115574.45120714,115575.498274006,0,24,6,1,1,3,7,3312141,0,12583524,1101011,0,2201051,-1111090,0,0,0,0,0,0,0,0,0,0,0,0,0,0,0,3191081,0,0,1141171,2041090,0,2180081,4030101,0,0,0,0,1101011,0,0,0,0,0
22,133,580.720752666821,1,0,115577.321832154,115578.368897097,0,24,6,1,1,8,3,1021200,0,3182391,4131150,0,0,0,0,0,0,0,-1021200,0,0,0,0,0,0,0,0,0,0,1121201,0,0,2061190,0,0,0,0,0,0,0,0,4131150,0,0,0,0,0
22,134,810.1494013099,0,0,115580.039524113,115581.086572502,0,24,6,0,0,20,3,6131182,3031181,3080041,0,3030031,0,0,0,0,0,0,0,3101151,0,0,0,0,0,0,3031181,0,0,0,-3080041,0,0,0,0,0,0,0,0,0,0,0,0,0,0,0,0
22,135,625.928258174099,1,0,115583.086662583,115584.133715976,0,24,6,0,1,12,7,8343442,6351332,4041171,1050060,0,2061160,3101111,0,0,0,0,3181171,0,1090151,0,-4070030,0,0,1191151,0,0,0,0,4041171,0,0,0,0,0,0,0,0,0,1050060,0,0,0,0,0,0
22,136,1694.09060082398,0,0,115585.945457748,115586.992519225,0,24,6,0,0,18,7,4221121,3171081,7411271,2201262,2021040,0,0,0,2200081,0,0,0,0,0,0,0,0,0,0,0,0,-3171081,0,0,2170160,0,2160061,3081050,0,0,0,0,0,0,0,0,1021091,0,1180171,0
22,137,699.731818749569,0,0,115589.792560493,115590.839664316,0,24,6,1,0,24,7,9313441,1050191,9210222,0,1081131,0,0,0,0,3180080,3011050,0,2041180,0,0,0,0,0,0,0,1050191,0,0,0,0,3020120,0,-2060021,0,0,4130081,0,0,0,0,0,0,0,0,0
22,138,584.585760720074,0,0,115592.674952609,115593.722017552,0,24,6,1,0,36,7,4282262,4312430,2110121,1020080,1021061,0,1141090,2120111,0,0,0,0,0,1181130,0,0,1080100,0,0,2051200,0,0,0,0,0,0,0,0,2110121,0,0,0,0,0,0,0,0,0,0,-1020080
22,139,997.282774100313,1,0,115595.510281709,115596.557347806,0,24,6,1,1,25,7,0,1180150,8270313,10512421,0,0,0,0,0,0,0,0,0,0,0,0,0,0,1180150,0,0,0,0,1090071,3110111,0,0,0,-4070131,0,0,0,0,1091151,0,4060010,1201110,0,0,4160150
22,140,1167.41819567687,0,0,115598.733850482,115599.780916579,0,24,6,1,0,27,7,4150170,4231281,9341192,8301251,0,0,0,0,0,0,0,0,4150170,0,0,2050141,0,0,0,0,2181140,0,0,0,4140030,0,0,3171101,0,0,-2030061,4121191,0,0,0,0,0,4180060,0,0
22,141,715.580276562832,0,0,115602.039770488,115603.086831196,0,24,6,1,0,33,3,1061070,0,5151071,2190061,0,0,0,0,0,0,0,1061070,0,0,0,0,0,0,0,0,0,0,0,0,0,3110030,2041041,0,0,0,0,0,0,0,0,0,-2190061,0,0,0
22,142,544.111735187471,1,0,115604.922155676,115605.969215613,0,24,6,1,1,17,3,4050072,2141201,3181140,0,0,3020011,0,0,0,1030061,0,0,0,0,0,0,0,0,0,0,-2141201,0,0,0,3181140,0,0,0,0,0,0,0,0,0,0,0,0,0,0,0
22,143,652.90516744426,0,0,115607.557490241,115608.604547869,0,24,6,0,0,15,3,0,4271290,5220142,0,0,0,0,0,0,0,0,0,0,0,0,0,0,1190180,-3081110,0,0,0,0,0,0,0,0,4180101,1040041,0,0,0,0,0,0,0,0,0,0,0
22,144,826.593393721851,0,0,115610.345752474,115611.392817031,0,24,6,0,0,19,3,0,0,1160050,10332202,0,0,0,0,0,0,0,0,0,0,0,0,0,0,0,0,0,0,-1160050,0,0,0,0,0,0,0,0,4110070,0,0,3151081,0,0,0,0,3071051
22,145,580.815453067771,1,0,115631.73426162,115632.781299615,0,24,7,1,1,36,7,4282262,4312430,2110121,1020080,1021061,0,1141090,2120111,0,0,0,0,0,1181130,0,0,1080100,0,0,2051200,0,0,0,0,0,0,0,0,2110121,0,0,0,0,0,0,0,0,0,0,-1020080
22,146,776.649328545318,1,0,115634.534264007,115635.581326639,0,24,7,1,1,3,7,3312141,0,12583524,1101011,0,2201051,-1111090,0,0,0,0,0,0,0,0,0,0,0,0,0,0,0,3191081,0,0,1141171,2041090,0,2180081,4030101,0,0,0,0,1101011,0,0,0,0,0
22,147,845.039953055675,1,1,115637.451949729,115638.499005047,0,24,7,1,0,24,7,9313441,1050191,9210222,0,1081131,0,0,0,0,3180080,3011050,0,2041180,0,0,0,0,0,0,0,1050191,0,0,0,0,3020120,0,-2060021,0,0,4130081,0,0,0,0,0,0,0,0,0
22,148,794.754812464817,0,0,115640.393164651,115641.440229208,0,24,7,1,0,13,3,0,4121201,2070100,1190171,0,0,0,0,0,0,0,0,0,0,0,2050030,-2071171,0,0,0,0,0,2070100,0,0,0,0,0,0,0,0,0,0,0,0,0,0,1190171,0,0
22,149,515.283933622413,1,0,115643.416718102,115644.463789974,0,24,7,1,1,29,3,4191031,0,5320171,1131200,0,0,0,4191031,0,0,0,0,0,0,0,0,0,0,0,0,0,0,2140081,0,0,0,0,0,0,3180090,0,0,-1131200,0,0,0,0,0,0,0
22,150,727.567190973787,0,0,115646.087348968,115647.134404671,0,24,7,0,0,15,3,0,5282393,1061051,0,0,0,0,0,0,0,0,0,0,0,3120121,0,0,1111181,-1051091,0,0,0,0,0,0,0,0,1061051,0,0,0,0,0,0,0,0,0,0,0,0
22,151,649.924799683504,0,0,115649.005075497,115650.05208385,0,24,7,0,0,11,7,4200131,8370270,5262180,3281222,0,0,4200131,0,0,0,0,0,0,4180140,-4190130,0,0,0,0,0,0,0,0,4131040,0,1131140,0,0,0,0,0,1121081,0,1030060,0,0,1130081,0,0,0
22,152,1027.76667774015,0,0,115651.80505979,115652.852163614,0,24,7,0,0,19,7,0,6200170,11360292,6251501,0,0,0,0,0,0,0,0,0,0,0,0,3060070,3140100,0,0,0,0,-4200201,3120011,4040080,0,0,0,0,0,0,1170171,1041190,0,0,0,0,4040140,0,0
22,153,1704.19082157605,0,0,115654.922735427,115655.969800369,0,24,7,0,0,2,7,5242391,0,2170081,11592380,2081080,-1100160,0,0,0,2061151,0,0,0,0,0,0,0,0,0,0,0,0,0,0,0,0,0,0,2170081,0,0,0,0,4101150,2090030,0,3200030,0,2201170,0
22,154,1011.32768981915,1,0,115658.840426154,115659.887499565,0,24,7,0,1,34,7,6271181,5321282,6131201,1100021,0,0,3170171,3101010,0,0,0,0,0,0,0,2040161,2091101,0,0,1190020,0,0,0,4091150,0,0,0,2040051,0,0,0,0,0,0,0,0,0,-1100021,0,0
22,155,1218.09522651893,1,0,115662.087530285,115663.134594457,0,24,7,1,1,33,3,1061070,0,5151071,2190061,0,0,0,0,0,0,0,1061070,0,0,0,0,0,0,0,0,0,0,0,0,0,3110030,2041041,0,0,0,0,0,0,0,0,0,-2190061,0,0,0
22,156,860.955009105965,0,0,115665.381677801,115666.428739663,0,24,7,1,0,27,7,4150170,4231281,9341192,8301251,0,0,0,0,0,0,0,0,4150170,0,0,2050141,0,0,0,0,2181140,0,0,0,4140030,0,0,3171101,0,0,-2030061,4121191,0,0,0,0,0,4180060,0,0
22,157,553.603717606165,1,0,115668.417016832,115669.464077924,0,24,7,1,1,17,3,4050072,2141201,3181140,0,0,3020011,0,0,0,1030061,0,0,0,0,0,0,0,0,0,0,-2141201,0,0,0,3181140,0,0,0,0,0,0,0,0,0,0,0,0,0,0,0
22,158,550.833923480241,0,0,115671.169979299,115672.217050015,0,24,7,0,0,20,3,3121091,0,1191191,7130310,0,0,0,3121091,0,0,0,0,0,0,0,0,0,0,0,0,0,0,0,-1191191,0,0,0,0,0,0,0,0,0,0,4060130,0,0,3070180,0,0
22,159,624.488889137865,1,0,115673.970017487,115675.017084354,0,24,7,1,1,4,3,1081161,6260361,3091150,0,0,0,0,-1081161,0,0,0,0,0,4110171,2150190,0,0,0,0,0,0,0,0,3091150,0,0,0,0,0,0,0,0,0,0,0,0,0,0,0,0
22,160,826.559132197872,1,0,115676.770050671,115677.817120232,0,24,7,0,1,7,3,6422171,0,4061031,0,0,0,1071050,0,0,1181071,-4170050,0,0,0,0,0,0,0,0,0,0,0,0,0,0,4061031,0,0,0,0,0,0,0,0,0,0,0,0,0,0
22,161,712.730795523385,0,0,115679.723014216,115680.770089167,0,24,7,0,0,18,3,2100021,4170121,4301192,0,0,0,0,0,0,0,0,2100021,0,0,0,0,0,0,0,0,0,-4170121,0,0,1141161,0,0,0,3160031,0,0,0,0,0,0,0,0,0,0,0
22,162,1225.04608164309,1,0,115682.558357173,115683.605418266,0,24,7,0,1,31,7,0,1201130,8281192,6403262,0,0,0,0,0,0,0,0,0,0,0,0,0,0,0,0,1201130,0,0,0,1150040,4030141,0,0,3101011,0,0,1031071,0,2161100,-1151060,2060031,0,0,0,0
22,163,1244.28065605753,1,0,115686.017221015,115687.064279413,0,24,7,1,1,35,7,5161111,6302241,0,11693442,0,0,0,2151051,3010060,0,0,0,0,3161040,0,0,0,0,0,0,3141201,0,0,0,0,0,0,0,0,0,0,0,0,4191191,3171010,0,0,0,-1161090,3170151
22,164,727.53562417347,1,0,115689.487850034,115690.534909971,0,24,7,1,1,25,7,0,1180150,8270313,10512421,0,0,0,0,0,0,0,0,0,0,0,0,0,0,1180150,0,0,0,0,1090071,3110111,0,0,0,-4070131,0,0,0,0,1091151,0,4060010,1201110,0,0,4160150
22,165,661.094826937187,1,0,115692.311410491,115693.358472739,0,24,7,1,1,8,3,1021200,0,3182391,4131150,0,0,0,0,0,0,0,-1021200,0,0,0,0,0,0,0,0,0,0,1121201,0,0,2061190,0,0,0,0,0,0,0,0,4131150,0,0,0,0,0
22,166,979.06642142334,0,0,115695.158493604,115696.205566245,0,24,7,0,0,12,3,3070091,2141161,0,8100240,0,0,0,0,0,0,0,3070091,0,0,0,-2141161,0,0,0,0,0,0,0,0,0,0,0,0,0,0,0,0,4020120,0,0,0,0,0,0,4080120
22,167,692.035679210676,0,0,115698.323241497,115699.370306054,0,24,7,0,0,10,7,0,12524284,10382292,0,0,0,0,0,0,0,0,0,0,-4181171,1171011,0,0,4151091,3021011,0,0,0,3041051,0,0,2060011,0,0,0,4151060,1130170,0,0,0,0,0,0,0,0,0
22,168,804.297224778566,0,0,115701.076215512,115702.12327853,0,24,7,0,0,6,3,2141100,4200181,0,2121100,0,0,0,0,0,-2141100,0,0,0,0,2070041,0,2130140,0,0,0,0,0,0,0,0,0,0,0,0,0,0,0,2121100,0,0,0,0,0,0,0
22,169,830.00491776329,1,0,115716.688155616,115717.735226717,0,24,8,0,1,7,3,3150061,3292301,0,2050081,0,0,0,0,0,0,-3150061,0,0,0,2191100,0,0,0,0,0,1101201,0,0,0,0,0,0,0,0,0,0,0,0,0,0,0,0,2050081,0,0
22,170,1235.77840827056,0,0,115719.570550812,115720.617613444,0,24,8,1,0,25,7,0,1180150,8270313,10512421,0,0,0,0,0,0,0,0,0,0,0,0,0,0,1180150,0,0,0,0,1090071,3110111,0,0,0,-4070131,0,0,0,0,1091151,0,4060010,1201110,0,0,4160150
22,171,733.792009705212,0,0,115722.935345978,115723.982360105,0,24,8,1,0,36,7,4282262,4312430,2110121,1020080,1021061,0,1141090,2120111,0,0,0,0,0,1181130,0,0,1080100,0,0,2051200,0,0,0,0,0,0,0,0,2110121,0,0,0,0,0,0,0,0,0,0,-1020080
22,172,724.269615369849,1,0,115725.758857546,115726.805923258,0,24,8,0,1,11,3,3021190,7100231,2171170,0,3021190,0,0,0,0,0,0,0,0,0,-4090031,0,3010200,0,0,0,0,0,2171170,0,0,0,0,0,0,0,0,0,0,0,0,0,0,0,0,0
22,173,1404.14416430576,1,0,115728.711831485,115729.758897582,0,24,8,1,1,13,3,0,4121201,2070100,1190171,0,0,0,0,0,0,0,0,0,0,0,2050030,-2071171,0,0,0,0,0,2070100,0,0,0,0,0,0,0,0,0,0,0,0,0,0,1190171,0,0
22,174,864.981700768112,0,0,115732.300112657,115733.347233803,0,24,8,0,0,12,3,0,9572250,2190011,0,0,0,0,0,0,0,0,0,0,0,0,-4190070,0,0,2201050,3181130,0,0,0,0,0,2190011,0,0,0,0,0,0,0,0,0,0,0,0,0,0
22,175,1239.17953835917,1,0,115735.311911326,115736.358975113,0,24,8,0,1,19,7,2171190,10474522,4151122,1010160,0,2171190,0,0,0,0,0,0,0,1121111,4041101,0,4191190,0,0,1121120,0,0,-1071051,0,0,0,3080071,0,0,0,0,0,0,0,0,0,1010160,0,0,0
22,176,1066.09762560402,0,0,115738.66488511,115739.711949283,0,24,8,1,0,35,7,5161111,6302241,0,11693442,0,0,0,2151051,3010060,0,0,0,0,3161040,0,0,0,0,0,0,3141201,0,0,0,0,0,0,0,0,0,0,0,0,4191191,3171010,0,0,0,-1161090,3170151
22,177,1208.66252809356,1,0,115741.900230224,115742.947282463,0,24,8,0,1,34,3,0,4190110,1030061,3232220,0,0,0,0,0,0,0,0,0,0,0,0,0,0,4190110,0,0,0,0,0,0,0,0,0,0,1030061,0,0,0,0,0,2091020,0,-1141200,0,0
22,178,1727.27192590537,0,0,115745.2296725,115746.276737827,0,24,8,1,0,33,3,1061070,0,5151071,2190061,0,0,0,0,0,0,0,1061070,0,0,0,0,0,0,0,0,0,0,0,0,0,3110030,2041041,0,0,0,0,0,0,0,0,0,-2190061,0,0,0
22,179,719.268587534316,1,0,115749.029718388,115750.07678025,0,24,8,1,1,17,3,4050072,2141201,3181140,0,0,3020011,0,0,0,1030061,0,0,0,0,0,0,0,0,0,0,-2141201,0,0,0,3181140,0,0,0,0,0,0,0,0,0,0,0,0,0,0,0
22,180,808.822825842071,1,0,115751.817974846,115752.865052876,0,24,8,0,1,2,3,4061181,3060051,0,6252091,0,-4061181,0,0,0,0,0,0,0,0,0,0,0,0,0,0,3060051,0,0,0,0,0,0,0,0,0,0,0,0,4161051,0,2091040,0,0,0,0
22,181,1079.77259381732,0,0,115754.818033745,115755.865087138,0,24,8,0,0,10,3,3051110,1160190,0,8161211,3051110,0,0,0,0,0,0,0,0,-1160190,0,0,0,0,0,0,0,0,0,0,0,0,0,0,0,0,0,0,0,0,0,0,0,4141170,4020041,0
22,182,1260.33891759289,0,0,115757.994524872,115759.041592509,0,24,8,1,0,4,3,1081161,6260361,3091150,0,0,0,0,-1081161,0,0,0,0,0,4110171,2150190,0,0,0,0,0,0,0,0,3091150,0,0,0,0,0,0,0,0,0,0,0,0,0,0,0,0
22,183,1075.04835291184,1,0,115761.488681934,115762.535749571,0,24,8,0,1,20,7,7381320,4072351,7361151,1030100,0,0,0,0,4110150,1181040,2090130,0,0,0,0,0,0,0,0,0,3011170,1061181,4181051,-3180100,0,0,0,0,0,0,0,0,0,0,0,0,1030100,0,0,0
22,184,780.20598286821,0,0,115764.794603096,115765.841670733,0,24,8,1,0,27,7,4150170,4231281,9341192,8301251,0,0,0,0,0,0,0,0,4150170,0,0,2050141,0,0,0,0,2181140,0,0,0,4140030,0,0,3171101,0,0,-2030061,4121191,0,0,0,0,0,4180060,0,0
22,185,884.021099976962,0,0,115767.688763469,115768.735876146,0,24,8,1,0,3,7,3312141,0,12583524,1101011,0,2201051,-1111090,0,0,0,0,0,0,0,0,0,0,0,0,0,0,0,3191081,0,0,1141171,2041090,0,2180081,4030101,0,0,0,0,1101011,0,0,0,0,0
22,186,1416.20691602293,0,0,115770.712318075,115771.759381478,0,24,8,1,0,24,7,9313441,1050191,9210222,0,1081131,0,0,0,0,3180080,3011050,0,2041180,0,0,0,0,0,0,0,1050191,0,0,0,0,3020120,0,-2060021,0,0,4130081,0,0,0,0,0,0,0,0,0
22,187,1023.68224193924,0,0,115774.28884177,115775.335903248,0,24,8,0,0,15,7,5111261,7201152,7330342,2050200,1051180,0,4060081,0,0,0,0,0,0,0,4161071,0,0,0,-3040081,0,0,0,0,0,0,0,2190181,2060011,0,0,3080150,0,0,0,0,0,0,0,0,2050200
22,188,1299.9667989352,0,0,115777.500628043,115778.547698374,0,24,8,0,0,6,7,5382230,5202251,4161060,8311211,0,0,3150140,0,0,-1101060,0,1131030,0,0,1071100,0,0,0,4131151,0,0,0,4161060,0,0,0,0,0,0,0,0,0,4150171,0,0,0,0,0,0,4161040
22,189,970.848659795593,1,0,115781.053615609,115782.100675547,0,24,8,0,1,31,7,4221342,1181101,2070130,9272402,0,0,0,0,0,1130201,0,3091141,0,1181101,0,0,0,0,0,0,0,0,0,0,0,0,2070130,0,0,0,0,0,0,0,-1091061,4030010,3010181,0,0,1141150
22,190,1121.68637334253,1,0,115784.194853551,115785.241892701,0,24,8,0,1,18,7,6281240,6281261,11482471,1151031,0,0,0,0,2121180,0,0,4160060,0,0,0,0,0,0,0,2091181,0,-4190080,0,0,0,4140180,3181150,0,0,0,4161141,0,1151031,0,0,0,0,0,0,0
22,191,831.109370745253,1,0,115787.524281199,115788.571347681,0,24,8,1,1,8,3,1021200,0,3182391,4131150,0,0,0,0,0,0,0,-1021200,0,0,0,0,0,0,0,0,0,0,1121201,0,0,2061190,0,0,0,0,0,0,0,0,4131150,0,0,0,0,0
22,192,737.74363398843,1,0,115790.453732098,115791.500791651,0,24,8,1,1,29,3,4191031,0,5320171,1131200,0,0,0,4191031,0,0,0,0,0,0,0,0,0,0,0,0,0,0,2140081,0,0,0,0,0,0,3180090,0,0,-1131200,0,0,0,0,0,0,0
22,193,866.780623327941,1,0,115805.865668429,115806.912731831,0,24,9,0,1,11,3,0,4191010,2161071,5171261,0,0,0,0,0,0,0,0,0,0,-4191010,0,0,0,0,0,0,0,0,0,0,0,0,0,2161071,0,0,1050201,4121060,0,0,0,0,0,0,0
22,194,836.684375390178,0,0,115808.971633168,115810.018651145,0,24,9,1,0,4,3,1081161,6260361,3091150,0,0,0,0,-1081161,0,0,0,0,0,4110171,2150190,0,0,0,0,0,0,0,0,3091150,0,0,0,0,0,0,0,0,0,0,0,0,0,0,0,0
22,195,856.588781884057,0,0,115811.924596713,115812.971625084,0,24,9,1,0,25,7,0,1180150,8270313,10512421,0,0,0,0,0,0,0,0,0,0,0,0,0,0,1180150,0,0,0,0,1090071,3110111,0,0,0,-4070131,0,0,0,0,1091151,0,4060010,1201110,0,0,4160150
22,196,660.99011755432,0,0,115814.889307727,115815.936423099,0,24,9,1,0,8,3,1021200,0,3182391,4131150,0,0,0,0,0,0,0,-1021200,0,0,0,0,0,0,0,0,0,0,1121201,0,0,2061190,0,0,0,0,0,0,0,0,4131150,0,0,0,0,0
22,197,666.607852865127,0,0,115817.783454626,115818.830528423,0,24,9,1,0,17,3,4050072,2141201,3181140,0,0,3020011,0,0,0,1030061,0,0,0,0,0,0,0,0,0,0,-2141201,0,0,0,3181140,0,0,0,0,0,0,0,0,0,0,0,0,0,0,0
22,198,733.072902628919,0,0,115820.607015854,115821.654086186,0,24,9,0,0,12,7,1180140,11542514,0,5320211,0,0,0,0,0,0,0,1180140,0,0,0,-3060131,2121180,2200041,0,1141101,0,3020061,0,0,0,0,0,0,0,0,0,0,0,0,0,0,2200141,0,0,3120070
22,199,546.483094716677,0,0,115823.477639329,115824.524701576,0,24,9,1,0,13,3,0,4121201,2070100,1190171,0,0,0,0,0,0,0,0,0,0,0,2050030,-2071171,0,0,0,0,0,2070100,0,0,0,0,0,0,0,0,0,0,0,0,0,0,1190171,0,0
22,200,1416.04715722497,1,0,115826.254144854,115827.301199017,0,24,9,0,1,31,7,6322101,5160351,3191171,8332131,2130040,2111040,0,0,2081021,0,0,0,0,0,0,0,0,1100180,0,4060171,0,0,0,0,0,0,0,0,3191171,0,0,0,0,0,-4161060,0,0,4171071,0,0
22,201,1732.91506864189,1,0,115829.901290022,115830.948308383,0,24,9,1,1,35,7,5161111,6302241,0,11693442,0,0,0,2151051,3010060,0,0,0,0,3161040,0,0,0,0,0,0,3141201,0,0,0,0,0,0,0,0,0,0,0,0,4191191,3171010,0,0,0,-1161090,3170151
22,202,612.314498750493,1,0,115833.724820452,115834.771879235,0,24,9,0,1,15,3,3080131,1190011,3151131,1051031,0,0,0,0,3080131,0,0,0,0,0,0,0,0,0,-1190011,0,0,0,3151131,0,0,0,0,0,0,0,0,0,0,0,1051031,0,0,0,0,0
22,203,873.560940744937,0,0,115836.536618428,115837.583676056,0,24,9,1,0,3,7,3312141,0,12583524,1101011,0,2201051,-1111090,0,0,0,0,0,0,0,0,0,0,0,0,0,0,0,3191081,0,0,1141171,2041090,0,2180081,4030101,0,0,0,0,1101011,0,0,0,0,0
22,204,1010.31408761628,0,0,115839.47782565,115840.524891362,0,24,9,0,0,6,7,5131251,8293571,3031030,3031030,0,0,0,0,0,-2071100,0,3060151,0,0,1031161,0,0,1120190,2111180,0,0,4031040,0,3031030,0,0,0,0,0,0,0,0,0,0,3031030,0,0,0,0,0
22,205,741.343403919018,1,0,115842.642570078,115843.689629246,0,24,9,1,1,33,3,1061070,0,5151071,2190061,0,0,0,0,0,0,0,1061070,0,0,0,0,0,0,0,0,0,0,0,0,0,3110030,2041041,0,0,0,0,0,0,0,0,0,-2190061,0,0,0
22,206,608.377502998337,0,0,115845.548485235,115846.595551332,0,24,9,0,0,20,3,3161130,3090131,2051061,4010111,0,0,0,0,0,0,0,0,3161130,0,3090131,0,0,0,0,0,0,0,0,-2051061,0,0,0,0,0,0,0,4010111,0,0,0,0,0,0,0,0
22,207,775.02017376537,1,0,115848.32498614,115849.372094582,0,24,9,1,1,29,3,4191031,0,5320171,1131200,0,0,0,4191031,0,0,0,0,0,0,0,0,0,0,0,0,0,0,2140081,0,0,0,0,0,0,3180090,0,0,-1131200,0,0,0,0,0,0,0
22,208,714.58784720744,0,0,115851.31325253,115852.360325941,0,24,9,0,0,2,3,6271111,4061081,0,0,0,-1040011,2071020,0,0,0,0,0,3160080,0,0,0,0,0,0,0,0,4061081,0,0,0,0,0,0,0,0,0,0,0,0,0,0,0,0,0,0
22,209,626.372888087644,0,0,115854.207409438,115855.25447361,0,24,9,1,0,27,7,4150170,4231281,9341192,8301251,0,0,0,0,0,0,0,0,4150170,0,0,2050141,0,0,0,0,2181140,0,0,0,4140030,0,0,3171101,0,0,-2030061,4121191,0,0,0,0,0,4180060,0,0
22,210,735.657530531171,1,0,115856.925087153,115857.972149786,0,24,9,0,1,19,7,5330321,0,10502441,5221281,0,0,1140151,0,4190170,0,0,0,0,0,0,0,0,0,0,0,0,0,-1040030,4181091,0,3201140,0,0,0,2080180,0,0,0,0,0,1021171,0,0,4200110,0
22,211,1623.75592347234,0,0,115859.725115717,115860.77217989,0,24,9,1,0,24,7,9313441,1050191,9210222,0,1081131,0,0,0,0,3180080,3011050,0,2041180,0,0,0,0,0,0,0,1050191,0,0,0,0,3020120,0,-2060021,0,0,4130081,0,0,0,0,0,0,0,0,0
22,212,690.677152000717,1,0,115863.572221542,115864.61928302,0,24,9,1,1,36,7,4282262,4312430,2110121,1020080,1021061,0,1141090,2120111,0,0,0,0,0,1181130,0,0,1080100,0,0,2051200,0,0,0,0,0,0,0,0,2110121,0,0,0,0,0,0,0,0,0,0,-1020080
22,213,688.488263971522,1,0,115866.466371137,115867.513440698,0,24,9,0,1,34,3,2180170,0,4090180,5110160,0,0,0,0,0,0,0,0,2180170,0,0,0,0,0,0,0,0,0,0,0,0,0,0,4090180,0,0,0,4090110,0,0,0,0,0,-1020050,0,0
22,214,1206.53292405768,1,0,115869.231116489,115870.278171037,0,24,9,0,1,10,7,8233433,5262281,4081041,2221120,0,0,0,3091101,0,4121141,1021191,0,0,-1161090,0,0,0,0,0,0,0,4101191,0,0,4081041,0,0,0,0,0,0,0,0,0,1181020,0,1040100,0,0,0
22,215,808.064067779924,0,0,115872.513503832,115873.560563385,0,24,9,0,0,18,3,0,8392262,4111061,0,0,0,0,0,0,0,0,0,0,3170151,0,0,3161041,0,0,0,0,-2061070,0,0,0,0,0,4111061,0,0,0,0,0,0,0,0,0,0,0,0
22,216,1969.51900464774,1,0,115875.43118147,115876.478251802,0,24,9,0,1,7,7,4020171,6281232,5121182,6191272,0,0,0,0,0,0,-4020171,0,0,0,0,0,0,0,0,3160170,1020031,2101031,0,1061041,0,0,0,0,4060141,0,0,0,0,0,3010171,0,0,0,0,3181101
22,217,709.732334609726,0,0,115911.078679263,115912.125719952,0,24,10,0,0,12,3,0,6142200,5222200,0,0,0,0,0,0,0,0,0,0,4061170,0,-2081030,0,0,0,0,0,0,0,0,0,0,4041040,0,0,1181160,0,0,0,0,0,0,0,0,0,0
22,218,875.054589268984,1,0,115913.996329954,115915.043397206,0,24,10,1,1,25,7,0,1180150,8270313,10512421,0,0,0,0,0,0,0,0,0,0,0,0,0,0,1180150,0,0,0,0,1090071,3110111,0,0,0,-4070131,0,0,0,0,1091151,0,4060010,1201110,0,0,4160150
22,219,731.153487286065,0,0,115917.066961821,115918.114024838,0,24,10,1,0,24,7,9313441,1050191,9210222,0,1081131,0,0,0,0,3180080,3011050,0,2041180,0,0,0,0,0,0,0,1050191,0,0,0,0,3020120,0,-2060021,0,0,4130081,0,0,0,0,0,0,0,0,0
22,220,731.737858019187,1,0,115919.949345468,115920.996407716,0,24,10,1,1,29,3,4191031,0,5320171,1131200,0,0,0,4191031,0,0,0,0,0,0,0,0,0,0,0,0,0,0,2140081,0,0,0,0,0,0,3180090,0,0,-1131200,0,0,0,0,0,0,0
22,221,786.261418790673,1,0,115922.878796368,115923.925852456,0,24,10,0,1,10,3,0,2010070,4170010,7270201,0,0,0,0,0,0,0,0,0,-2010070,0,0,0,0,0,0,0,0,0,0,0,0,0,4170010,0,0,0,0,3130101,0,0,0,0,4140100,0,0
22,222,666.791864205152,0,0,115925.808238798,115926.855342621,0,24,10,1,0,3,7,3312141,0,12583524,1101011,0,2201051,-1111090,0,0,0,0,0,0,0,0,0,0,0,0,0,0,0,3191081,0,0,1141171,2041090,0,2180081,4030101,0,0,0,0,1101011,0,0,0,0,0
22,223,1858.47201090655,1,0,115928.537682075,115929.584744323,0,24,10,0,1,31,7,3191101,0,9342330,11472441,0,0,0,0,0,0,3191101,0,0,0,0,0,0,0,0,0,0,0,0,0,4141160,0,0,0,1021020,0,4180150,0,0,0,-4160020,0,1200160,3041170,0,3071091
22,224,814.119888658752,0,0,115932.620081814,115933.667135207,0,24,10,1,0,27,7,4150170,4231281,9341192,8301251,0,0,0,0,0,0,0,0,4150170,0,0,2050141,0,0,0,0,2181140,0,0,0,4140030,0,0,3171101,0,0,-2030061,4121191,0,0,0,0,0,4180060,0,0
22,225,991.775137648801,0,0,115935.655406602,115936.702468464,0,24,10,0,0,34,7,6111222,5191352,1091130,5221220,0,0,4071061,2040161,0,0,0,0,0,0,0,4170151,1021201,0,0,0,0,0,0,0,0,0,0,0,1091130,0,0,0,0,0,0,1040170,0,-2150040,2031010,0
22,226,663.419221222284,0,0,115938.749559969,115939.796625681,0,24,10,0,0,11,3,7151191,4151010,4061100,0,4081010,3070181,0,0,0,0,0,0,0,0,-4151010,0,0,0,0,0,0,0,0,4061100,0,0,0,0,0,0,0,0,0,0,0,0,0,0,0,0
22,227,707.641996588791,1,0,115941.467243843,115942.514301086,0,24,10,0,1,20,7,7330061,3070130,5211102,7452290,4170050,0,0,0,0,0,0,3160011,0,0,0,0,0,3070130,0,0,0,0,0,-2101091,3110011,0,0,0,0,0,0,0,1191100,0,3201180,0,3060010,0,0,0
22,228,1074.9444134417,0,0,115944.279041049,115945.326146027,0,24,10,1,0,36,7,4282262,4312430,2110121,1020080,1021061,0,1141090,2120111,0,0,0,0,0,1181130,0,0,1080100,0,0,2051200,0,0,0,0,0,0,0,0,2110121,0,0,0,0,0,0,0,0,0,0,-1020080
22,229,664.810085159843,1,0,115947.573245539,115948.620255046,0,24,10,1,1,17,3,4050072,2141201,3181140,0,0,3020011,0,0,0,1030061,0,0,0,0,0,0,0,0,0,0,-2141201,0,0,0,3181140,0,0,0,0,0,0,0,0,0,0,0,0,0,0,0
22,230,484.272633475484,1,0,115950.396755182,115951.443820509,0,24,10,0,1,15,3,0,6180361,4320281,0,0,0,0,0,0,0,0,0,0,0,4150161,0,0,0,-2030200,0,0,0,0,1190190,0,0,0,0,0,0,3130091,0,0,0,0,0,0,0,0,0
22,231,1316.70605640102,1,0,115953.07914468,115954.126197689,0,24,10,0,1,6,7,11404584,4070170,5210101,0,1021181,3080021,0,0,1111141,-2131111,0,0,4061130,0,0,0,0,0,4070170,0,0,0,0,0,0,0,1180091,4030010,0,0,0,0,0,0,0,0,0,0,0,0
22,232,682.124089362333,0,0,115956.596827862,115957.64388164,0,24,10,1,0,33,3,1061070,0,5151071,2190061,0,0,0,0,0,0,0,1061070,0,0,0,0,0,0,0,0,0,0,0,0,0,3110030,2041041,0,0,0,0,0,0,0,0,0,-2190061,0,0,0
22,233,981.842759894789,0,0,115959.396857196,115960.443915979,0,24,10,1,0,8,3,1021200,0,3182391,4131150,0,0,0,0,0,0,0,-1021200,0,0,0,0,0,0,0,0,0,0,1121201,0,0,2061190,0,0,0,0,0,0,0,0,4131150,0,0,0,0,0
22,234,663.455407542642,0,0,115962.620427124,115963.667492451,0,24,10,0,0,18,3,0,8401440,0,4060180,0,0,0,0,0,0,0,0,0,0,0,0,0,1130110,0,0,4120190,-3151140,0,0,0,0,0,0,0,0,0,0,0,0,0,4060180,0,0,0,0
22,235,1370.54785130022,1,0,115965.526340355,115966.573406452,0,24,10,1,1,35,7,5161111,6302241,0,11693442,0,0,0,2151051,3010060,0,0,0,0,3161040,0,0,0,0,0,0,3141201,0,0,0,0,0,0,0,0,0,0,0,0,4191191,3171010,0,0,0,-1161090,3170151
22,236,982.238884724211,1,0,115969.020493183,115970.067558895,0,24,10,0,1,19,7,11503261,3192371,4100150,3020150,3101030,0,1190110,3171011,0,4041110,0,0,0,0,0,0,0,1061171,0,0,0,2131200,-4100150,0,0,0,0,0,0,0,0,0,0,0,0,0,0,0,0,3020150
22,237,812.535004384699,0,0,115972.185234147,115973.232303324,0,24,10,1,0,4,3,1081161,6260361,3091150,0,0,0,0,-1081161,0,0,0,0,0,4110171,2150190,0,0,0,0,0,0,0,0,3091150,0,0,0,0,0,0,0,0,0,0,0,0,0,0,0,0
22,238,946.431740914704,1,0,115975.091154307,115976.138222714,0,24,10,1,1,13,3,0,4121201,2070100,1190171,0,0,0,0,0,0,0,0,0,0,0,2050030,-2071171,0,0,0,0,0,2070100,0,0,0,0,0,0,0,0,0,0,0,0,0,0,1190171,0,0
22,239,699.116651143413,1,0,115978.267664298,115979.31472847,0,24,10,0,1,7,7,7192151,5311352,4021201,3230160,0,0,0,0,0,2161070,-3011050,0,2020031,0,0,0,0,3181191,0,0,2130161,0,0,0,0,0,4021201,0,0,0,0,0,2140150,0,0,0,0,0,0,1090010
22,240,750.087792155682,1,0,115981.079452264,115982.126522596,0,24,10,0,1,2,3,1040110,0,1080090,8131182,0,-1040110,0,0,0,0,0,0,0,0,0,0,0,0,0,0,0,0,0,1080090,0,0,0,0,0,0,0,0,0,0,4120071,0,0,4011111,0,0
22,241,541.316148694023,1,0,116000.303207358,116001.350278075,0,24,11,1,1,8,3,1021200,0,3182391,4131150,0,0,0,0,0,0,0,-1021200,0,0,0,0,0,0,0,0,0,0,1121201,0,0,2061190,0,0,0,0,0,0,0,0,4131150,0,0,0,0,0
22,242,1437.15187198541,1,0,116002.997363189,116004.044420817,0,24,11,1,1,24,7,9313441,1050191,9210222,0,1081131,0,0,0,0,3180080,3011050,0,2041180,0,0,0,0,0,0,0,1050191,0,0,0,0,3020120,0,-2060021,0,0,4130081,0,0,0,0,0,0,0,0,0
22,243,904.536054556957,1,0,116006.679748838,116007.72681917,0,24,11,0,1,18,7,8201291,1191161,5180271,7270291,0,0,0,0,4110161,4091130,0,0,0,0,0,0,0,0,0,0,0,-1191161,0,1160130,0,0,0,0,4020141,0,0,0,0,0,0,1020030,0,0,3070060,3180201
22,244,1394.02777519717,1,0,116009.797498772,116010.844499811,0,24,11,0,1,2,7,5261401,6222170,0,8401232,0,-4161200,0,1100201,0,0,0,0,0,4081100,0,0,0,0,2141070,0,0,0,0,0,0,0,0,0,0,0,0,0,1060010,0,0,4191051,2130140,0,1020031,0
22,245,627.042720152531,0,0,116013.303355953,116014.350417431,0,24,11,0,0,10,3,4151161,10492231,0,0,0,0,4151161,0,0,0,0,0,0,-4171080,3121040,0,0,0,0,0,3200111,0,0,0,0,0,0,0,0,0,0,0,0,0,0,0,0,0,0,0
22,246,1053.38082520757,0,0,116016.03280308,116017.079870717,0,24,11,0,0,31,3,7291231,0,1110010,1170111,0,4160201,0,0,0,0,3131030,0,0,0,0,0,0,0,0,0,0,0,0,0,0,0,0,1110010,0,0,0,0,0,0,-1170111,0,0,0,0,0
22,247,534.899234422483,1,0,116019.162249283,116020.2093123,0,24,11,0,1,20,3,3111110,1061160,1011201,3090011,0,0,0,0,0,0,0,3111110,0,0,0,1061160,0,0,0,0,0,0,0,-1011201,0,0,0,0,0,0,0,0,0,0,0,3090011,0,0,0,0
22,248,750.910068760277,1,0,116021.868161436,116022.915218679,0,24,11,1,1,33,3,1061070,0,5151071,2190061,0,0,0,0,0,0,0,1061070,0,0,0,0,0,0,0,0,0,0,0,0,0,3110030,2041041,0,0,0,0,0,0,0,0,0,-2190061,0,0,0
22,249,699.830753728747,1,0,116024.809367503,116025.85644207,0,24,11,1,1,17,3,4050072,2141201,3181140,0,0,3020011,0,0,0,1030061,0,0,0,0,0,0,0,0,0,0,-2141201,0,0,0,3181140,0,0,0,0,0,0,0,0,0,0,0,0,0,0,0
22,250,932.873030906194,0,0,116027.562351143,116028.609451887,0,24,11,1,0,3,7,3312141,0,12583524,1101011,0,2201051,-1111090,0,0,0,0,0,0,0,0,0,0,0,0,0,0,0,3191081,0,0,1141171,2041090,0,2180081,4030101,0,0,0,0,1101011,0,0,0,0,0
22,251,687.123577357852,1,0,116030.632966842,116031.680036789,0,24,11,1,1,4,3,1081161,6260361,3091150,0,0,0,0,-1081161,0,0,0,0,0,4110171,2150190,0,0,0,0,0,0,0,0,3091150,0,0,0,0,0,0,0,0,0,0,0,0,0,0,0,0
22,252,672.01693932293,1,0,116033.432798083,116034.480063813,0,24,11,0,1,11,7,3120280,6220352,0,6231282,2110140,0,0,1010140,0,0,0,0,0,0,-1070181,0,0,0,4090091,0,0,1060080,0,0,0,0,0,0,0,0,0,0,0,0,1090110,0,1031071,0,4110101,0
22,253,837.406947117415,1,0,116036.244784528,116037.291865253,0,24,11,1,1,27,7,4150170,4231281,9341192,8301251,0,0,0,0,0,0,0,0,4150170,0,0,2050141,0,0,0,0,2181140,0,0,0,4140030,0,0,3171101,0,0,-2030061,4121191,0,0,0,0,0,4180060,0,0
22,254,622.101361266687,0,0,116039.233053997,116040.280133183,0,24,11,0,0,15,3,2060080,8311312,0,0,2060080,0,0,0,0,0,0,0,0,0,0,4201051,0,0,-2020081,2090180,0,0,0,0,0,0,0,0,0,0,0,0,0,0,0,0,0,0,0,0
22,255,1367.82117281109,0,0,116042.080197934,116043.127227844,0,24,11,1,0,35,7,5161111,6302241,0,11693442,0,0,0,2151051,3010060,0,0,0,0,3161040,0,0,0,0,0,0,3141201,0,0,0,0,0,0,0,0,0,0,0,0,4191191,3171010,0,0,0,-1161090,3170151
22,256,845.195477275411,0,0,116045.550780757,116046.597856478,0,24,11,0,0,6,7,9321483,6152141,5160082,3160081,0,4040101,0,3120191,0,-2161191,0,0,0,0,0,0,0,0,0,0,2051030,4101111,0,4140041,0,0,0,1020041,0,0,0,0,0,3160081,0,0,0,0,0,0
22,257,808.216127363266,0,0,116048.609643597,116049.656712389,0,24,11,1,0,13,3,0,4121201,2070100,1190171,0,0,0,0,0,0,0,0,0,0,0,2050030,-2071171,0,0,0,0,0,2070100,0,0,0,0,0,0,0,0,0,0,0,0,0,0,1190171,0,0
22,258,897.703767419443,0,0,116051.63323362,116052.680270075,0,24,11,1,0,36,7,4282262,4312430,2110121,1020080,1021061,0,1141090,2120111,0,0,0,0,0,1181130,0,0,1080100,0,0,2051200,0,0,0,0,0,0,0,0,2110121,0,0,0,0,0,0,0,0,0,0,-1020080
22,259,466.224893694744,1,0,116054.66853377,116055.715605642,0,24,11,1,1,29,3,4191031,0,5320171,1131200,0,0,0,4191031,0,0,0,0,0,0,0,0,0,0,0,0,0,0,2140081,0,0,0,0,0,0,3180090,0,0,-1131200,0,0,0,0,0,0,0
22,260,713.33556920581,1,0,116057.221311751,116058.268571266,0,24,11,0,1,19,7,9283211,3111031,7090330,6152282,4021181,0,0,1131010,0,4131020,0,0,0,0,0,0,0,3111031,0,0,0,0,-4020170,0,0,3070160,0,0,0,0,0,0,0,4081191,0,0,2071091,0,0,0
22,261,775.082922395086,1,0,116060.068595595,116061.115671701,0,24,11,0,1,7,7,8251421,3070190,8243520,2051060,0,3050070,0,0,0,0,-1070161,4131190,0,0,0,0,0,0,0,0,0,3070190,0,2151190,0,3071180,3021150,0,0,0,0,0,2051060,0,0,0,0,0,0,0
22,262,859.19766232837,0,0,116062.915693721,116063.962750194,0,24,11,0,0,12,3,0,4061050,0,8252482,0,0,0,0,0,0,0,0,0,0,0,-4061050,0,0,0,0,0,0,0,0,0,0,0,0,0,0,0,1111200,0,3051081,0,0,0,0,0,4090201
22,263,804.88929474086,0,0,116065.96278869,116067.009843238,0,24,11,1,0,25,7,0,1180150,8270313,10512421,0,0,0,0,0,0,0,0,0,0,0,0,0,0,1180150,0,0,0,0,1090071,3110111,0,0,0,-4070131,0,0,0,0,1091151,0,4060010,1201110,0,0,4160150
22,264,1366.03341410228,0,0,116068.974582354,116070.021645756,0,24,11,0,0,34,3,6342241,0,3041081,2160031,0,0,0,2161121,0,0,0,0,4181120,0,0,0,0,0,0,0,0,0,0,0,0,0,0,0,3041081,0,0,0,0,0,0,0,0,-2160031,0,0
22,265,845.117715172819,1,0,116083.833571539,116084.880635711,0,24,12,0,1,2,3,8340172,0,4201111,0,0,-2100041,0,2120111,0,0,0,4120020,0,0,0,0,0,0,0,0,0,0,0,0,0,4201111,0,0,0,0,0,0,0,0,0,0,0,0,0,0
22,266,1144.89759449498,1,0,116086.727761169,116087.774795699,0,24,12,0,1,31,7,11372283,0,2041151,7421383,0,4111041,0,3190121,0,0,0,4071121,0,0,0,0,0,0,0,0,0,0,0,0,0,0,0,0,2041151,0,0,0,0,1161141,-1170011,0,1070080,4020151,0,0
22,267,646.808155754115,1,0,116089.986588517,116091.033653459,0,24,12,1,1,4,3,1081161,6260361,3091150,0,0,0,0,-1081161,0,0,0,0,0,4110171,2150190,0,0,0,0,0,0,0,0,3091150,0,0,0,0,0,0,0,0,0,0,0,0,0,0,0,0
22,268,1165.76748307853,0,0,116092.880746965,116093.927801898,0,24,12,1,0,35,7,5161111,6302241,0,11693442,0,0,0,2151051,3010060,0,0,0,0,3161040,0,0,0,0,0,0,3141201,0,0,0,0,0,0,0,0,0,0,0,0,4191191,3171010,0,0,0,-1161090,3170151
22,269,1546.1516433279,1,0,116096.198227441,116097.245482847,0,24,12,0,1,11,3,0,5151171,1130020,1150021,0,0,0,0,0,0,0,0,0,0,-1131031,0,0,0,0,0,4020140,0,0,0,0,0,0,0,1130020,0,0,0,0,0,0,0,0,0,0,1150021
22,270,813.43581303372,0,0,116099.974940368,116101.022005695,0,24,12,0,0,10,3,2051011,2120141,2180140,1090120,0,0,0,0,0,0,0,0,2051011,-2120141,0,0,0,0,0,0,0,0,0,2180140,0,0,0,0,0,0,0,1090120,0,0,0,0,0,0,0,0
22,271,1266.86516076734,0,0,116102.951449665,116103.998565037,0,24,12,1,0,36,7,4282262,4312430,2110121,1020080,1021061,0,1141090,2120111,0,0,0,0,0,1181130,0,0,1080100,0,0,2051200,0,0,0,0,0,0,0,0,2110121,0,0,0,0,0,0,0,0,0,0,-1020080
22,272,1539.13611477765,1,0,116106.457365745,116107.504431457,0,24,12,1,1,24,7,9313441,1050191,9210222,0,1081131,0,0,0,0,3180080,3011050,0,2041180,0,0,0,0,0,0,0,1050191,0,0,0,0,3020120,0,-2060021,0,0,4130081,0,0,0,0,0,0,0,0,0
22,273,1483.21976524312,0,0,116110.175056164,116111.222126496,0,24,12,1,0,25,7,0,1180150,8270313,10512421,0,0,0,0,0,0,0,0,0,0,0,0,0,0,1180150,0,0,0,0,1090071,3110111,0,0,0,-4070131,0,0,0,0,1091151,0,4060010,1201110,0,0,4160150
22,274,864.40695404599,0,0,116113.892745043,116114.93981653,0,24,12,1,0,8,3,1021200,0,3182391,4131150,0,0,0,0,0,0,0,-1021200,0,0,0,0,0,0,0,0,0,0,1121201,0,0,2061190,0,0,0,0,0,0,0,0,4131150,0,0,0,0,0
22,275,901.018281292636,1,0,116116.975128614,116118.022201255,0,24,12,1,1,17,3,4050072,2141201,3181140,0,0,3020011,0,0,0,1030061,0,0,0,0,0,0,0,0,0,0,-2141201,0,0,0,3181140,0,0,0,0,0,0,0,0,0,0,0,0,0,0,0
22,276,1073.56124870421,1,0,116119.951639451,116120.998702468,0,24,12,1,1,27,7,4150170,4231281,9341192,8301251,0,0,0,0,0,0,0,0,4150170,0,0,2050141,0,0,0,0,2181140,0,0,0,4140030,0,0,3171101,0,0,-2030061,4121191,0,0,0,0,0,4180060,0,0
22,277,975.112872358295,0,0,116123.186963007,116124.234032953,0,24,12,0,0,6,3,4150131,0,6052272,0,0,0,3040020,0,0,-1110111,0,0,0,0,0,0,0,0,0,0,0,0,0,0,0,2031181,0,0,0,4021091,0,0,0,0,0,0,0,0,0,0
22,278,1022.21207602997,1,0,116126.245818533,116127.292895409,0,24,12,1,1,3,7,3312141,0,12583524,1101011,0,2201051,-1111090,0,0,0,0,0,0,0,0,0,0,0,0,0,0,0,3191081,0,0,1141171,2041090,0,2180081,4030101,0,0,0,0,1101011,0,0,0,0,0
22,279,880.194972982281,0,0,116129.387043771,116130.434105249,0,24,12,0,0,34,3,0,2080010,0,4302203,0,0,0,0,0,0,0,0,0,0,0,0,0,2080010,0,0,0,0,0,0,0,0,0,0,0,0,0,0,0,1131031,0,0,1091091,-2080081,0,0
22,280,777.873504412128,1,0,116132.375310931,116133.422382033,0,24,12,0,1,15,7,5311040,4011110,7301331,2262240,0,0,1111010,0,0,0,4200030,0,0,0,0,0,0,0,-4011110,0,0,0,0,0,2020171,0,0,0,3161010,0,2120150,0,1121040,0,0,1141200,0,0,0,0
22,281,593.092243070714,1,0,116135.340045812,116136.387114604,0,24,12,1,1,13,3,0,4121201,2070100,1190171,0,0,0,0,0,0,0,0,0,0,0,2050030,-2071171,0,0,0,0,0,2070100,0,0,0,0,0,0,0,0,0,0,0,0,0,0,1190171,0,0
22,282,741.861176415114,0,0,116138.034199718,116139.081258116,0,24,12,0,0,12,7,5331220,5152261,7322251,5112220,0,0,0,0,0,0,0,4200140,1131080,2131201,0,-3021060,0,0,0,0,0,0,0,4181071,0,0,0,0,0,0,3141180,0,0,0,2051120,0,3061100,0,0,0
22,283,757.542561157607,0,0,116141.022471113,116142.06953028,0,24,12,0,0,19,7,4201170,4181091,4353483,3240142,4201170,0,0,0,0,0,0,0,0,0,0,0,0,0,0,4181091,0,0,-1111171,2111201,0,0,0,0,1131111,0,0,1040070,0,1110011,0,0,1090061,0,0,0
22,284,562.524032997317,1,0,116143.975440817,116145.022505759,0,24,12,0,1,20,7,2120011,6232090,4171181,8212342,0,0,0,0,0,0,2120011,0,0,4041040,0,0,0,0,0,0,2191050,0,0,-2021091,0,0,0,0,0,2150090,0,0,0,0,2061180,0,4040111,0,2111051,0
22,285,766.646117976052,1,0,116146.728412908,116147.77548401,0,24,12,1,1,33,3,1061070,0,5151071,2190061,0,0,0,0,0,0,0,1061070,0,0,0,0,0,0,0,0,0,0,0,0,0,3110030,2041041,0,0,0,0,0,0,0,0,0,-2190061,0,0,0
22,286,760.529088292969,1,0,116149.634334224,116150.681401476,0,24,12,0,1,7,7,10482332,5282200,6221162,0,0,2161150,4090011,1151070,0,0,-3080101,0,0,0,0,0,3181060,2101140,0,0,0,0,2020141,0,0,4201021,0,0,0,0,0,0,0,0,0,0,0,0,0,0
22,287,912.896636713413,0,0,116152.599106061,116153.646141361,0,24,12,1,0,29,3,4191031,0,5320171,1131200,0,0,0,4191031,0,0,0,0,0,0,0,0,0,0,0,0,0,0,2140081,0,0,0,0,0,0,3180090,0,0,-1131200,0,0,0,0,0,0,0
22,288,720.064301844104,0,0,116155.563809761,116156.610870468,0,24,12,0,0,18,3,2041070,6131211,0,4161051,0,0,0,0,0,2041070,0,0,0,0,0,4050120,0,0,0,0,0,-2081091,0,0,0,0,0,0,0,0,0,0,0,0,0,0,4161051,0,0,0
22,289,986.690573263331,1,0,116172.058113493,116173.10517882,0,24,13,1,1,27,7,4150170,4231281,9341192,8301251,0,0,0,0,0,0,0,0,4150170,0,0,2050141,0,0,0,0,2181140,0,0,0,4140030,0,0,3171101,0,0,-2030061,4121191,0,0,0,0,0,4180060,0,0
22,290,614.231989296968,1,0,116175.234621558,116176.281684191,0,24,13,0,1,20,3,0,0,3081081,4261322,0,0,0,0,0,0,0,0,0,0,0,0,0,0,0,0,0,0,0,-1071040,0,0,0,2010041,0,0,0,0,0,0,0,0,0,2110121,2151201,0
22,291,947.062306979205,1,0,116178.093479087,116179.140541334,0,24,13,0,1,7,7,6211061,15572603,2080021,0,0,0,0,0,0,0,-2051020,4160041,0,0,4191121,0,4080070,3030180,1180041,0,3091191,0,0,0,0,0,0,2080021,0,0,0,0,0,0,0,0,0,0,0,0
22,292,605.874486820539,0,0,116181.187633609,116182.234693161,0,24,13,0,0,15,7,4091180,11574583,3190010,7272042,0,0,0,4091180,0,0,0,0,0,3191181,0,3071190,0,0,-2181101,0,0,3131111,0,0,0,3190010,0,0,0,0,0,0,0,0,4191031,0,0,3081011,0,0
22,293,708.011559108854,1,0,116183.940606085,116184.987668717,0,24,13,0,1,10,7,1050091,12402382,3160020,5300101,1050091,0,0,0,0,0,0,0,0,-3151100,3151100,2040121,0,0,0,0,4060061,0,0,3160020,0,0,0,0,0,0,0,0,0,0,1160050,0,4140051,0,0,0
22,294,534.540835767984,1,0,116186.822988577,116187.870059679,0,24,13,0,1,2,3,3020141,9203421,0,0,0,-3020141,0,0,0,0,0,0,0,4141140,0,0,0,1021141,0,0,4041140,0,0,0,0,0,0,0,0,0,0,0,0,0,0,0,0,0,0,0
22,295,747.953568585217,0,0,116189.493615979,116190.540676301,0,24,13,0,0,31,3,6400241,0,2080040,3110110,0,0,0,0,0,0,3200140,0,3200101,0,0,0,0,0,0,0,0,0,0,2080040,0,0,0,0,0,0,0,0,0,0,-3110110,0,0,0,0,0
22,296,900.925505702617,1,0,116192.293705367,116193.34071141,0,24,13,0,1,11,7,4161170,1040101,5251190,12233460,0,0,4161170,0,0,0,0,0,0,0,-1040101,0,0,0,0,0,0,0,0,2100160,0,0,0,0,0,3151030,0,3050120,0,1111130,0,4041140,0,0,4031070,0
22,297,506.710853005643,1,0,116195.281900924,116196.32898011,0,24,13,1,1,8,3,1021200,0,3182391,4131150,0,0,0,0,0,0,0,-1021200,0,0,0,0,0,0,0,0,0,0,1121201,0,0,2061190,0,0,0,0,0,0,0,0,4131150,0,0,0,0,0
22,298,690.989740294754,0,0,116198.034884949,116199.152535563,0,24,13,1,0,4,3,1081161,6260361,3091150,0,0,0,0,-1081161,0,0,0,0,0,4110171,2150190,0,0,0,0,0,0,0,0,3091150,0,0,0,0,0,0,0,0,0,0,0,0,0,0,0,0
22,299,574.577160688932,1,0,116201.034921905,116202.081986077,0,24,13,1,1,17,3,4050072,2141201,3181140,0,0,3020011,0,0,0,1030061,0,0,0,0,0,0,0,0,0,0,-2141201,0,0,0,3181140,0,0,0,0,0,0,0,0,0,0,0,0,0,0,0
22,300,689.455670857569,0,0,116203.776129589,116204.823194916,0,24,13,1,0,13,3,0,4121201,2070100,1190171,0,0,0,0,0,0,0,0,0,0,0,2050030,-2071171,0,0,0,0,0,2070100,0,0,0,0,0,0,0,0,0,0,0,0,0,0,1190171,0,0
22,301,885.882001268328,1,0,116206.564396441,116207.611458303,0,24,13,0,1,18,7,5192232,9252220,4141271,1181051,0,0,0,0,4111171,1081061,0,0,0,0,0,0,0,0,1201010,4021030,0,-4030180,0,0,0,0,1110200,3031071,0,0,0,0,0,0,1181051,0,0,0,0,0
22,302,1019.14701686474,0,0,116209.682075927,116210.729147799,0,24,13,0,0,6,3,7261330,0,0,4170151,0,4130160,0,1061120,0,-2070050,0,0,0,0,0,0,0,0,0,0,0,0,0,0,0,0,0,0,0,0,0,0,0,0,4170151,0,0,0,0,0
22,303,693.718343580258,0,0,116212.75269894,116213.799764267,0,24,13,1,0,36,7,4282262,4312430,2110121,1020080,1021061,0,1141090,2120111,0,0,0,0,0,1181130,0,0,1080100,0,0,2051200,0,0,0,0,0,0,0,0,2110121,0,0,0,0,0,0,0,0,0,0,-1020080
22,304,701.902998582227,1,0,116215.517478169,116216.56450269,0,24,13,1,1,3,7,3312141,0,12583524,1101011,0,2201051,-1111090,0,0,0,0,0,0,0,0,0,0,0,0,0,0,0,3191081,0,0,1141171,2041090,0,2180081,4030101,0,0,0,0,1101011,0,0,0,0,0
22,305,1008.42970369558,0,0,116218.446877869,116219.49394897,0,24,13,0,0,19,3,0,3200050,5422293,0,0,0,0,0,0,0,0,0,0,3200050,0,0,0,0,0,0,0,0,-2201041,0,1071201,0,0,0,0,2150051,0,0,0,0,0,0,0,0,0,0
22,306,1560.29626390955,0,0,116221.646918212,116222.693982385,0,24,13,0,0,34,7,7313331,1200110,5311170,4200101,0,0,1081141,2171030,0,0,0,4061160,0,0,0,0,1200110,0,0,0,0,0,0,0,0,0,0,0,3180080,0,2131090,0,0,3120050,0,0,0,-1080051,0,0
22,307,1422.03676480858,1,0,116225.282240459,116226.329319645,0,24,13,1,1,35,7,5161111,6302241,0,11693442,0,0,0,2151051,3010060,0,0,0,0,3161040,0,0,0,0,0,0,3141201,0,0,0,0,0,0,0,0,0,0,0,0,4191191,3171010,0,0,0,-1161090,3170151
22,308,672.066214319784,0,0,116228.799937115,116229.847004752,0,24,13,1,0,29,3,4191031,0,5320171,1131200,0,0,0,4191031,0,0,0,0,0,0,0,0,0,0,0,0,0,0,2140081,0,0,0,0,0,0,3180090,0,0,-1131200,0,0,0,0,0,0,0
22,309,753.547436310328,0,0,116231.717620913,116232.764684315,0,24,13,1,0,25,7,0,1180150,8270313,10512421,0,0,0,0,0,0,0,0,0,0,0,0,0,0,1180150,0,0,0,0,1090071,3110111,0,0,0,-4070131,0,0,0,0,1091151,0,4060010,1201110,0,0,4160150
22,310,916.476773651084,0,0,116234.670598316,116235.717665953,0,24,13,1,0,24,7,9313441,1050191,9210222,0,1081131,0,0,0,0,3180080,3011050,0,2041180,0,0,0,0,0,0,0,1050191,0,0,0,0,3020120,0,-2060021,0,0,4130081,0,0,0,0,0,0,0,0,0
22,311,599.216202041134,1,0,116237.658863936,116238.705926953,0,24,13,1,1,33,3,1061070,0,5151071,2190061,0,0,0,0,0,0,0,1061070,0,0,0,0,0,0,0,0,0,0,0,0,0,3110030,2041041,0,0,0,0,0,0,0,0,0,-2190061,0,0,0
22,312,628.955591164413,0,0,116240.400077395,116241.447141952,0,24,13,0,0,12,3,0,6203242,2110061,0,0,0,0,0,0,0,0,0,0,1021060,0,-1081011,0,0,0,4101171,0,0,0,0,0,2110061,0,0,0,0,0,0,0,0,0,0,0,0,0,0
22,313,1646.83818269987,1,0,116268.47097835,116269.518073704,0,24,14,0,1,15,7,4280331,3181242,3071140,11461392,0,1080161,0,0,3200170,0,0,0,0,0,0,0,0,1151151,-2030091,0,0,0,0,0,0,0,0,0,0,3071140,0,0,0,0,0,3170161,4121180,0,0,4170051
22,314,941.109655628679,0,0,116272.247498118,116273.294564985,0,24,14,1,0,3,7,3312141,0,12583524,1101011,0,2201051,-1111090,0,0,0,0,0,0,0,0,0,0,0,0,0,0,0,3191081,0,0,1141171,2041090,0,2180081,4030101,0,0,0,0,1101011,0,0,0,0,0
22,315,815.197009433177,0,0,116275.341653409,116276.388713732,0,24,14,1,0,4,3,1081161,6260361,3091150,0,0,0,0,-1081161,0,0,0,0,0,4110171,2150190,0,0,0,0,0,0,0,0,3091150,0,0,0,0,0,0,0,0,0,0,0,0,0,0,0,0
22,316,789.448125622584,1,0,116278.259330278,116279.306397145,0,24,14,0,1,31,3,0,0,4211030,6141082,0,0,0,0,0,0,0,0,0,0,0,0,0,0,0,0,0,0,0,0,0,0,3050020,1161010,0,0,0,0,0,0,-3130041,0,0,0,3011041,0
22,317,730.884784527007,1,0,116281.282957257,116282.329965995,0,24,14,1,1,13,3,0,4121201,2070100,1190171,0,0,0,0,0,0,0,0,0,0,0,2050030,-2071171,0,0,0,0,0,2070100,0,0,0,0,0,0,0,0,0,0,0,0,0,0,1190171,0,0
22,318,1402.08616299788,1,0,116284.1064592,116285.153516828,0,24,14,1,1,35,7,5161111,6302241,0,11693442,0,0,0,2151051,3010060,0,0,0,0,3161040,0,0,0,0,0,0,3141201,0,0,0,0,0,0,0,0,0,0,0,0,4191191,3171010,0,0,0,-1161090,3170151
22,319,813.748016371392,1,0,116287.647673506,116288.694761931,0,24,14,1,1,25,7,0,1180150,8270313,10512421,0,0,0,0,0,0,0,0,0,0,0,0,0,0,1180150,0,0,0,0,1090071,3110111,0,0,0,-4070131,0,0,0,0,1091151,0,4060010,1201110,0,0,4160150
22,320,767.558860417921,0,0,116290.635943745,116291.683012152,0,24,14,0,0,10,7,5121140,10342373,8140200,0,0,0,0,0,3071110,2050030,0,0,0,-1161191,0,0,0,1060040,4111121,0,0,4010021,0,0,0,0,0,4020030,0,4120170,0,0,0,0,0,0,0,0,0,0
22,321,728.114605444716,1,0,116293.471264376,116294.518333937,0,24,14,1,1,29,3,4191031,0,5320171,1131200,0,0,0,4191031,0,0,0,0,0,0,0,0,0,0,0,0,0,0,2140081,0,0,0,0,0,0,3180090,0,0,-1131200,0,0,0,0,0,0,0
22,322,592.685339346644,0,0,116296.341883616,116297.388960492,0,24,14,0,0,11,7,0,8512190,6323272,4282242,0,0,0,0,0,0,0,0,0,0,-1161070,0,0,0,0,3181040,0,4170080,0,0,0,1191030,0,0,2111101,3021141,0,0,3201191,1081051,0,0,0,0,0,0
22,323,669.332991499687,1,0,116299.083100539,116300.130163557,0,24,14,0,1,18,3,0,8291150,0,3032290,0,0,0,0,0,0,0,0,0,0,0,0,0,0,0,4170010,0,-4121140,0,0,0,0,0,0,0,0,0,0,0,0,0,0,1021090,2011200,0,0
22,324,1152.23533537937,0,0,116301.83607571,116302.883131413,0,24,14,0,0,19,3,2140171,0,3082202,4130051,0,0,0,0,0,0,2140171,0,0,0,0,0,0,0,0,0,0,0,-1071021,0,2011181,0,0,0,0,0,0,0,0,0,0,0,4130051,0,0,0
22,325,607.72807385365,1,0,116305.165521451,116306.212587548,0,24,14,1,1,17,3,4050072,2141201,3181140,0,0,3020011,0,0,0,1030061,0,0,0,0,0,0,0,0,0,0,-2141201,0,0,0,3181140,0,0,0,0,0,0,0,0,0,0,0,0,0,0,0
22,326,669.241370793316,1,0,116307.883197241,116308.930264108,0,24,14,0,1,7,3,8330410,0,3090140,0,0,0,0,0,4190120,3090160,-1050130,0,0,0,0,0,0,0,0,0,0,0,0,0,0,0,0,0,0,0,3090140,0,0,0,0,0,0,0,0,0
22,327,674.457591812825,0,0,116310.647937974,116311.695001761,0,24,14,0,0,20,3,3100020,0,6282121,1160120,0,0,0,0,0,0,3100020,0,0,0,0,0,0,0,0,0,0,0,0,-4081050,0,2201071,0,0,0,0,0,0,0,0,0,0,0,1160120,0,0
22,328,1152.70152309677,1,0,116313.45973518,116314.506802047,0,24,14,1,1,36,7,4282262,4312430,2110121,1020080,1021061,0,1141090,2120111,0,0,0,0,0,1181130,0,0,1080100,0,0,2051200,0,0,0,0,0,0,0,0,2110121,0,0,0,0,0,0,0,0,0,0,-1020080
22,329,1016.71367861854,0,0,116316.871595673,116317.918597866,0,24,14,0,0,12,3,4131080,4041141,0,5282261,0,0,0,0,0,0,0,4131080,0,0,0,-4041141,0,0,0,0,0,0,0,0,0,0,0,0,0,0,0,0,0,0,3101061,0,0,2181200,0,0
22,330,863.346771555371,0,0,116320.10686033,116321.153927197,0,24,14,1,0,24,7,9313441,1050191,9210222,0,1081131,0,0,0,0,3180080,3011050,0,2041180,0,0,0,0,0,0,0,1050191,0,0,0,0,3020120,0,-2060021,0,0,4130081,0,0,0,0,0,0,0,0,0
22,331,846.11206932459,1,0,116323.048074096,116324.095144428,0,24,14,0,1,34,7,1060071,8400132,5181050,7282281,0,0,1060071,0,0,0,0,0,0,2170100,0,0,4170011,0,0,2060021,0,0,1041030,0,0,0,4140020,0,0,0,0,0,0,0,3141170,0,0,-4141111,0,0
22,332,618.42998857901,0,0,116326.118703269,116327.165765131,0,24,14,1,0,8,3,1021200,0,3182391,4131150,0,0,0,0,0,0,0,-1021200,0,0,0,0,0,0,0,0,0,0,1121201,0,0,2061190,0,0,0,0,0,0,0,0,4131150,0,0,0,0,0
22,333,819.460067112232,0,0,116328.965788306,116330.012857098,0,24,14,0,0,2,7,7402271,4270231,4221221,4080140,0,-1101031,0,0,0,0,4101120,2200120,0,0,0,0,3140090,0,1130141,0,0,0,0,0,0,3111141,0,0,0,0,1110080,0,0,0,0,0,4080140,0,0,0
22,334,595.460522905341,1,0,116331.977589284,116333.024656921,0,24,14,1,1,33,3,1061070,0,5151071,2190061,0,0,0,0,0,0,0,1061070,0,0,0,0,0,0,0,0,0,0,0,0,0,3110030,2041041,0,0,0,0,0,0,0,0,0,-2190061,0,0,0
22,335,838.2373079221,0,0,116334.718798123,116335.76586499,0,24,14,0,0,6,7,7231460,6091112,8280331,0,1010130,0,0,3131160,0,-3090170,0,0,0,0,0,0,0,4020011,0,0,2071101,0,1060130,0,0,3120070,0,0,0,0,4100131,0,0,0,0,0,0,0,0,0
22,336,688.923654801329,1,0,116337.754124066,116338.801249447,0,24,14,1,1,27,7,4150170,4231281,9341192,8301251,0,0,0,0,0,0,0,0,4150170,0,0,2050141,0,0,0,0,2181140,0,0,0,4140030,0,0,3171101,0,0,-2030061,4121191,0,0,0,0,0,4180060,0,0
22,337,697.212634215248,1,0,116356.189628861,116357.236691109,0,24,15,1,1,4,3,1081161,6260361,3091150,0,0,0,0,-1081161,0,0,0,0,0,4110171,2150190,0,0,0,0,0,0,0,0,3091150,0,0,0,0,0,0,0,0,0,0,0,0,0,0,0,0
22,338,727.890558177023,0,0,116358.96613939,116360.013192399,0,24,15,0,0,6,3,3070220,0,5061321,0,0,0,0,0,0,-2060100,0,0,1010120,0,0,0,0,0,0,0,0,0,0,3030120,0,0,0,0,0,2031201,0,0,0,0,0,0,0,0,0,0
22,339,834.532058666809,0,0,116361.766166799,116362.813226737,0,24,15,1,0,27,7,4150170,4231281,9341192,8301251,0,0,0,0,0,0,0,0,4150170,0,0,2050141,0,0,0,0,2181140,0,0,0,4140030,0,0,3171101,0,0,-2030061,4121191,0,0,0,0,0,4180060,0,0
22,340,1106.64517867554,1,0,116364.825023866,116365.872121915,0,24,15,1,1,35,7,5161111,6302241,0,11693442,0,0,0,2151051,3010060,0,0,0,0,3161040,0,0,0,0,0,0,3141201,0,0,0,0,0,0,0,0,0,0,0,0,4191191,3171010,0,0,0,-1161090,3170151
22,341,718.435916976887,0,0,116368.060353196,116369.107416213,0,24,15,0,0,34,3,1171140,0,3201051,5261151,0,0,0,0,1171140,0,0,0,0,0,0,0,0,0,0,0,0,0,0,0,0,0,0,3201051,0,0,0,0,0,0,0,0,0,-3071061,2190090,0
22,342,685.576804215088,1,0,116370.966269122,116372.013335219,0,24,15,1,1,8,3,1021200,0,3182391,4131150,0,0,0,0,0,0,0,-1021200,0,0,0,0,0,0,0,0,0,0,1121201,0,0,2061190,0,0,0,0,0,0,0,0,4131150,0,0,0,0,0
22,343,1467.50527384575,0,0,116373.825123186,116374.872187358,0,24,15,1,0,25,7,0,1180150,8270313,10512421,0,0,0,0,0,0,0,0,0,0,0,0,0,0,1180150,0,0,0,0,1090071,3110111,0,0,0,-4070131,0,0,0,0,1091151,0,4060010,1201110,0,0,4160150
22,344,691.592204195331,0,0,116377.378384075,116378.42517146,0,24,15,0,0,31,7,4011170,5242291,6291112,7222393,0,0,0,4011170,0,0,0,0,0,0,0,0,1131191,0,0,0,4111100,0,4201021,0,0,2090091,0,0,0,0,0,0,3041181,0,-2031081,0,0,2150131,0,0
22,345,650.005641480675,1,0,116380.307549333,116381.354619664,0,24,15,1,1,29,3,4191031,0,5320171,1131200,0,0,0,4191031,0,0,0,0,0,0,0,0,0,0,0,0,0,0,2140081,0,0,0,0,0,0,3180090,0,0,-1131200,0,0,0,0,0,0,0
22,346,848.977718735114,0,0,116383.213471033,116384.260558688,0,24,15,1,0,3,7,3312141,0,12583524,1101011,0,2201051,-1111090,0,0,0,0,0,0,0,0,0,0,0,0,0,0,0,3191081,0,0,1141171,2041090,0,2180081,4030101,0,0,0,0,1101011,0,0,0,0,0
22,347,624.756052042358,1,0,116386.189975711,116387.237037573,0,24,15,1,1,17,3,4050072,2141201,3181140,0,0,3020011,0,0,0,1030061,0,0,0,0,0,0,0,0,0,0,-2141201,0,0,0,3181140,0,0,0,0,0,0,0,0,0,0,0,0,0,0,0
22,348,608.963028615108,1,0,116388.954712979,116390.001777921,0,24,15,0,1,18,3,4051021,4030060,3130160,2080191,0,0,0,0,4051021,0,0,0,0,0,0,0,0,0,0,0,0,-4030060,0,0,0,0,0,0,0,0,3130160,0,0,0,0,2080191,0,0,0,0
22,349,752.109222157742,1,0,116391.76650749,116392.813562423,0,24,15,0,1,20,3,0,1081070,9333222,0,0,0,0,0,0,0,0,0,0,0,0,0,0,1081070,0,0,0,0,0,-1031110,4101021,0,0,0,0,4201091,0,0,0,0,0,0,0,0,0,0
22,350,739.359315135516,1,0,116394.63712596,116395.684194752,0,24,15,0,1,2,3,2151190,0,3211191,1121041,0,-2151190,0,0,0,0,0,0,0,0,0,0,0,0,0,0,0,0,0,0,2110041,0,0,0,0,1101150,0,0,0,0,0,0,0,0,0,1121041
22,351,657.547796639847,1,0,116397.590102209,116398.637166766,0,24,15,0,1,10,3,0,7112291,6240221,0,0,0,0,0,0,0,0,0,0,-3091120,4021171,0,0,0,0,0,0,0,0,0,2170120,0,0,0,0,0,4070101,0,0,0,0,0,0,0,0,0
22,352,681.412296529743,1,0,116400.448950498,116401.49602237,0,24,15,0,1,12,7,4432252,3060180,6352292,2061010,0,1071090,0,0,0,0,2171081,1190081,0,0,0,-3060180,0,0,0,0,0,0,2111161,0,3171060,0,0,0,1070071,0,0,0,0,0,0,0,2061010,0,0,0
22,353,831.602120786556,0,0,116403.213700085,116404.260759638,0,24,15,0,0,11,7,4151031,15573431,6230272,0,0,0,0,0,0,0,4151031,0,0,4081091,-3090080,4170110,3051140,1181010,0,0,0,0,0,0,3040071,0,0,0,0,0,3190201,0,0,0,0,0,0,0,0,0
22,354,804.883905278984,0,0,116406.166673639,116407.213730112,0,24,15,1,0,36,7,4282262,4312430,2110121,1020080,1021061,0,1141090,2120111,0,0,0,0,0,1181130,0,0,1080100,0,0,2051200,0,0,0,0,0,0,0,0,2110121,0,0,0,0,0,0,0,0,0,0,-1020080
22,355,600.944291800261,0,0,116409.084350892,116410.13141314,0,24,15,0,0,15,7,3061041,10211532,8180321,3072121,0,0,0,0,3061041,0,0,0,0,0,0,0,3031201,0,-4020150,0,0,3160181,0,0,4140141,0,4040180,0,0,0,0,0,0,1061100,2011021,0,0,0,0,0
22,356,926.954256137833,1,0,116411.778499024,116412.825557422,0,24,15,0,1,19,7,1041031,4090041,15440191,5251050,0,0,0,1041031,0,0,0,0,0,4090041,0,0,0,0,0,0,0,0,-4100041,4090080,0,0,0,4070050,3180020,0,0,0,1140010,4111040,0,0,0,0,0,0
22,357,656.289359249058,1,0,116414.907949461,116415.955018638,0,24,15,1,1,33,3,1061070,0,5151071,2190061,0,0,0,0,0,0,0,1061070,0,0,0,0,0,0,0,0,0,0,0,0,0,3110030,2041041,0,0,0,0,0,0,0,0,0,-2190061,0,0,0
22,358,880.616120281047,1,0,116417.76680314,116418.813869622,0,24,15,0,1,7,7,7321183,7091170,3231242,2071060,0,0,3061121,0,1190041,0,-3070021,0,0,0,0,0,0,0,0,0,3071090,4020080,0,1131051,2100191,0,0,0,0,0,0,0,0,0,2071060,0,0,0,0,0
22,359,551.911044254666,0,0,116420.896245108,116421.943305046,0,24,15,1,0,13,3,0,4121201,2070100,1190171,0,0,0,0,0,0,0,0,0,0,0,2050030,-2071171,0,0,0,0,0,2070100,0,0,0,0,0,0,0,0,0,0,0,0,0,0,1190171,0,0
22,360,1063.28895043407,0,0,116423.519807568,116424.566871355,0,24,15,1,0,24,7,9313441,1050191,9210222,0,1081131,0,0,0,0,3180080,3011050,0,2041180,0,0,0,0,0,0,0,1050191,0,0,0,0,3020120,0,-2060021,0,0,4130081,0,0,0,0,0,0,0,0,0
22,361,873.038548714248,1,0,116437.367016177,116438.414082659,0,24,16,0,1,34,7,6181052,4221281,3120090,5351113,0,0,3031011,0,0,3150041,0,0,0,0,0,1130121,0,0,3091160,0,0,0,0,0,0,0,0,0,3120090,0,0,0,0,1170041,0,0,0,-1070011,0,3111061
22,362,552.077732354519,0,0,116440.425881328,116441.472946655,0,24,16,0,0,10,3,0,7291181,0,1111011,0,0,0,0,0,0,0,0,0,-2120020,0,0,0,0,0,3141150,0,2030011,0,0,0,0,0,0,0,0,0,0,0,0,0,1111011,0,0,0,0
22,363,559.332321659895,0,0,116443.190613206,116444.237684693,0,24,16,0,0,20,3,4100121,0,2131120,5291091,0,0,0,0,4100121,0,0,0,0,0,0,0,0,0,0,0,0,0,0,-2131120,0,0,0,0,0,0,0,1091021,0,4200070,0,0,0,0,0,0
22,364,454.278015226009,1,0,116445.931826665,116446.978886603,0,24,16,1,1,17,3,4050072,2141201,3181140,0,0,3020011,0,0,0,1030061,0,0,0,0,0,0,0,0,0,0,-2141201,0,0,0,3181140,0,0,0,0,0,0,0,0,0,0,0,0,0,0,0
22,365,730.161827857955,0,0,116448.578912164,116449.625982111,0,24,16,0,0,18,3,0,3110041,1190110,2150080,0,0,0,0,0,0,0,0,0,0,0,0,0,0,1100031,0,0,-2010010,0,1190110,0,0,0,0,0,0,0,0,0,2150080,0,0,0,0,0,0
22,366,689.736692365841,0,0,116451.473130281,116452.520131705,0,24,16,1,0,29,3,4191031,0,5320171,1131200,0,0,0,4191031,0,0,0,0,0,0,0,0,0,0,0,0,0,0,2140081,0,0,0,0,0,0,3180090,0,0,-1131200,0,0,0,0,0,0,0
22,367,1100.21479077113,1,0,116454.343686388,116455.39075056,0,24,16,0,1,31,7,1051191,3320190,2210171,3402363,0,0,0,0,1051191,0,0,0,0,0,0,0,2170080,0,0,0,0,1150110,1160011,0,1050160,0,0,0,0,0,0,0,0,1150111,-1201171,0,1051081,0,0,0
22,368,675.313744999585,0,0,116457.543728657,116458.590790904,0,24,16,1,0,36,7,4282262,4312430,2110121,1020080,1021061,0,1141090,2120111,0,0,0,0,0,1181130,0,0,1080100,0,0,2051200,0,0,0,0,0,0,0,0,2110121,0,0,0,0,0,0,0,0,0,0,-1020080
22,369,786.529351622448,0,0,116460.320225712,116461.367293349,0,24,16,0,0,2,3,7231341,0,2010190,3081120,0,-4180170,0,0,0,3051171,0,0,0,0,0,0,0,0,0,0,0,0,0,0,0,0,2010190,0,0,0,0,0,0,0,0,0,3081120,0,0,0
22,370,747.360728710191,1,0,116463.308494027,116464.35555589,0,24,16,0,1,19,3,3191040,0,5281202,1111140,3191040,0,0,0,0,0,0,0,0,0,0,0,0,0,0,0,0,0,-3120061,0,0,0,0,2161141,0,0,0,1111140,0,0,0,0,0,0,0,0
22,371,1269.90904707054,1,0,116466.296769271,116467.34382151,0,24,16,1,1,35,7,5161111,6302241,0,11693442,0,0,0,2151051,3010060,0,0,0,0,3161040,0,0,0,0,0,0,3141201,0,0,0,0,0,0,0,0,0,0,0,0,4191191,3171010,0,0,0,-1161090,3170151
22,372,603.981248816126,1,0,116469.802689586,116470.849743749,0,24,16,1,1,27,7,4150170,4231281,9341192,8301251,0,0,0,0,0,0,0,0,4150170,0,0,2050141,0,0,0,0,2181140,0,0,0,4140030,0,0,3171101,0,0,-2030061,4121191,0,0,0,0,0,4180060,0,0
22,373,845.514609914972,0,0,116472.532129398,116473.57919896,0,24,16,0,0,7,7,7272473,0,4251202,3150301,0,1010091,2061201,0,1061051,0,-3140130,0,0,0,0,0,0,0,0,0,0,0,0,0,2190061,0,0,0,0,2061141,0,2060191,0,0,0,1090110,0,0,0,0
22,374,640.592576062772,0,0,116475.485106802,116476.532167894,0,24,16,1,0,33,3,1061070,0,5151071,2190061,0,0,0,0,0,0,0,1061070,0,0,0,0,0,0,0,0,0,0,0,0,0,3110030,2041041,0,0,0,0,0,0,0,0,0,-2190061,0,0,0
22,375,573.472322736052,1,0,116478.332201848,116479.379254856,0,24,16,1,1,8,3,1021200,0,3182391,4131150,0,0,0,0,0,0,0,-1021200,0,0,0,0,0,0,0,0,0,0,1121201,0,0,2061190,0,0,0,0,0,0,0,0,4131150,0,0,0,0,0
22,376,1285.92034337635,1,0,116481.002851577,116482.049881103,0,24,16,0,1,12,7,3070170,5201091,8271371,4191240,2040150,0,0,1030020,0,0,0,0,0,2021030,0,-3180061,0,0,0,0,0,0,0,0,0,0,4110181,4161190,0,0,0,0,3071120,0,1120120,0,0,0,0,0
22,377,679.965613249806,1,0,116484.50873686,116485.555805652,0,24,16,1,1,25,7,0,1180150,8270313,10512421,0,0,0,0,0,0,0,0,0,0,0,0,0,0,1180150,0,0,0,0,1090071,3110111,0,0,0,-4070131,0,0,0,0,1091151,0,4060010,1201110,0,0,4160150
22,378,651.939685354591,1,0,116487.261711261,116488.308778128,0,24,16,1,1,4,3,1081161,6260361,3091150,0,0,0,0,-1081161,0,0,0,0,0,4110171,2150190,0,0,0,0,0,0,0,0,3091150,0,0,0,0,0,0,0,0,0,0,0,0,0,0,0,0
22,379,529.597167114844,0,0,116490.002916251,116491.049977343,0,24,16,0,0,15,3,2091031,4111171,6182261,0,0,0,0,0,0,0,0,2091031,0,0,0,0,0,0,-4111171,0,0,0,0,0,3031200,0,0,0,0,0,3151061,0,0,0,0,0,0,0,0,0
22,380,650.433333124965,0,0,116492.697067462,116493.74412509,0,24,16,0,0,11,7,5181261,4302363,2130131,7261312,0,3051161,0,2130100,0,0,0,0,0,0,-1071141,0,0,0,1101191,0,0,2130031,0,0,0,0,0,0,2130131,0,0,0,3161191,0,0,0,4100121,0,0,0
22,381,614.119965655846,0,0,116495.485334699,116496.532401566,0,24,16,0,0,6,7,1200100,8232221,7414483,2160041,0,0,0,0,0,-1200100,0,0,0,0,0,0,0,4131151,4101070,0,0,0,0,1181161,0,3011150,0,0,1201081,0,2021091,0,0,0,0,0,2160041,0,0,0
22,382,698.573086265242,1,0,116498.308890922,116499.355953554,0,24,16,1,1,13,3,0,4121201,2070100,1190171,0,0,0,0,0,0,0,0,0,0,0,2050030,-2071171,0,0,0,0,0,2070100,0,0,0,0,0,0,0,0,0,0,0,0,0,0,1190171,0,0
22,383,1303.69437590707,0,0,116501.120688512,116502.16775307,0,24,16,1,0,24,7,9313441,1050191,9210222,0,1081131,0,0,0,0,3180080,3011050,0,2041180,0,0,0,0,0,0,0,1050191,0,0,0,0,3020120,0,-2060021,0,0,4130081,0,0,0,0,0,0,0,0,0
22,384,1276.97423560312,1,0,116504.591318301,116505.638380933,0,24,16,1,1,3,7,3312141,0,12583524,1101011,0,2201051,-1111090,0,0,0,0,0,0,0,0,0,0,0,0,0,0,0,3191081,0,0,1141171,2041090,0,2180081,4030101,0,0,0,0,1101011,0,0,0,0,0
22,385,673.441294886288,1,0,116516.273795571,116517.320865902,0,24,17,1,1,33,3,1061070,0,5151071,2190061,0,0,0,0,0,0,0,1061070,0,0,0,0,0,0,0,0,0,0,0,0,0,3110030,2041041,0,0,0,0,0,0,0,0,0,-2190061,0,0,0
22,386,1221.90710995346,1,0,116519.097361418,116520.14442944,0,24,17,1,1,36,7,4282262,4312430,2110121,1020080,1021061,0,1141090,2120111,0,0,0,0,0,1181130,0,0,1080100,0,0,2051200,0,0,0,0,0,0,0,0,2110121,0,0,0,0,0,0,0,0,0,0,-1020080
22,387,558.867288840702,0,0,116522.450345982,116523.497444416,0,24,17,1,0,8,3,1021200,0,3182391,4131150,0,0,0,0,0,0,0,-1021200,0,0,0,0,0,0,0,0,0,0,1121201,0,0,2061190,0,0,0,0,0,0,0,0,4131150,0,0,0,0,0
22,388,580.143311221036,1,0,116525.215076321,116526.262145497,0,24,17,0,1,11,7,1131201,2070160,11474624,4110111,0,0,0,0,0,0,1131201,0,0,0,-2070160,0,0,0,0,0,0,0,4121140,3071111,1030111,2201111,0,0,0,0,1051151,0,0,0,0,0,0,4110111,0,0
22,389,925.058708351571,0,0,116527.909230226,116528.956292859,0,24,17,0,0,2,3,4161050,2170051,3191021,3081171,0,-4161050,0,0,0,0,0,0,0,0,0,0,0,0,0,2170051,0,0,0,0,0,0,0,0,0,3191021,0,0,0,0,0,0,3081171,0,0,0
22,390,1210.87335889752,0,0,116530.909261408,116531.956356377,0,24,17,1,0,24,7,9313441,1050191,9210222,0,1081131,0,0,0,0,3180080,3011050,0,2041180,0,0,0,0,0,0,0,1050191,0,0,0,0,3020120,0,-2060021,0,0,4130081,0,0,0,0,0,0,0,0,0
22,391,764.223558653612,0,0,116534.321064927,116535.368131024,0,24,17,0,0,20,3,4050130,0,3081031,3332222,4050130,0,0,0,0,0,0,0,0,0,0,0,0,0,0,0,0,0,0,-3081031,0,0,0,0,0,0,0,0,0,0,0,0,0,0,1131031,2201191
22,392,1109.27908157464,1,0,116537.238747185,116538.285815592,0,24,17,0,1,34,7,3241161,4250262,4070110,10242232,0,0,0,0,0,1071081,2170080,0,0,0,0,3110201,0,0,0,1140061,0,0,4070110,0,0,0,0,0,0,0,0,0,0,4030040,0,0,0,-2011081,4201111,0
22,393,624.082370355609,0,0,116540.47408075,116541.521137608,0,24,17,1,0,17,3,4050072,2141201,3181140,0,0,3020011,0,0,0,1030061,0,0,0,0,0,0,0,0,0,0,-2141201,0,0,0,3181140,0,0,0,0,0,0,0,0,0,0,0,0,0,0,0
22,394,731.178509740857,0,0,116543.238824177,116544.285878341,0,24,17,1,0,3,7,3312141,0,12583524,1101011,0,2201051,-1111090,0,0,0,0,0,0,0,0,0,0,0,0,0,0,0,3191081,0,0,1141171,2041090,0,2180081,4030101,0,0,0,0,1101011,0,0,0,0,0
22,395,558.799920661841,0,0,116546.121212444,116547.168268532,0,24,17,1,0,27,7,4150170,4231281,9341192,8301251,0,0,0,0,0,0,0,0,4150170,0,0,2050141,0,0,0,0,2181140,0,0,0,4140030,0,0,3171101,0,0,-2030061,4121191,0,0,0,0,0,4180060,0,0
22,396,883.752397232456,1,0,116548.780056576,116549.827198125,0,24,17,0,1,18,3,0,7341442,0,1151140,0,0,0,0,0,0,0,0,0,3160100,2051181,0,0,0,0,0,0,-2130161,0,0,0,0,0,0,0,0,0,0,0,0,0,0,0,1151140,0,0
22,397,934.119534504134,0,0,116551.838915567,116552.885977814,0,24,17,0,0,19,3,0,0,12550523,0,0,0,0,0,0,0,0,0,0,0,0,0,0,0,0,0,0,0,-3110131,3170181,2100181,0,0,0,4170030,0,0,0,0,0,0,0,0,0,0,0
22,398,926.364110971917,0,0,116554.850711541,116555.897779178,0,24,17,0,0,7,3,5250341,0,0,2271221,1100190,0,0,0,0,0,-4150151,0,0,0,0,0,0,0,0,0,0,0,0,0,0,0,0,0,0,0,0,0,0,1130051,0,0,0,0,0,1141170
22,399,819.470846021432,0,0,116557.92132647,116558.968397186,0,24,17,1,0,25,7,0,1180150,8270313,10512421,0,0,0,0,0,0,0,0,0,0,0,0,0,0,1180150,0,0,0,0,1090071,3110111,0,0,0,-4070131,0,0,0,0,1091151,0,4060010,1201110,0,0,4160150
22,400,622.825857790303,1,0,116560.88607213,116561.933180573,0,24,17,1,1,13,3,0,4121201,2070100,1190171,0,0,0,0,0,0,0,0,0,0,0,2050030,-2071171,0,0,0,0,0,2070100,0,0,0,0,0,0,0,0,0,0,0,0,0,0,1190171,0,0
22,401,652.528675622307,1,0,116563.627285588,116564.674345526,0,24,17,1,1,4,3,1081161,6260361,3091150,0,0,0,0,-1081161,0,0,0,0,0,4110171,2150190,0,0,0,0,0,0,0,0,3091150,0,0,0,0,0,0,0,0,0,0,0,0,0,0,0,0
22,402,740.089201121009,1,0,116566.403776484,116567.450852975,0,24,17,1,1,29,3,4191031,0,5320171,1131200,0,0,0,4191031,0,0,0,0,0,0,0,0,0,0,0,0,0,0,2140081,0,0,0,0,0,0,3180090,0,0,-1131200,0,0,0,0,0,0,0
22,403,793.268093242659,1,0,116569.321469521,116570.368515985,0,24,17,0,1,15,3,4291172,4181030,0,0,0,0,0,2170031,2121141,0,0,0,0,3171010,0,0,0,0,-1010020,0,0,0,0,0,0,0,0,0,0,0,0,0,0,0,0,0,0,0,0,0
22,404,1152.57402142743,0,0,116572.274436531,116573.321302913,0,24,17,1,0,35,7,5161111,6302241,0,11693442,0,0,0,2151051,3010060,0,0,0,0,3161040,0,0,0,0,0,0,3141201,0,0,0,0,0,0,0,0,0,0,0,0,4191191,3171010,0,0,0,-1161090,3170151
22,405,940.817470254842,0,0,116575.650953373,116576.698013311,0,24,17,0,0,31,7,5201200,0,6070261,13532271,0,0,3040070,0,0,0,0,0,2161130,0,0,0,0,0,0,0,0,0,4010090,0,0,0,0,0,0,2060171,0,4200051,0,0,-4061080,3091030,2180110,0,0,0
22,406,1338.33624288673,1,0,116578.839225846,116579.886287323,0,24,17,0,1,6,7,11191420,2170181,3071200,6082211,3020140,0,0,4021050,0,-2120200,2030030,0,0,0,0,0,0,0,0,0,2170181,0,0,0,0,0,0,0,3071200,0,0,0,0,3021140,0,0,3061071,0,0,0
22,407,817.757769749733,1,0,116582.309857559,116583.356962922,0,24,17,0,1,12,7,0,10531242,13393602,0,0,0,0,0,0,0,0,0,0,0,0,-1200010,3200071,0,0,2071080,4060081,0,0,4051181,0,0,4051160,0,4111090,1180171,0,0,0,0,0,0,0,0,0,0
22,408,659.406003192998,0,0,116585.192230812,116586.239292675,0,24,17,0,0,10,7,3121080,9402291,6341321,1160051,0,3121080,0,0,0,0,0,0,0,-2140090,0,0,1150051,2051060,0,0,4061090,0,0,4201200,0,0,2140121,0,0,0,0,0,0,1160051,0,0,0,0,0,0
22,409,990.156376792584,0,0,116591.133471911,116592.180537238,0,24,18,1,0,35,7,5161111,6302241,0,11693442,0,0,0,2151051,3010060,0,0,0,0,3161040,0,0,0,0,0,0,3141201,0,0,0,0,0,0,0,0,0,0,0,0,4191191,3171010,0,0,0,-1161090,3170151
22,410,855.729164060904,1,0,116594.262920809,116595.3099896,0,24,18,0,1,20,3,7261101,0,2131090,3020051,0,0,0,0,3121090,0,4140011,0,0,0,0,0,0,0,0,0,0,0,0,-2131090,0,0,0,0,0,0,0,0,0,0,0,0,0,3020051,0,0
22,411,909.407735525747,1,0,116597.251197592,116598.298253681,0,24,18,1,1,25,7,0,1180150,8270313,10512421,0,0,0,0,0,0,0,0,0,0,0,0,0,0,1180150,0,0,0,0,1090071,3110111,0,0,0,-4070131,0,0,0,0,1091151,0,4060010,1201110,0,0,4160150
22,412,646.950206340989,1,0,116600.392407432,116601.43947045,0,24,18,0,1,6,3,2030021,5211221,4080161,0,0,0,0,0,0,-2030021,0,0,0,0,0,0,3090131,2121090,0,0,0,0,0,4080161,0,0,0,0,0,0,0,0,0,0,0,0,0,0,0,0
22,413,658.206079882802,0,0,116603.098318046,116604.145379524,0,24,18,1,0,29,3,4191031,0,5320171,1131200,0,0,0,4191031,0,0,0,0,0,0,0,0,0,0,0,0,0,0,2140081,0,0,0,0,0,0,3180090,0,0,-1131200,0,0,0,0,0,0,0
22,414,678.986657527275,0,0,116605.851292447,116606.898353924,0,24,18,1,0,33,3,1061070,0,5151071,2190061,0,0,0,0,0,0,0,1061070,0,0,0,0,0,0,0,0,0,0,0,0,0,3110030,2041041,0,0,0,0,0,0,0,0,0,-2190061,0,0,0
22,415,783.786889733165,1,0,116608.627794892,116609.674857139,0,24,18,1,1,24,7,9313441,1050191,9210222,0,1081131,0,0,0,0,3180080,3011050,0,2041180,0,0,0,0,0,0,0,1050191,0,0,0,0,3020120,0,-2060021,0,0,4130081,0,0,0,0,0,0,0,0,0
22,416,814.650364860427,0,0,116611.474886858,116612.521954495,0,24,18,1,0,4,3,1081161,6260361,3091150,0,0,0,0,-1081161,0,0,0,0,0,4110171,2150190,0,0,0,0,0,0,0,0,3091150,0,0,0,0,0,0,0,0,0,0,0,0,0,0,0,0
22,417,605.55034969002,0,0,116614.47491804,116615.521982212,0,24,18,1,0,17,3,4050072,2141201,3181140,0,0,3020011,0,0,0,1030061,0,0,0,0,0,0,0,0,0,0,-2141201,0,0,0,3181140,0,0,0,0,0,0,0,0,0,0,0,0,0,0,0
22,418,813.833477703156,1,0,116617.204352848,116618.251483234,0,24,18,0,1,12,7,6210232,3040040,7342452,2202101,0,0,0,2120031,4090201,0,0,0,0,0,0,-3040040,0,0,0,0,0,0,0,3071191,2071090,0,0,0,2200171,0,0,1151080,0,0,1051021,0,0,0,0,0
22,419,944.408771072631,0,0,116620.086748429,116621.133814141,0,24,18,0,0,31,7,5301401,3090161,4251150,7362283,0,0,0,0,0,1110201,0,0,4191200,0,0,0,0,0,0,3090161,0,0,1141020,3110130,0,0,0,0,0,0,0,0,0,0,-3121091,0,0,0,3140151,1101041
22,420,800.071508303517,0,0,116623.169135079,116624.216200407,0,24,18,0,0,2,3,5362271,3170140,0,4071050,0,-2181080,0,0,0,0,0,0,3181191,0,0,0,0,0,0,0,0,3170140,0,0,0,0,0,0,0,0,0,0,0,0,0,0,0,0,0,4071050
22,421,813.307236079709,0,0,116626.086816182,116627.133877275,0,24,18,1,0,36,7,4282262,4312430,2110121,1020080,1021061,0,1141090,2120111,0,0,0,0,0,1181130,0,0,1080100,0,0,2051200,0,0,0,0,0,0,0,0,2110121,0,0,0,0,0,0,0,0,0,0,-1020080
22,422,1025.37491529074,1,0,116628.980971936,116630.028028024,0,24,18,0,1,18,7,3191151,4110031,5162312,10353313,0,0,0,0,0,0,0,3191151,0,0,0,0,0,0,0,0,0,-4110031,0,3091161,0,2071151,0,0,0,0,0,0,1151071,3041041,0,4101010,2060191,0,0,0
22,423,609.547399362782,1,0,116632.157495015,116633.204534165,0,24,18,1,1,27,7,4150170,4231281,9341192,8301251,0,0,0,0,0,0,0,0,4150170,0,0,2050141,0,0,0,0,2181140,0,0,0,4140030,0,0,3171101,0,0,-2030061,4121191,0,0,0,0,0,4180060,0,0
22,424,839.215493717347,1,0,116634.88690942,116635.933974747,0,24,18,0,1,34,3,0,1190010,0,3340240,0,0,0,0,0,0,0,0,0,0,0,0,0,1190010,0,0,0,0,0,0,0,0,0,0,0,0,0,0,0,0,0,1150030,0,-1130160,1060050,0
22,425,788.28592847276,0,0,116637.898713863,116638.945774185,0,24,18,1,0,3,7,3312141,0,12583524,1101011,0,2201051,-1111090,0,0,0,0,0,0,0,0,0,0,0,0,0,0,0,3191081,0,0,1141171,2041090,0,2180081,4030101,0,0,0,0,1101011,0,0,0,0,0
22,426,1093.0991723726,1,0,116640.922284638,116641.981108982,0,24,18,0,1,11,7,15413292,3122102,2040191,3201200,0,4111061,0,3191041,0,0,0,4010170,4101020,2101051,-1021051,0,0,0,0,0,0,0,0,0,0,0,0,0,2040191,0,0,0,0,0,0,0,0,3201200,0,0
22,427,664.910559979035,0,0,116644.228236981,116645.275263427,0,24,18,0,0,19,3,4101131,2070041,4031051,4191060,0,0,0,0,4101131,0,0,0,0,0,0,0,0,0,2070041,0,0,0,-4031051,0,0,0,0,0,0,0,0,4191060,0,0,0,0,0,0,0,0
22,428,1536.23312414857,1,0,116647.00469862,116648.051761637,0,24,18,0,1,7,7,5340242,2361102,3031031,7350252,0,3140151,0,0,0,0,-2200091,0,0,0,0,1190041,0,0,0,0,1171061,0,0,0,0,0,0,0,0,3031031,0,0,0,2150180,0,1010061,0,0,0,4190011
22,429,587.896040015039,0,0,116650.687095048,116651.734162685,0,24,18,0,0,15,3,0,5192341,4081090,1021081,0,0,0,0,0,0,0,0,0,0,0,0,0,1021191,-4171150,0,0,0,0,0,0,0,0,0,0,0,4081090,1021081,0,0,0,0,0,0,0,0
22,430,631.552922772244,1,0,116653.416530626,116654.463607502,0,24,18,1,1,13,3,0,4121201,2070100,1190171,0,0,0,0,0,0,0,0,0,0,0,2050030,-2071171,0,0,0,0,0,2070100,0,0,0,0,0,0,0,0,0,0,0,0,0,0,1190171,0,0
22,431,764.84835028532,1,0,116656.28716565,116657.334244451,0,24,18,0,1,10,7,0,12711272,7350301,5221090,0,0,0,0,0,0,0,0,0,-1170040,3170101,0,4170090,4201041,0,0,0,0,0,0,3170201,0,0,4180100,0,0,0,3111050,0,0,0,0,2110040,0,0,0
22,432,629.363264830317,1,0,116659.122481661,116660.169545063,0,24,18,1,1,8,3,1021200,0,3182391,4131150,0,0,0,0,0,0,0,-1021200,0,0,0,0,0,0,0,0,0,0,1121201,0,0,2061190,0,0,0,0,0,0,0,0,4131150,0,0,0,0,0
22,433,833.859146907344,0,0,116688.381638919,116689.428706556,0,24,19,1,0,4,3,1081161,6260361,3091150,0,0,0,0,-1081161,0,0,0,0,0,4110171,2150190,0,0,0,0,0,0,0,0,3091150,0,0,0,0,0,0,0,0,0,0,0,0,0,0,0,0
22,434,706.635708629619,0,0,116691.369912624,116692.41698026,0,24,19,1,0,29,3,4191031,0,5320171,1131200,0,0,0,4191031,0,0,0,0,0,0,0,0,0,0,0,0,0,0,2140081,0,0,0,0,0,0,3180090,0,0,-1131200,0,0,0,0,0,0,0
22,435,1437.58264329517,1,0,116694.217002665,116695.264062988,0,24,19,0,1,7,7,7121271,9313481,3121061,7161341,0,0,0,0,0,0,-4010121,0,3111150,4041191,0,4111160,0,0,0,0,0,1161130,0,0,0,0,3121061,0,0,0,0,0,0,0,4060161,0,0,0,3101180,0
22,436,780.534739533323,0,0,116697.72292452,116698.769985997,0,24,19,1,0,17,3,4050072,2141201,3181140,0,0,3020011,0,0,0,1030061,0,0,0,0,0,0,0,0,0,0,-2141201,0,0,0,3181140,0,0,0,0,0,0,0,0,0,0,0,0,0,0,0
22,437,1156.9018321461,1,0,116700.734728193,116701.781786975,0,24,19,0,1,12,7,1130091,5330241,6220160,7411320,0,0,0,1130091,0,0,0,0,0,0,0,-3180040,0,0,0,0,0,2150201,0,2200080,0,0,0,0,0,4020080,0,0,0,3170200,0,3161100,0,0,1080020,0
22,438,639.167450601235,0,0,116703.958288111,116705.005354208,0,24,19,1,0,27,7,4150170,4231281,9341192,8301251,0,0,0,0,0,0,0,0,4150170,0,0,2050141,0,0,0,0,2181140,0,0,0,4140030,0,0,3171101,0,0,-2030061,4121191,0,0,0,0,0,4180060,0,0
22,439,648.899263687781,0,0,116706.840677148,116707.887742091,0,24,19,1,0,8,3,1021200,0,3182391,4131150,0,0,0,0,0,0,0,-1021200,0,0,0,0,0,0,0,0,0,0,1121201,0,0,2061190,0,0,0,0,0,0,0,0,4131150,0,0,0,0,0
22,440,619.483626724104,1,0,116709.723064261,116710.770126508,0,24,19,0,1,18,3,3120120,1110011,2181080,3070090,0,0,0,0,0,0,0,0,3120120,0,0,0,0,0,0,0,0,-1110011,0,0,0,0,0,0,0,2181080,0,0,0,0,0,0,3070090,0,0,0
22,441,623.753613705048,1,0,116712.40544375,116713.452556813,0,24,19,0,1,15,7,9383513,5211092,3021151,4330240,3131171,0,0,2091191,4161151,0,0,0,0,0,0,2041071,0,0,-3170021,0,0,0,0,0,3021151,0,0,0,0,0,0,0,0,0,0,1180100,3150140,0,0,0
22,442,754.33391155093,1,0,116715.276065686,116716.323129088,0,24,19,0,1,19,3,7291331,0,3090120,0,0,0,0,0,4130100,0,0,2030080,1131151,0,0,0,0,0,0,0,0,0,-3090120,0,0,0,0,0,0,0,0,0,0,0,0,0,0,0,0,0
22,443,888.854284843546,0,0,116718.11139286,116719.158450873,0,24,19,1,0,25,7,0,1180150,8270313,10512421,0,0,0,0,0,0,0,0,0,0,0,0,0,0,1180150,0,0,0,0,1090071,3110111,0,0,0,-4070131,0,0,0,0,1091151,0,4060010,1201110,0,0,4160150
22,444,1212.0609634585,1,0,116721.064362949,116722.111425582,0,24,19,0,1,2,7,10621501,3332100,2151111,4010110,0,-1190160,0,2140070,3200180,4091091,0,0,0,0,2161090,0,1171010,0,0,0,0,0,0,0,2151111,0,0,0,0,0,0,0,0,4010110,0,0,0,0,0,0
22,445,676.436676105368,0,0,116724.48793588,116725.535001977,0,24,19,0,0,11,3,0,1151020,3201190,2100101,0,0,0,0,0,0,0,0,0,0,-1151020,0,0,0,0,0,0,0,0,1160010,0,0,0,0,0,0,2041180,0,0,2100101,0,0,0,0,0,0
22,446,845.449166561593,0,0,116727.405613903,116728.452686544,0,24,19,0,0,20,7,6291332,4060030,4131040,7100251,2071081,1180131,0,3040120,0,0,0,0,0,0,0,4060030,0,0,0,0,0,0,0,-2040010,0,0,0,2091030,0,0,0,0,0,0,0,0,0,3050140,4050111,0
22,447,1131.27344111854,1,0,116730.34682382,116731.393888762,0,24,19,1,1,35,7,5161111,6302241,0,11693442,0,0,0,2151051,3010060,0,0,0,0,3161040,0,0,0,0,0,0,3141201,0,0,0,0,0,0,0,0,0,0,0,0,4191191,3171010,0,0,0,-1161090,3170151
22,448,675.81688897917,1,0,116733.617487947,116734.664512468,0,24,19,0,1,34,3,3050190,1121180,3070041,3070111,0,0,0,0,0,0,0,3050190,0,0,0,1121180,0,0,0,0,0,0,0,0,0,0,0,0,0,0,3070041,0,0,0,0,0,0,-3070111,0,0
22,449,1020.34886497131,1,0,116736.452771621,116737.499841183,0,24,19,0,1,6,7,3170161,2242091,2292140,3211291,0,0,0,2130020,0,-1040141,0,0,0,0,0,1121051,0,0,1121040,0,0,0,0,0,1101050,1191090,0,0,0,0,0,0,2101131,0,0,0,0,0,1110160,0
22,450,735.501621340518,1,0,116739.558698634,116740.605761651,0,24,19,1,1,13,3,0,4121201,2070100,1190171,0,0,0,0,0,0,0,0,0,0,0,2050030,-2071171,0,0,0,0,0,2070100,0,0,0,0,0,0,0,0,0,0,0,0,0,0,1190171,0,0
22,451,622.228398380685,1,0,116742.346964331,116743.394027348,0,24,19,1,1,33,3,1061070,0,5151071,2190061,0,0,0,0,0,0,0,1061070,0,0,0,0,0,0,0,0,0,0,0,0,0,3110030,2041041,0,0,0,0,0,0,0,0,0,-2190061,0,0,0
22,452,1009.49412074988,0,0,116745.064635502,116746.111705063,0,24,19,0,0,31,3,4020151,3170061,0,4241331,4020151,0,0,0,0,0,0,0,0,0,0,0,3170061,0,0,0,0,0,0,0,0,0,0,0,0,0,0,0,0,0,-3081160,0,0,0,0,1160171
22,453,716.668561202823,0,0,116748.123495648,116749.170560205,0,24,19,1,0,36,7,4282262,4312430,2110121,1020080,1021061,0,1141090,2120111,0,0,0,0,0,1181130,0,0,1080100,0,0,2051200,0,0,0,0,0,0,0,0,2110121,0,0,0,0,0,0,0,0,0,0,-1020080
22,454,748.002458625706,0,0,116750.947059185,116751.994176867,0,24,19,1,0,3,7,3312141,0,12583524,1101011,0,2201051,-1111090,0,0,0,0,0,0,0,0,0,0,0,0,0,0,0,3191081,0,0,1141171,2041090,0,2180081,4030101,0,0,0,0,1101011,0,0,0,0,0
22,455,843.630610979744,0,0,116753.841215324,116754.888269487,0,24,19,0,0,10,3,2011150,7120321,0,1080150,0,0,0,0,2011150,0,0,0,0,-4010170,0,0,0,0,0,3110151,0,0,0,0,0,0,0,0,0,0,0,0,0,0,0,0,0,1080150,0,0
22,456,1230.29155969562,1,0,116756.876539342,116757.923599279,0,24,19,1,1,24,7,9313441,1050191,9210222,0,1081131,0,0,0,0,3180080,3011050,0,2041180,0,0,0,0,0,0,0,1050191,0,0,0,0,3020120,0,-2060021,0,0,4130081,0,0,0,0,0,0,0,0,0
22,457,641.662767535308,1,0,116793.371064427,116794.418129754,0,24,20,1,1,13,3,0,4121201,2070100,1190171,0,0,0,0,0,0,0,0,0,0,0,2050030,-2071171,0,0,0,0,0,2070100,0,0,0,0,0,0,0,0,0,0,0,0,0,0,1190171,0,0
22,458,568.375824557734,0,0,116796.159329739,116797.206393911,0,24,20,1,0,8,3,1021200,0,3182391,4131150,0,0,0,0,0,0,0,-1021200,0,0,0,0,0,0,0,0,0,0,1121201,0,0,2061190,0,0,0,0,0,0,0,0,4131150,0,0,0,0,0
22,459,602.75976768753,0,0,116798.782887194,116799.829957525,0,24,20,1,0,29,3,4191031,0,5320171,1131200,0,0,0,4191031,0,0,0,0,0,0,0,0,0,0,0,0,0,0,2140081,0,0,0,0,0,0,3180090,0,0,-1131200,0,0,0,0,0,0,0
22,460,757.227663110825,1,0,116801.559396183,116802.606451886,0,24,20,0,1,6,3,4111161,0,2111131,3310070,0,0,0,0,0,-4111161,0,0,0,0,0,0,0,0,0,0,0,0,0,2111131,0,0,0,0,0,0,0,2120060,0,0,0,0,1190010,0,0,0
22,461,635.862560739042,0,0,116804.547664113,116805.594742144,0,24,20,0,0,20,3,2111061,0,3322120,4031061,0,0,0,0,0,0,2111061,0,0,0,0,0,0,0,0,0,0,0,0,-1161090,0,0,2161030,0,0,0,0,4031061,0,0,0,0,0,0,0,0
22,462,641.523796628462,0,0,116807.383071359,116808.430057384,0,24,20,1,0,33,3,1061070,0,5151071,2190061,0,0,0,0,0,0,0,1061070,0,0,0,0,0,0,0,0,0,0,0,0,0,3110030,2041041,0,0,0,0,0,0,0,0,0,-2190061,0,0,0
22,463,718.130257970188,1,0,116810.265380709,116811.312432948,0,24,20,0,1,18,7,2110070,3250180,6372342,3202220,0,0,0,0,0,0,0,2110070,0,0,0,0,1150130,0,0,0,0,-2100050,0,0,0,3140181,2181141,1051020,0,0,0,0,1141030,0,0,2061190,0,0,0,0
22,464,679.094061619253,0,0,116813.171292016,116814.218357728,0,24,20,1,0,3,7,3312141,0,12583524,1101011,0,2201051,-1111090,0,0,0,0,0,0,0,0,0,0,0,0,0,0,0,3191081,0,0,1141171,2041090,0,2180081,4030101,0,0,0,0,1101011,0,0,0,0,0
22,465,921.717247212655,1,0,116815.959557328,116817.006624965,0,24,20,1,1,35,7,5161111,6302241,0,11693442,0,0,0,2151051,3010060,0,0,0,0,3161040,0,0,0,0,0,0,3141201,0,0,0,0,0,0,0,0,0,0,0,0,4191191,3171010,0,0,0,-1161090,3170151
22,466,692.049152843538,0,0,116818.971359846,116820.018420553,0,24,20,1,0,17,3,4050072,2141201,3181140,0,0,3020011,0,0,0,1030061,0,0,0,0,0,0,0,0,0,0,-2141201,0,0,0,3181140,0,0,0,0,0,0,0,0,0,0,0,0,0,0,0
