sub_id,Trial,RT,Resp,Error,Fix_onset,Disp_onset,q1,q2,block,repeat,tid,tloc,d_setsize,quad1,quad2,quad3,quad4,loc1,loc2,loc3,loc4,loc5,loc6,loc7,loc8,loc9,loc10,loc11,loc12,loc13,loc14,loc15,loc16,loc17,loc18,loc19,loc20,loc21,loc22,loc23,loc24,loc25,loc26,loc27,loc28,loc29,loc30,loc31,loc32,loc33,loc34,loc35,loc36
20,1,1126.07652088627,1,0,777610.085221665,777611.132294872,1,50,1,1,1,5,3,1080130,3091120,6322212,0,0,0,0,0,-1080130,0,0,0,0,0,0,3091120,0,0,0,0,0,0,3171151,0,0,0,0,0,0,0,3151061,0,0,0,0,0,0,0,0,0
20,2,1748.90340794809,0,0,777613.332371018,777614.379413813,1,50,1,0,0,3,7,10392242,4150090,0,9262381,0,4110041,-2040111,0,3091010,0,1151080,0,0,0,0,4150090,0,0,0,0,0,0,0,0,0,0,0,0,0,0,0,0,4040070,0,0,4091141,0,0,1131170,0
20,3,1211.69332310092,1,0,777617.332407589,777618.379464629,1,50,1,0,1,32,3,0,0,4190111,8173440,0,0,0,0,0,0,0,0,0,0,0,0,0,0,0,0,0,0,0,0,0,4190111,0,0,0,0,0,0,4091170,0,0,-3051170,0,0,0,1031100
20,4,549.89591811318,0,0,777620.638330699,777621.685406601,1,50,1,0,0,9,7,6111171,0,8411363,3142210,3060041,0,0,0,0,0,0,0,-3051130,0,0,0,0,0,0,0,0,0,2090051,0,2150050,0,2120091,0,2051171,0,0,0,0,2131100,0,0,0,1011110,0,0
20,5,1581.2969194958,0,0,777623.414840367,777624.462028679,1,50,1,0,0,24,3,3151091,2071021,2200190,3180100,0,0,0,0,0,3151091,0,0,0,0,0,0,0,0,0,0,2071021,0,0,0,0,0,0,-2200190,0,0,0,0,0,3180100,0,0,0,0,0,0
20,6,694.713399629109,1,0,777627.050197012,777628.097287928,1,50,1,1,1,28,3,0,5230081,0,5222282,0,0,0,0,0,0,0,0,0,0,0,0,0,4040020,0,0,0,1190061,0,0,0,0,0,0,0,0,0,-3081201,0,0,0,0,0,2141081,0,0
20,7,1362.18861571979,1,0,777629.87375987,777630.920821529,1,50,1,1,1,19,3,1031161,3101161,3171130,2060040,0,1031161,0,0,0,0,0,0,0,0,3101161,0,0,0,0,0,0,0,-3171130,0,0,0,0,0,0,0,0,2060040,0,0,0,0,0,0,0,0
20,8,1960.86411399301,0,0,777633.462048312,777634.50911844,1,50,1,0,0,8,7,5312321,5130182,3071091,6182241,0,0,0,0,4201171,0,0,-1111150,0,3010011,0,0,0,2120171,0,0,0,0,0,0,0,3071091,0,0,0,0,0,2061050,0,1090111,0,0,3031080,0,0,0
20,9,1191.71300239395,1,0,777637.497393638,777638.54447493,1,50,1,1,1,12,7,6131381,6092141,7333461,4090081,0,0,0,0,0,3091191,0,0,3040190,0,0,-3041130,0,0,0,0,0,3051011,2091100,0,0,0,0,0,0,2081190,3161171,0,0,0,0,0,4090081,0,0,0
20,10,1140.67160198465,1,0,777640.803334071,777641.850406508,1,50,1,1,1,27,3,1060010,0,5130171,4031170,0,0,0,0,1060010,0,0,0,0,0,0,0,0,0,0,0,0,0,0,2120051,0,0,0,0,0,0,-3010120,0,0,0,4031170,0,0,0,0,0
20,11,1461.81766595691,1,0,777644.16809099,777645.215176132,1,50,1,0,1,13,3,0,5520361,0,2050191,0,0,0,0,0,0,0,0,0,3200130,0,0,-1140161,0,0,0,1180070,0,0,0,0,0,0,0,0,0,0,0,0,0,0,0,0,2050191,0,0
20,12,736.896429210901,0,0,777647.815202078,777648.862303003,1,50,1,0,0,29,3,0,4071011,1190030,4191210,0,0,0,0,0,0,0,0,0,0,0,0,0,4071011,0,0,0,0,1190030,0,0,0,0,0,0,0,0,0,-2171190,0,0,2020020,0,0,0,0
20,13,1103.50424796343,1,0,777650.662309624,777651.709374363,1,50,1,1,1,21,3,0,4021080,4141171,3150131,0,0,0,0,0,0,0,0,0,0,0,0,0,0,0,4021080,0,0,0,0,-2041140,0,0,0,2100031,0,0,0,3150131,0,0,0,0,0,0,0
20,14,1742.9603576893,0,0,777653.827105887,777654.87412366,1,50,1,1,0,35,7,6061110,5243333,6181081,3111021,0,3040060,0,0,0,0,0,3021050,0,0,0,2051161,0,0,0,0,1161011,2031161,0,0,0,0,0,2040071,4141010,0,0,0,0,0,0,0,0,0,-3111021,0
20,15,1325.36156859715,0,0,777657.709506405,777658.756534572,1,50,1,0,0,34,3,0,2170160,0,10222322,0,0,0,0,0,0,0,0,0,0,0,0,0,0,0,2170160,0,0,0,0,0,0,0,0,0,0,0,0,4071050,2090101,0,0,0,-4061171,0,0
20,16,1203.60410725698,1,0,777661.215425587,777662.262483396,1,50,1,0,1,18,7,4031130,11562301,5251212,3150161,0,0,4031130,0,0,0,0,0,0,0,3021050,0,4141051,0,0,2200080,0,-2200120,0,1140091,0,4111121,0,0,0,0,0,0,0,0,0,0,0,0,3150161,0
20,17,910.571465617977,1,0,777664.580192131,777665.627227997,1,50,1,1,1,22,7,0,5171231,2182122,5502473,0,0,0,0,0,0,0,0,0,2120071,0,0,0,0,0,0,3051160,0,0,1111101,0,-1071021,0,0,0,0,0,1170130,2081161,0,0,1131131,0,0,0,1120051
20,18,864.334781421348,1,0,777667.615490107,777668.662561775,1,50,1,0,1,17,7,7071071,4261161,4191171,5320152,0,4040061,0,0,0,3031010,0,0,0,0,0,0,2161150,0,0,0,-2100011,0,1111110,0,0,0,0,0,3080061,0,0,0,0,0,0,4190091,0,1130061,0,0
20,19,1712.36700739246,0,0,777670.674361643,777671.721430616,1,50,1,1,0,4,7,5351111,10442321,3111200,3220220,0,0,0,-1171050,0,0,4180061,0,0,0,0,4190100,2151030,0,0,0,4101191,0,0,0,0,0,0,3111200,0,0,0,1130070,0,0,0,0,0,2090150,0,0
20,20,1302.15757235419,1,0,777674.509713207,777675.556791034,1,50,1,1,1,33,7,0,12593380,6202170,6222312,0,0,0,0,0,0,0,0,0,0,1101120,3191190,4140010,0,0,0,0,4161060,0,0,0,4111090,2091080,0,0,0,0,0,0,3021181,0,0,-3201131,0,0,0
20,21,1096.80128190666,0,0,777678.050980026,777679.098015122,1,50,1,1,0,10,3,0,3351240,6301162,0,0,0,0,0,0,0,0,0,0,-1180100,0,2171140,0,0,0,0,0,0,0,0,0,0,0,0,4100151,0,2201011,0,0,0,0,0,0,0,0,0
20,22,1831.95520529989,0,0,777681.26275441,777682.309823768,1,50,1,1,0,30,7,9300302,5192121,5350311,4161081,0,2070080,0,3140081,0,0,4090141,0,0,0,0,3091071,2101050,0,0,0,0,0,4150151,0,0,1200160,0,0,0,0,0,0,0,-4161081,0,0,0,0,0,0
20,23,1573.34552030079,0,0,777685.333399253,777686.380467071,1,50,1,0,0,2,3,5300160,3180161,0,4060111,0,-4110110,0,0,0,1190050,0,0,0,0,3180161,0,0,0,0,0,0,0,0,0,0,0,0,0,0,0,0,0,4060111,0,0,0,0,0,0,0
20,24,1843.24384410866,0,0,777689.08640273,777690.133473627,1,50,1,0,0,16,7,10463371,10322202,1160180,3151131,4181161,0,4131060,0,0,0,0,0,2151150,0,0,3150031,4081141,0,0,-3091030,0,0,0,0,0,0,0,0,0,0,1160180,3151131,0,0,0,0,0,0,0,0
20,25,906.250262050889,1,0,777696.098260343,777697.145333165,1,50,2,0,1,32,7,4150010,0,11261391,7252283,0,0,0,0,0,0,4150010,0,0,0,0,0,0,0,0,0,0,0,3070120,0,0,0,0,3031190,1080040,0,4080041,4160131,0,0,0,-2081121,0,0,0,1011031
20,26,656.299152295105,1,0,777699.145376666,777700.192456418,1,50,2,0,1,29,3,4141170,0,3030200,8181270,0,0,0,0,0,0,0,4141170,0,0,0,0,0,0,0,0,0,0,3030200,0,0,0,0,0,0,0,0,0,-4110120,0,0,0,4071150,0,0,0
20,27,618.590541183949,0,0,777701.910115723,777702.957191625,1,50,2,1,0,22,7,0,5171231,2182122,5502473,0,0,0,0,0,0,0,0,0,2120071,0,0,0,0,0,0,3051160,0,0,1111101,0,-1071021,0,0,0,0,0,1170130,2081161,0,0,1131131,0,0,0,1120051
20,28,1646.5214912314,0,0,777704.710147752,777705.757231739,1,50,2,1,0,4,7,5351111,10442321,3111200,3220220,0,0,0,-1171050,0,0,4180061,0,0,0,0,4190100,2151030,0,0,0,4101191,0,0,0,0,0,0,3111200,0,0,0,1130070,0,0,0,0,0,2090150,0,0
20,29,725.097330403514,1,0,777708.451387547,777709.49845806,1,50,2,0,1,3,3,4353121,0,0,4200110,0,0,-1171040,0,0,0,0,1151061,2031020,0,0,0,0,0,0,0,0,0,0,0,0,0,0,0,0,0,0,0,4200110,0,0,0,0,0,0,0
20,30,566.450842889026,1,0,777711.263194807,777712.310273404,1,50,2,1,1,27,3,1060010,0,5130171,4031170,0,0,0,0,1060010,0,0,0,0,0,0,0,0,0,0,0,0,0,0,2120051,0,0,0,0,0,0,-3010120,0,0,0,4031170,0,0,0,0,0
20,31,961.137437261641,0,0,777714.051478167,777715.098534821,1,50,2,1,0,35,7,6061110,5243333,6181081,3111021,0,3040060,0,0,0,0,0,3021050,0,0,0,2051161,0,0,0,0,1161011,2031161,0,0,0,0,0,2040071,4141010,0,0,0,0,0,0,0,0,0,-3111021,0
20,32,1226.5255410457,0,0,777717.180932952,777718.22800077,1,50,2,1,0,19,3,1031161,3101161,3171130,2060040,0,1031161,0,0,0,0,0,0,0,0,3101161,0,0,0,0,0,0,0,-3171130,0,0,0,0,0,0,0,0,2060040,0,0,0,0,0,0,0,0
20,33,896.873731864616,1,0,777720.651571097,777721.698695119,1,50,2,1,1,10,3,0,3351240,6301162,0,0,0,0,0,0,0,0,0,0,-1180100,0,2171140,0,0,0,0,0,0,0,0,0,0,0,0,4100151,0,2201011,0,0,0,0,0,0,0,0,0
20,34,1288.19998912513,1,0,777723.663388674,777724.710443788,1,50,2,1,1,5,3,1080130,3091120,6322212,0,0,0,0,0,-1080130,0,0,0,0,0,0,3091120,0,0,0,0,0,0,3171151,0,0,0,0,0,0,0,3151061,0,0,0,0,0,0,0,0,0
20,35,1289.18780270033,0,0,777727.169308241,777728.216382989,1,50,2,1,0,12,7,6131381,6092141,7333461,4090081,0,0,0,0,0,3091191,0,0,3040190,0,0,-3041130,0,0,0,0,0,3051011,2091100,0,0,0,0,0,0,2081190,3161171,0,0,0,0,0,4090081,0,0,0
20,36,2502.61906534433,0,0,777730.592899356,777731.639964094,1,50,2,1,0,30,7,9300302,5192121,5350311,4161081,0,2070080,0,3140081,0,0,4090141,0,0,0,0,3091071,2101050,0,0,0,0,0,4150151,0,0,1200160,0,0,0,0,0,0,0,-4161081,0,0,0,0,0,0
20,37,947.087462991476,0,0,777735.169434509,777736.216495013,1,50,2,0,0,24,3,4121091,3111200,4061150,0,0,0,0,0,2020071,0,0,0,2101020,0,0,0,0,0,0,0,3111200,0,0,0,0,0,0,-4061150,0,0,0,0,0,0,0,0,0,0,0,0
20,38,964.718742994592,1,0,777738.204773676,777739.25183341,1,50,2,0,1,13,3,0,4261162,4272171,0,0,0,0,0,0,0,0,0,0,0,0,0,-3090121,1171041,0,0,0,0,3111130,0,0,0,0,0,1161041,0,0,0,0,0,0,0,0,0,0,0
20,39,949.887294787914,0,0,777741.32246401,777742.369576868,1,50,2,0,0,17,7,4070051,5212390,3221212,12211330,0,0,4070051,0,0,0,0,0,0,0,0,2181200,0,0,0,0,-3031190,0,0,0,0,1030051,0,0,0,0,2191161,0,0,4110200,0,0,0,4021060,0,4080070
20,40,523.867067415267,0,0,777744.322494806,777745.369586877,1,50,2,0,0,16,3,1081120,1121091,1200080,4110180,0,0,0,0,0,0,0,0,1081120,0,0,0,0,0,0,-1121091,0,0,0,0,0,0,0,0,0,0,1200080,0,0,0,4110180,0,0,0,0,0
20,41,1069.53169731423,1,0,777747.051959755,777748.099029113,1,50,2,0,1,8,7,10193400,6271492,2161110,2121151,0,0,0,3051200,0,0,0,-4081060,3061140,0,0,0,2041141,2120200,0,0,0,2110151,2161110,0,0,0,0,0,0,0,0,0,0,0,2121151,0,0,0,0,0
20,42,681.495714117773,0,0,777750.204949219,777751.252021272,1,50,2,1,0,28,3,0,5230081,0,5222282,0,0,0,0,0,0,0,0,0,0,0,0,0,4040020,0,0,0,1190061,0,0,0,0,0,0,0,0,0,-3081201,0,0,0,0,0,2141081,0,0
20,43,1274.52689304482,0,0,777752.957924594,777754.004996647,1,50,2,0,0,2,7,7331341,0,14312511,4200151,0,-2190121,0,0,0,0,2081160,0,3060060,0,0,0,0,0,0,0,0,0,4030141,0,0,0,2191070,0,4081180,4010120,0,0,4200151,0,0,0,0,0,0,0
20,44,1798.11508173589,1,0,777756.393295944,777757.440349519,1,50,2,1,1,33,7,0,12593380,6202170,6222312,0,0,0,0,0,0,0,0,0,0,1101120,3191190,4140010,0,0,0,0,4161060,0,0,0,4111090,2091080,0,0,0,0,0,0,3021181,0,0,-3201131,0,0,0
20,45,2413.3986296365,1,0,777760.322740798,777761.36981439,1,50,2,0,1,9,7,1090100,1101051,7283220,7371320,0,0,0,0,0,0,0,0,-1090100,0,0,0,0,0,1101051,0,0,0,3011050,0,0,2101090,0,0,0,2171080,0,0,0,0,0,0,3121060,3140060,0,1110200
20,46,813.045465154573,0,0,777764.805159948,777765.852232,1,50,2,1,0,21,3,0,4021080,4141171,3150131,0,0,0,0,0,0,0,0,0,0,0,0,0,0,0,4021080,0,0,0,0,-2041140,0,0,0,2100031,0,0,0,3150131,0,0,0,0,0,0,0
20,47,979.956711293198,1,0,777767.699338392,777768.746435467,1,50,2,0,1,34,7,4111120,11621243,1020080,6221251,4111120,0,0,0,0,0,0,0,0,3130081,0,0,0,1141011,0,4170031,0,3180120,0,0,1020080,0,0,0,0,0,0,0,0,0,0,0,2111151,-4110100,0,0
20,48,904.574520653114,0,0,777770.793543321,777771.840559939,1,50,2,0,0,18,3,2191332,4121191,2121060,0,0,0,1161181,0,0,0,0,1030151,0,0,0,0,0,0,0,0,0,-4121191,0,0,0,0,0,2121060,0,0,0,0,0,0,0,0,0,0,0,0
20,49,615.176694234833,1,0,777777.064151515,777778.111231652,1,50,3,0,1,16,7,5320220,5261031,7152162,5271092,0,0,0,0,3160030,0,0,0,2160190,0,2130010,0,0,0,0,-3131021,0,0,0,3111131,0,0,0,0,4041031,0,0,0,0,0,0,0,2111031,3160061,0,0
20,50,678.16694395151,1,0,777779.817146523,777780.864218191,1,50,3,0,1,29,3,0,7372250,0,5381090,0,0,0,0,0,0,0,0,0,0,4201140,0,0,3171110,0,0,0,0,0,0,0,0,0,0,0,0,0,0,-4201020,0,0,0,0,0,1180070,0
20,51,1133.55903583579,1,0,777782.593651187,777783.640734404,1,50,3,1,1,4,7,5351111,10442321,3111200,3220220,0,0,0,-1171050,0,0,4180061,0,0,0,0,4190100,2151030,0,0,0,4101191,0,0,0,0,0,0,3111200,0,0,0,1130070,0,0,0,0,0,2090150,0,0
20,52,832.810591906309,0,0,777785.911362617,777786.958452377,1,50,3,1,0,35,7,6061110,5243333,6181081,3111021,0,3040060,0,0,0,0,0,3021050,0,0,0,2051161,0,0,0,0,1161011,2031161,0,0,0,0,0,2040071,4141010,0,0,0,0,0,0,0,0,0,-3111021,0
20,53,996.344562503509,1,0,777788.840839807,777789.887878753,1,50,3,0,1,24,7,1021180,12603481,3150150,7330101,0,1021180,0,0,0,0,0,0,0,4121110,4201180,0,0,3140070,1141121,0,0,0,0,0,0,0,0,-3150150,0,0,0,0,0,0,4140061,0,0,3190040,0,0
20,54,937.893404974602,0,0,777791.923207141,777792.970278424,1,50,3,0,0,8,3,2121111,0,8160241,2200101,0,0,0,0,0,0,0,-2121111,0,0,0,0,0,0,0,0,0,0,0,0,4150200,0,4010041,0,0,0,0,2200101,0,0,0,0,0,0,0,0
20,55,685.833471012302,0,1,777795.029128402,777796.076258969,1,50,3,0,1,2,3,4181231,0,0,6091331,0,-3110130,0,0,0,0,0,0,1071101,0,0,0,0,0,0,0,0,0,0,0,0,0,0,0,0,0,0,0,0,3061141,0,3030190,0,0,0,0
20,56,1136.23991433997,1,0,777797.840939512,777798.888000786,1,50,3,0,1,34,7,7071141,0,7211141,9403523,4011080,0,3060061,0,0,0,0,0,0,0,0,0,0,0,0,0,0,0,3061071,0,0,0,0,0,0,0,4150070,0,4040181,2181131,1021151,0,0,-2161060,0,0
20,57,668.97596558556,0,0,777801.08804421,777802.135122422,1,50,3,1,0,22,7,0,5171231,2182122,5502473,0,0,0,0,0,0,0,0,0,2120071,0,0,0,0,0,0,3051160,0,0,1111101,0,-1071021,0,0,0,0,0,1170130,2081161,0,0,1131131,0,0,0,1120051
20,58,1408.46803074237,1,0,777803.817502614,777804.864569277,1,50,3,0,1,17,7,5452332,7183252,1070181,1011031,0,0,0,0,1191041,3141140,0,0,1120151,0,0,0,0,1031101,4121060,0,-2031091,0,0,0,0,1070181,0,0,0,0,0,0,0,1011031,0,0,0,0,0,0
20,59,1181.87259230763,1,0,777807.288143838,777808.335207421,1,50,3,0,1,32,7,7403410,3090200,4231311,4141171,3141150,0,0,3081180,0,0,0,1181080,0,3090200,0,0,0,0,0,0,0,0,0,0,2080180,0,0,0,2151131,0,0,0,0,0,0,-1110010,3031161,0,0,0
20,60,644.243668531999,0,0,777810.711718399,777811.758786987,1,50,3,1,0,27,3,1060010,0,5130171,4031170,0,0,0,0,1060010,0,0,0,0,0,0,0,0,0,0,0,0,0,0,2120051,0,0,0,0,0,0,-3010120,0,0,0,4031170,0,0,0,0,0
20,61,1164.7094268119,1,0,777813.594198604,777814.641187505,1,50,3,0,1,13,7,4161070,13443350,0,8301281,0,0,0,0,0,0,0,0,4161070,4131080,0,1120100,-3051040,0,4020100,1121030,0,0,0,0,0,0,0,0,0,0,0,0,0,0,0,4140080,0,0,0,4161201
20,62,908.868391648866,0,0,777817.005927101,777818.052994149,1,50,3,1,0,19,3,1031161,3101161,3171130,2060040,0,1031161,0,0,0,0,0,0,0,0,3101161,0,0,0,0,0,0,0,-3171130,0,0,0,0,0,0,0,0,2060040,0,0,0,0,0,0,0,0
20,63,1195.60073816683,0,0,777819.994220778,777821.041272428,1,50,3,1,0,10,3,0,3351240,6301162,0,0,0,0,0,0,0,0,0,0,-1180100,0,2171140,0,0,0,0,0,0,0,0,0,0,0,0,4100151,0,2201011,0,0,0,0,0,0,0,0,0
20,64,750.209200545214,1,0,777823.417786485,777824.464857383,1,50,3,1,1,33,7,0,12593380,6202170,6222312,0,0,0,0,0,0,0,0,0,0,1101120,3191190,4140010,0,0,0,0,4161060,0,0,0,4111090,2091080,0,0,0,0,0,0,3021181,0,0,-3201131,0,0,0
20,65,594.330977881327,0,0,777826.323715907,777827.370779106,1,50,3,1,0,28,3,0,5230081,0,5222282,0,0,0,0,0,0,0,0,0,0,0,0,0,4040020,0,0,0,1190061,0,0,0,0,0,0,0,0,0,-3081201,0,0,0,0,0,2141081,0,0
20,66,1907.74892095942,0,0,777829.006104953,777830.053189325,1,50,3,1,0,30,7,9300302,5192121,5350311,4161081,0,2070080,0,3140081,0,0,4090141,0,0,0,0,3091071,2101050,0,0,0,0,0,4150151,0,0,1200160,0,0,0,0,0,0,0,-4161081,0,0,0,0,0,0
20,67,886.443174444139,0,0,777833.147346904,777834.194416647,1,50,3,0,0,18,3,0,4120130,2212122,2180040,0,0,0,0,0,0,0,0,0,0,0,0,0,0,0,0,0,-4120130,0,0,0,0,1151071,1061051,0,0,0,0,0,2180040,0,0,0,0,0,0
20,68,719.320968957618,1,0,777836.288563832,777837.335638579,1,50,3,1,1,21,3,0,4021080,4141171,3150131,0,0,0,0,0,0,0,0,0,0,0,0,0,0,0,4021080,0,0,0,0,-2041140,0,0,0,2100031,0,0,0,3150131,0,0,0,0,0,0,0
20,69,1053.99076349568,0,0,777839.22980124,777840.276851735,1,50,3,1,0,5,3,1080130,3091120,6322212,0,0,0,0,0,-1080130,0,0,0,0,0,0,3091120,0,0,0,0,0,0,3171151,0,0,0,0,0,0,0,3151061,0,0,0,0,0,0,0,0,0
20,70,461.461575701833,0,0,777842.453360094,777843.500433687,1,50,3,0,0,9,3,3081040,0,1190180,4301262,0,0,0,0,0,0,0,0,-3081040,0,0,0,0,0,0,0,0,0,0,0,0,0,0,0,0,1190180,0,0,2171201,0,0,0,0,0,2130061,0
20,71,805.308874929324,1,0,777845.147523987,777846.19458834,1,50,3,0,1,3,3,3100080,0,1021120,2100181,0,0,-3100080,0,0,0,0,0,0,0,0,0,0,0,0,0,0,0,1021120,0,0,0,0,0,0,0,0,0,1010050,0,1090131,0,0,0,0,0
20,72,1585.01989126671,0,0,777848.088743686,777849.135808425,1,50,3,1,0,12,7,6131381,6092141,7333461,4090081,0,0,0,0,0,3091191,0,0,3040190,0,0,-3041130,0,0,0,0,0,3051011,2091100,0,0,0,0,0,0,2081190,3161171,0,0,0,0,0,4090081,0,0,0
20,73,855.235039140098,1,1,777854.912361979,777855.959442116,1,50,4,0,0,18,3,0,7200473,0,4101041,0,0,0,0,0,0,0,0,0,0,0,0,0,0,0,3160201,2010121,-2030151,0,0,0,0,0,0,0,0,0,0,0,0,0,0,4101041,0,0,0
20,74,1239.40792423673,1,0,777857.912395086,777858.959471373,1,50,4,0,1,16,7,2180070,4031111,9344562,4181201,0,0,0,0,2180070,0,0,0,0,0,0,0,0,0,0,-4031111,0,0,0,3040130,1051120,2121090,0,2121081,1011141,0,0,0,0,0,4181201,0,0,0,0,0
20,75,1205.37108485587,1,0,777861.277168559,777862.324243306,1,50,4,1,1,12,7,6131381,6092141,7333461,4090081,0,0,0,0,0,3091191,0,0,3040190,0,0,-3041130,0,0,0,0,0,3051011,2091100,0,0,0,0,0,0,2081190,3161171,0,0,0,0,0,4090081,0,0,0
20,76,802.369686658494,1,0,777864.630155251,777865.677235388,1,50,4,1,1,4,7,5351111,10442321,3111200,3220220,0,0,0,-1171050,0,0,4180061,0,0,0,0,4190100,2151030,0,0,0,4101191,0,0,0,0,0,0,3111200,0,0,0,1130070,0,0,0,0,0,2090150,0,0
20,77,1002.43967282586,1,0,777867.677274269,777868.724333618,1,50,4,1,1,27,3,1060010,0,5130171,4031170,0,0,0,0,1060010,0,0,0,0,0,0,0,0,0,0,0,0,0,0,2120051,0,0,0,0,0,0,-3010120,0,0,0,4031170,0,0,0,0,0
20,78,1373.58696875162,0,0,777870.794951514,777871.842027801,1,50,4,0,0,34,7,5220131,3090090,6231361,10351321,0,0,0,0,0,1080090,0,0,4140041,0,0,0,0,3090090,0,0,0,0,0,3100160,0,0,3131201,0,0,0,0,0,0,4110190,0,0,0,-3070080,3171051,0
20,79,1913.24156499468,1,0,777874.38323957,777875.430312393,1,50,4,1,1,22,7,0,5171231,2182122,5502473,0,0,0,0,0,0,0,0,0,2120071,0,0,0,0,0,0,3051160,0,0,1111101,0,-1071021,0,0,0,0,0,1170130,2081161,0,0,1131131,0,0,0,1120051
20,80,2096.46020526998,0,0,777878.383302319,777879.430373602,1,50,4,0,0,3,3,6140141,0,4071080,2150151,0,0,-4090051,0,0,2050090,0,0,0,0,0,0,0,0,0,0,0,0,0,0,0,4071080,0,0,0,0,0,0,2150151,0,0,0,0,0,0,0
20,81,554.502763552591,0,0,777882.642188022,777883.68926277,1,50,4,0,0,8,3,1061050,3061181,4041080,1071180,0,0,0,0,0,0,0,-1061050,0,0,0,0,0,3061181,0,0,0,0,0,0,0,0,0,0,0,4041080,0,0,0,0,0,0,0,0,1071180,0
20,82,1225.23745673243,1,0,777885.336344215,777886.383414728,1,50,4,1,1,19,3,1031161,3101161,3171130,2060040,0,1031161,0,0,0,0,0,0,0,0,3101161,0,0,0,0,0,0,0,-3171130,0,0,0,0,0,0,0,0,2060040,0,0,0,0,0,0,0,0
20,83,676.581668667495,0,0,777888.66588939,777889.712870206,1,50,4,0,0,32,3,0,3110301,0,3192301,0,0,0,0,0,0,0,0,0,0,0,1050100,0,2060201,0,0,0,0,0,0,0,0,0,0,0,0,0,0,0,0,2101131,-1091170,0,0,0,0
20,84,732.337704044767,0,0,777891.454076509,777892.501153952,1,50,4,0,0,24,3,5141191,4201130,1150181,0,3051101,0,0,0,0,2090090,0,0,0,0,0,0,0,0,0,0,0,4201130,0,0,0,0,0,-1150181,0,0,0,0,0,0,0,0,0,0,0,0
20,85,988.340423326008,1,0,777894.360011706,777895.4070776,1,50,4,1,1,5,3,1080130,3091120,6322212,0,0,0,0,0,-1080130,0,0,0,0,0,0,3091120,0,0,0,0,0,0,3171151,0,0,0,0,0,0,0,3151061,0,0,0,0,0,0,0,0,0
20,86,528.115897905082,1,0,777897.548288368,777898.595360036,1,50,4,1,1,21,3,0,4021080,4141171,3150131,0,0,0,0,0,0,0,0,0,0,0,0,0,0,0,4021080,0,0,0,0,-2041140,0,0,0,2100031,0,0,0,3150131,0,0,0,0,0,0,0
20,87,692.484082188457,0,0,777900.171857848,777901.218925281,1,50,4,0,0,9,7,7221161,2180061,10233242,2030201,0,1070040,0,0,3070050,0,0,0,-3081071,0,0,0,0,0,0,2180061,0,0,0,0,4081090,0,3061011,3091141,0,0,0,0,0,0,2030201,0,0,0,0,0
20,88,636.925147497095,0,0,777902.94838561,777903.995441494,1,50,4,0,0,17,3,1011131,5131181,2060150,0,0,1011131,0,0,0,0,0,0,0,0,0,0,4121060,0,0,0,-1010121,0,0,0,0,0,0,0,2060150,0,0,0,0,0,0,0,0,0,0,0
20,89,997.855155146681,0,0,777905.783704451,777906.830781123,1,50,4,0,0,13,7,3051111,6222250,3081080,11260273,0,3051111,0,0,0,0,0,0,0,0,0,1041060,-3070090,0,0,0,2111100,0,0,0,0,0,0,0,0,3081080,0,0,0,0,4120091,4040081,3100101,0,0,0
20,90,1353.46074716654,1,0,777908.924924843,777909.971986502,1,50,4,1,1,35,7,6061110,5243333,6181081,3111021,0,3040060,0,0,0,0,0,3021050,0,0,0,2051161,0,0,0,0,1161011,2031161,0,0,0,0,0,2040071,4141010,0,0,0,0,0,0,0,0,0,-3111021,0
20,91,724.900229601189,1,0,777912.501455762,777913.5485717,1,50,4,1,1,28,3,0,5230081,0,5222282,0,0,0,0,0,0,0,0,0,0,0,0,0,4040020,0,0,0,1190061,0,0,0,0,0,0,0,0,0,-3081201,0,0,0,0,0,2141081,0,0
20,92,687.697074143216,1,0,777915.336782303,777916.383867059,1,50,4,0,1,29,7,4070110,7233392,5202232,4210232,0,0,0,0,0,0,0,4070110,0,3151140,2011161,0,0,0,2071091,0,0,0,0,0,0,2041191,0,0,0,3161041,0,3030061,-1180171,0,0,0,0,0,0,0
20,93,917.7698782878,0,0,777918.24271134,777919.289779928,1,50,4,1,0,33,7,0,12593380,6202170,6222312,0,0,0,0,0,0,0,0,0,0,1101120,3191190,4140010,0,0,0,0,4161060,0,0,0,4111090,2091080,0,0,0,0,0,0,3021181,0,0,-3201131,0,0,0
20,94,1322.84083450213,1,0,777921.407467567,777922.454541544,1,50,4,1,1,30,7,9300302,5192121,5350311,4161081,0,2070080,0,3140081,0,0,4090141,0,0,0,0,3091071,2101050,0,0,0,0,0,4150151,0,0,1200160,0,0,0,0,0,0,0,-4161081,0,0,0,0,0,0
20,95,1062.55656282883,0,0,777924.901637695,777925.948702819,1,50,4,1,0,10,3,0,3351240,6301162,0,0,0,0,0,0,0,0,0,0,-1180100,0,2171140,0,0,0,0,0,0,0,0,0,0,0,0,4100151,0,2201011,0,0,0,0,0,0,0,0,0
20,96,1185.53820485249,0,0,777928.054621,777929.101696518,1,50,4,0,0,2,7,5181281,2081131,4021081,4482331,0,-1090081,4091200,0,0,0,0,0,0,0,0,0,0,0,0,0,2081131,0,0,0,0,4021081,0,0,0,0,0,0,1090111,0,1140110,1061050,1191060,0,0,0
20,97,683.289639069699,0,0,777934.337064095,777935.384133068,1,50,5,1,0,10,3,0,3351240,6301162,0,0,0,0,0,0,0,0,0,0,-1180100,0,2171140,0,0,0,0,0,0,0,0,0,0,0,0,4100151,0,2201011,0,0,0,0,0,0,0,0,0
20,98,1700.79850102775,0,0,777937.219468078,777938.266527812,1,50,5,0,0,32,7,5102262,1171051,6211061,8052192,0,0,0,0,0,1051071,0,0,4051191,0,1171051,0,0,0,0,0,0,0,0,0,0,0,4171011,0,2040050,0,0,2011171,0,0,0,-2030011,4011010,0,0,0
20,99,1226.14057862666,1,0,777940.99598891,777942.043053264,1,50,5,1,1,35,7,6061110,5243333,6181081,3111021,0,3040060,0,0,0,0,0,3021050,0,0,0,2051161,0,0,0,0,1161011,2031161,0,0,0,0,0,2040071,4141010,0,0,0,0,0,0,0,0,0,-3111021,0
20,100,576.814801781438,0,0,777944.384273964,777945.431374889,1,50,5,0,0,9,3,3271250,0,3021191,2131150,0,0,0,0,0,0,0,2091170,-1180080,0,0,0,0,0,0,0,0,0,0,0,0,0,0,0,3021191,0,0,0,0,0,0,0,0,0,2131150,0
20,101,807.625193963759,0,0,777947.125572658,777948.172577342,1,50,5,1,0,21,3,0,4021080,4141171,3150131,0,0,0,0,0,0,0,0,0,0,0,0,0,0,0,4021080,0,0,0,0,-2041140,0,0,0,2100031,0,0,0,3150131,0,0,0,0,0,0,0
20,102,812.478415551595,1,0,777950.172597745,777951.219659404,1,50,5,1,1,5,3,1080130,3091120,6322212,0,0,0,0,0,-1080130,0,0,0,0,0,0,3091120,0,0,0,0,0,0,3171151,0,0,0,0,0,0,0,3151061,0,0,0,0,0,0,0,0,0
20,103,922.593457740732,1,0,777953.184413013,777954.231473132,1,50,5,0,1,34,7,0,3020121,3191101,14653382,0,0,0,0,0,0,0,0,0,0,3020121,0,0,0,0,0,0,0,0,0,0,0,3191101,0,0,0,0,2091090,1071010,0,4170031,0,0,-4041160,1080081,2200010
20,104,1078.27226968948,0,0,777956.219739861,777957.266813839,1,50,5,0,0,18,7,5182190,5231182,7162221,3322110,0,4041020,0,1141170,0,0,0,0,0,0,0,0,0,0,4101091,0,0,-1130091,0,0,0,0,3081101,4081120,0,0,0,0,0,0,0,0,0,0,1191040,2131070
20,105,724.451363319531,1,0,777959.419787905,777960.466863422,1,50,5,1,1,22,7,0,5171231,2182122,5502473,0,0,0,0,0,0,0,0,0,2120071,0,0,0,0,0,0,3051160,0,0,1111101,0,-1071021,0,0,0,0,0,1170130,2081161,0,0,1131131,0,0,0,1120051
20,106,876.196629134938,1,0,777962.372772826,777963.419846034,1,50,5,0,1,2,3,4321161,1071150,1180200,0,0,-2151020,0,2170141,0,0,0,0,0,0,0,0,0,1071150,0,0,0,0,0,0,0,0,1180200,0,0,0,0,0,0,0,0,0,0,0,0,0
20,107,1283.99696922861,1,0,777965.314049885,777966.36105457,1,50,5,1,1,30,7,9300302,5192121,5350311,4161081,0,2070080,0,3140081,0,0,4090141,0,0,0,0,3091071,2101050,0,0,0,0,0,4150151,0,0,1200160,0,0,0,0,0,0,0,-4161081,0,0,0,0,0,0
20,108,914.590858388692,1,0,777968.749354637,777969.796411676,1,50,5,0,1,17,3,0,2170110,3041160,8251242,0,0,0,0,0,0,0,0,0,0,0,0,0,0,0,0,-2170110,0,0,0,0,0,0,0,3041160,0,0,0,0,0,4160101,0,0,4091141,0,0
20,109,705.477719544433,1,0,777971.784672247,777972.831747379,1,50,5,1,1,28,3,0,5230081,0,5222282,0,0,0,0,0,0,0,0,0,0,0,0,0,4040020,0,0,0,1190061,0,0,0,0,0,0,0,0,0,-3081201,0,0,0,0,0,2141081,0,0
20,110,796.601024456322,0,0,777974.702359192,777975.749445488,1,50,5,0,0,3,3,7372252,0,0,3100111,0,3111080,-2171061,0,2090111,0,0,0,0,0,0,0,0,0,0,0,0,0,0,0,0,0,0,0,0,0,0,3100111,0,0,0,0,0,0,0,0
20,111,541.178058600053,0,0,777977.678920369,777978.72595354,1,50,5,0,0,16,3,0,3341250,4151020,1160071,0,0,0,0,0,0,0,0,0,0,0,1180120,0,0,0,-2161130,0,0,0,0,0,4151020,0,0,0,0,0,0,0,0,0,0,1160071,0,0,0
20,112,580.108540481888,0,0,777980.278922062,777981.325974867,1,50,5,0,0,24,3,1150090,1071140,1040041,4170031,0,0,0,1150090,0,0,0,0,0,0,0,0,1071140,0,0,0,0,0,0,0,0,0,0,-1040041,0,0,0,0,0,0,0,4170031,0,0,0,0
20,113,709.474014583975,1,0,777982.996611395,777984.043677673,1,50,5,0,1,29,7,0,4332280,6190281,12382582,0,0,0,0,0,0,0,0,0,0,0,1161160,0,3171120,0,0,0,0,0,2130180,0,0,4060101,0,0,0,0,0,-4070190,1161070,4111181,0,0,0,0,3040141
20,114,525.341858505271,1,0,777985.855463375,777986.902542742,1,50,5,1,1,27,3,1060010,0,5130171,4031170,0,0,0,0,1060010,0,0,0,0,0,0,0,0,0,0,0,0,0,0,2120051,0,0,0,0,0,0,-3010120,0,0,0,4031170,0,0,0,0,0
20,115,1071.9742840156,0,0,777988.479097913,777989.526109912,1,50,5,1,0,19,3,1031161,3101161,3171130,2060040,0,1031161,0,0,0,0,0,0,0,0,3101161,0,0,0,0,0,0,0,-3171130,0,0,0,0,0,0,0,0,2060040,0,0,0,0,0,0,0,0
20,116,1015.72549669072,0,0,777991.72621262,777992.773220769,1,50,5,0,0,8,7,9372532,0,3080050,11463422,0,0,4151201,0,0,0,0,-1181151,4040180,0,0,0,0,0,0,0,0,0,3080050,0,0,0,0,0,0,0,0,4101040,0,0,2190110,0,0,2041091,0,3131181
20,117,1143.65082629956,1,0,777994.879142415,777995.926195604,1,50,5,1,1,33,7,0,12593380,6202170,6222312,0,0,0,0,0,0,0,0,0,0,1101120,3191190,4140010,0,0,0,0,4161060,0,0,0,4111090,2091080,0,0,0,0,0,0,3021181,0,0,-3201131,0,0,0
20,118,1578.15293129534,0,0,777998.255659937,777999.302719286,1,50,5,1,0,4,7,5351111,10442321,3111200,3220220,0,0,0,-1171050,0,0,4180061,0,0,0,0,4190100,2151030,0,0,0,4101191,0,0,0,0,0,0,3111200,0,0,0,1130070,0,0,0,0,0,2090150,0,0
20,119,967.550526722334,0,0,778002.079238194,778003.126311786,1,50,5,0,0,13,7,3121292,10381351,5102142,3101190,0,1060141,0,0,2061151,0,0,0,0,0,4090050,0,-3181191,0,0,0,3110110,0,1081101,0,0,4021041,0,0,0,0,0,0,3101190,0,0,0,0,0,0,0
20,120,1158.53077964857,1,0,778005.18516215,778006.232244596,1,50,5,1,1,12,7,6131381,6092141,7333461,4090081,0,0,0,0,0,3091191,0,0,3040190,0,0,-3041130,0,0,0,0,0,3051011,2091100,0,0,0,0,0,0,2081190,3161171,0,0,0,0,0,4090081,0,0,0
20,121,683.509452734143,1,0,778011.73820574,778012.785276638,1,50,6,0,1,24,3,4201110,4011070,2190081,0,0,0,0,3040060,0,0,0,1161050,0,0,0,0,0,4011070,0,0,0,0,0,0,0,0,0,-2190081,0,0,0,0,0,0,0,0,0,0,0,0
20,122,722.755603841506,0,0,778014.550071899,778015.597081588,1,50,6,1,0,21,3,0,4021080,4141171,3150131,0,0,0,0,0,0,0,0,0,0,0,0,0,0,0,4021080,0,0,0,0,-2041140,0,0,0,2100031,0,0,0,3150131,0,0,0,0,0,0,0
20,123,978.33832912147,1,0,778017.385354554,778018.432418522,1,50,6,1,1,5,3,1080130,3091120,6322212,0,0,0,0,0,-1080130,0,0,0,0,0,0,3091120,0,0,0,0,0,0,3171151,0,0,0,0,0,0,0,3151061,0,0,0,0,0,0,0,0,0
20,124,485.388916335069,1,0,778020.585395668,778021.632466951,1,50,6,1,1,10,3,0,3351240,6301162,0,0,0,0,0,0,0,0,0,0,-1180100,0,2171140,0,0,0,0,0,0,0,0,0,0,0,0,4100151,0,2201011,0,0,0,0,0,0,0,0,0
20,125,566.804623347707,1,0,778023.209020967,778024.256030271,1,50,6,0,1,17,3,4030051,4011130,1110110,4101130,0,0,0,4030051,0,0,0,0,0,0,0,0,0,0,0,0,-4011130,0,0,0,0,0,0,1110110,0,0,0,0,0,0,0,0,0,0,4101130,0
20,126,1351.04703274556,0,0,778025.97370228,778027.020773178,1,50,6,0,0,2,7,7191190,5242161,5312201,5191120,3131050,-4060140,0,0,0,0,0,0,0,0,0,0,0,4091030,0,0,1151131,0,4111060,0,0,0,0,1201141,0,0,0,4161070,0,0,0,0,1030050,0,0,0
20,127,1200.24184521753,1,0,778029.385527017,778030.432591756,1,50,6,1,1,12,7,6131381,6092141,7333461,4090081,0,0,0,0,0,3091191,0,0,3040190,0,0,-3041130,0,0,0,0,0,3051011,2091100,0,0,0,0,0,0,2081190,3161171,0,0,0,0,0,4090081,0,0,0
20,128,840.769690345041,0,0,778032.773829779,778033.820892593,1,50,6,0,0,18,3,0,5302443,0,4151030,0,0,0,0,0,0,0,0,0,0,0,0,1171191,0,2111051,0,0,-2020201,0,0,0,0,0,0,0,0,0,0,0,0,0,0,0,0,0,4151030
20,129,974.930256721564,0,0,778035.73856337,778036.785630803,1,50,6,0,0,32,3,0,2031091,0,6192351,0,0,0,0,0,0,0,0,0,0,0,0,0,0,0,0,2031091,0,0,0,0,0,0,0,0,0,0,0,0,0,0,-2021031,1051170,0,0,3120150
20,130,1497.23767535761,1,0,778038.844495025,778039.891551294,1,50,6,0,1,8,7,5341423,4211182,1120031,5311241,0,0,2160061,0,0,2170171,0,-1011191,0,0,0,0,0,0,0,1011031,3200151,0,0,0,0,0,0,1120031,0,0,0,0,0,4150200,0,0,0,0,1161041,0
20,131,596.286972169764,0,0,778042.456306597,778043.503382884,1,50,6,1,0,28,3,0,5230081,0,5222282,0,0,0,0,0,0,0,0,0,0,0,0,0,4040020,0,0,0,1190061,0,0,0,0,0,0,0,0,0,-3081201,0,0,0,0,0,2141081,0,0
20,132,954.428696888499,1,0,778045.268112702,778046.315186294,1,50,6,0,1,13,3,2100120,3071050,1141141,4030190,0,0,0,0,2100120,0,0,0,0,0,0,0,-3071050,0,0,0,0,0,0,0,0,0,0,0,0,1141141,0,0,0,0,0,0,4030190,0,0,0
20,133,872.658439329825,0,0,778048.33875254,778049.385866939,1,50,6,0,0,9,7,8490412,2011060,3151120,5290251,0,1030201,1140021,0,2160050,0,0,0,-4160140,0,0,0,0,0,0,0,0,2011060,0,0,0,0,0,3151120,0,0,0,0,2190190,0,0,0,3100061,0,0,0
20,134,652.44221361354,0,0,778051.374093248,778052.421159526,1,50,6,1,0,22,7,0,5171231,2182122,5502473,0,0,0,0,0,0,0,0,0,2120071,0,0,0,0,0,0,3051160,0,0,1111101,0,-1071021,0,0,0,0,0,1170130,2081161,0,0,1131131,0,0,0,1120051
20,135,1005.21948665846,1,0,778054.162358899,778055.209428257,1,50,6,1,1,35,7,6061110,5243333,6181081,3111021,0,3040060,0,0,0,0,0,3021050,0,0,0,2051161,0,0,0,0,1161011,2031161,0,0,0,0,0,2040071,4141010,0,0,0,0,0,0,0,0,0,-3111021,0
20,136,622.893651365303,1,0,778057.244769349,778058.291821769,1,50,6,1,1,19,3,1031161,3101161,3171130,2060040,0,1031161,0,0,0,0,0,0,0,0,3101161,0,0,0,0,0,0,0,-3171130,0,0,0,0,0,0,0,0,2060040,0,0,0,0,0,0,0,0
20,137,716.726322076283,0,0,778060.091866502,778061.13892816,1,50,6,1,0,27,3,1060010,0,5130171,4031170,0,0,0,0,1060010,0,0,0,0,0,0,0,0,0,0,0,0,0,0,2120051,0,0,0,0,0,0,-3010120,0,0,0,4031170,0,0,0,0,0
20,138,1078.61681107897,0,0,778063.044846804,778064.091920781,1,50,6,1,0,33,7,0,12593380,6202170,6222312,0,0,0,0,0,0,0,0,0,0,1101120,3191190,4140010,0,0,0,0,4161060,0,0,0,4111090,2091080,0,0,0,0,0,0,3021181,0,0,-3201131,0,0,0
20,139,559.43605734501,0,0,778066.291949192,778067.339024709,1,50,6,0,0,29,3,6270352,2071140,0,3071160,0,0,3160181,0,3110171,0,0,0,0,0,0,0,0,0,0,0,2071140,0,0,0,0,0,0,0,0,0,0,0,-3071160,0,0,0,0,0,0,0
20,140,2037.31804015115,1,0,778068.939038337,778069.986122708,1,50,6,0,1,3,7,4302211,9292440,5040220,3080040,3121031,0,-1181180,0,0,0,0,0,0,1151130,0,4050160,0,0,0,0,0,4091150,0,0,0,0,0,0,0,4020110,1020110,0,0,0,0,0,3080040,0,0,0
20,141,854.263778892346,1,0,778073.139111787,778074.186183455,1,50,6,1,1,4,7,5351111,10442321,3111200,3220220,0,0,0,-1171050,0,0,4180061,0,0,0,0,4190100,2151030,0,0,0,4101191,0,0,0,0,0,0,3111200,0,0,0,1130070,0,0,0,0,0,2090150,0,0
20,142,806.455677957274,0,0,778076.056802967,778077.103868476,1,50,6,0,0,34,7,2040121,4280211,5341152,11132302,0,2040121,0,0,0,0,0,0,0,0,0,0,0,0,0,3100191,1180020,0,2161091,0,0,3180061,0,0,0,0,0,0,0,0,4081081,0,4010060,-3041161,0,0
20,143,1996.66523630731,1,0,778079.009787504,778080.056854552,1,50,6,0,1,16,7,3200131,7462372,5522203,4051021,0,0,0,0,0,0,0,0,3200131,0,0,0,2150120,0,0,-3191201,0,2121051,0,0,2151031,2170041,0,0,0,1201131,0,0,0,0,0,0,0,4051021,0,0
20,144,1618.58630657662,0,0,778083.174567983,778084.221668908,1,50,6,1,0,30,7,9300302,5192121,5350311,4161081,0,2070080,0,3140081,0,0,4090141,0,0,0,0,3091071,2101050,0,0,0,0,0,4150151,0,0,1200160,0,0,0,0,0,0,0,-4161081,0,0,0,0,0,0
20,145,1304.1570673231,0,0,778090.057003918,778091.104077895,1,50,7,0,0,3,7,6291261,12421401,5282290,1121101,0,0,-3120081,0,3171180,0,0,0,0,0,4071110,4190130,0,0,0,0,4160161,0,0,0,0,0,0,0,0,2141180,3141110,0,0,0,0,0,1121101,0,0,0
20,146,745.15772331506,0,0,778093.457059968,778094.504128556,1,50,7,0,0,13,3,3111151,4120011,6162210,0,0,0,0,0,0,0,0,0,3111151,0,0,0,-4120011,0,0,0,0,0,0,0,0,4011120,0,0,2151090,0,0,0,0,0,0,0,0,0,0,0
20,147,936.609170283191,1,0,778096.433581879,778097.480638918,1,50,7,1,1,35,7,6061110,5243333,6181081,3111021,0,3040060,0,0,0,0,0,3021050,0,0,0,2051161,0,0,0,0,1161011,2031161,0,0,0,0,0,2040071,4141010,0,0,0,0,0,0,0,0,0,-3111021,0
20,148,760.563535382971,0,0,778099.433615756,778100.480684728,1,50,7,1,0,19,3,1031161,3101161,3171130,2060040,0,1031161,0,0,0,0,0,0,0,0,3101161,0,0,0,0,0,0,0,-3171130,0,0,0,0,0,0,0,0,2060040,0,0,0,0,0,0,0,0
20,149,789.694028440863,1,0,778102.445425633,778103.49250423,1,50,7,0,1,9,3,1190121,3031040,1061011,1091151,0,0,0,0,0,0,0,0,-1190121,0,3031040,0,0,0,0,0,0,0,0,0,0,0,0,0,0,0,1061011,0,0,0,0,1091151,0,0,0,0
20,150,753.848250489682,0,0,778105.457270158,778106.504299095,1,50,7,1,0,27,3,1060010,0,5130171,4031170,0,0,0,0,1060010,0,0,0,0,0,0,0,0,0,0,0,0,0,0,2120051,0,0,0,0,0,0,-3010120,0,0,0,4031170,0,0,0,0,0
20,151,953.17756885197,0,0,778108.269040462,778109.316107895,1,50,7,0,0,2,3,6071092,1040181,0,2031161,0,-2040041,0,0,0,0,0,0,4031051,0,0,0,0,0,0,0,1040181,0,0,0,0,0,0,0,0,0,0,2031161,0,0,0,0,0,0,0,0
20,152,2053.51956945378,1,0,778111.33967568,778112.386744268,1,50,7,1,1,30,7,9300302,5192121,5350311,4161081,0,2070080,0,3140081,0,0,4090141,0,0,0,0,3091071,2101050,0,0,0,0,0,4150151,0,0,1200160,0,0,0,0,0,0,0,-4161081,0,0,0,0,0,0
20,153,695.238873362541,1,0,778115.52797313,778116.575041333,1,50,7,1,1,10,3,0,3351240,6301162,0,0,0,0,0,0,0,0,0,0,-1180100,0,2171140,0,0,0,0,0,0,0,0,0,0,0,0,4100151,0,2201011,0,0,0,0,0,0,0,0,0
20,154,519.032709067687,1,0,778118.46919437,778119.516260648,1,50,7,1,1,22,7,0,5171231,2182122,5502473,0,0,0,0,0,0,0,0,0,2120071,0,0,0,0,0,0,3051160,0,0,1111101,0,-1071021,0,0,0,0,0,1170130,2081161,0,0,1131131,0,0,0,1120051
20,155,447.722266078927,1,0,778121.069236869,778122.116303148,1,50,7,0,1,16,3,2131111,2160051,3061021,4091031,0,0,0,0,0,0,0,0,2131111,0,0,0,0,0,0,-2160051,0,0,0,3061021,0,0,0,0,0,0,0,0,0,0,4091031,0,0,0,0,0
20,156,1037.51860558987,1,0,778123.633974079,778124.681048441,1,50,7,0,1,24,7,3040130,3031040,6201392,6101322,3040130,0,0,0,0,0,0,0,0,0,0,0,0,0,3031040,0,0,0,0,0,1091201,0,3070020,-2040171,0,0,0,2070191,0,0,0,2020041,0,0,0,2011090
20,157,842.329943086952,0,0,778126.904607681,778127.951684738,1,50,7,1,0,5,3,1080130,3091120,6322212,0,0,0,0,0,-1080130,0,0,0,0,0,0,3091120,0,0,0,0,0,0,3171151,0,0,0,0,0,0,0,3151061,0,0,0,0,0,0,0,0,0
20,158,772.958940942772,0,0,778129.881127666,778130.928266702,1,50,7,1,0,33,7,0,12593380,6202170,6222312,0,0,0,0,0,0,0,0,0,0,1101120,3191190,4140010,0,0,0,0,4161060,0,0,0,4111090,2091080,0,0,0,0,0,0,3021181,0,0,-3201131,0,0,0
20,159,868.152453913353,0,0,778132.78704785,778133.834113358,1,50,7,0,0,8,7,8251282,7102282,6091262,2131050,0,0,2100080,0,0,4130071,0,-2021131,0,3041121,0,0,0,4061161,0,0,0,0,0,3050131,0,0,0,0,0,0,3041131,0,0,0,0,0,0,2131050,0,0
20,160,977.461384725757,1,0,778135.869441746,778136.916522268,1,50,7,1,1,12,7,6131381,6092141,7333461,4090081,0,0,0,0,0,3091191,0,0,3040190,0,0,-3041130,0,0,0,0,0,3051011,2091100,0,0,0,0,0,0,2081190,3161171,0,0,0,0,0,4090081,0,0,0
20,161,1524.28898622748,1,0,778138.963602405,778140.010686392,1,50,7,1,1,4,7,5351111,10442321,3111200,3220220,0,0,0,-1171050,0,0,4180061,0,0,0,0,4190100,2151030,0,0,0,4101191,0,0,0,0,0,0,3111200,0,0,0,1130070,0,0,0,0,0,2090150,0,0
20,162,966.041088919155,0,0,778142.704841045,778143.751907708,1,50,7,0,0,29,7,3281242,0,11242422,5321390,2201081,0,0,0,0,0,1080161,0,0,0,0,0,0,0,0,0,0,0,0,0,0,0,3081131,0,4040141,0,4121150,0,-1050200,0,1100150,3171040,0,0,0,0
20,163,801.232892670669,1,0,778145.763707192,778146.810781939,1,50,7,1,1,21,3,0,4021080,4141171,3150131,0,0,0,0,0,0,0,0,0,0,0,0,0,0,0,4021080,0,0,0,0,-2041140,0,0,0,2100031,0,0,0,3150131,0,0,0,0,0,0,0
20,164,730.70661816746,0,0,778148.787281522,778149.834342796,1,50,7,1,0,28,3,0,5230081,0,5222282,0,0,0,0,0,0,0,0,0,0,0,0,0,4040020,0,0,0,1190061,0,0,0,0,0,0,0,0,0,-3081201,0,0,0,0,0,2141081,0,0
20,165,810.430415323935,1,0,778151.775563265,778152.822641092,1,50,7,0,1,17,3,0,9371290,0,2070120,0,0,0,0,0,0,0,0,0,4121070,0,0,0,0,2090200,0,-3160020,0,0,0,0,0,0,0,0,0,0,0,0,0,2070120,0,0,0,0,0
20,166,736.713572172448,1,0,778154.752100574,778155.799152994,1,50,7,0,1,18,3,0,6241452,0,1011071,0,0,0,0,0,0,0,0,0,1050181,0,0,4050100,0,0,0,0,-1141171,0,0,0,0,0,0,0,0,0,0,0,0,0,0,0,1011071,0,0
20,167,1529.25230702385,0,0,778157.669831405,778158.716849178,1,50,7,0,0,32,7,10575513,1100071,3071080,1161180,1101080,0,3121201,0,1111101,2141091,0,3101040,0,0,1100071,0,0,0,0,0,0,0,0,0,0,0,0,0,0,0,3071080,0,0,0,0,-1161180,0,0,0,0
20,168,625.097561394796,0,0,778161.422765204,778162.469831097,1,50,7,0,0,34,7,6242443,5091121,3080130,6221342,1081191,0,0,0,0,2101111,3060141,0,0,2060041,3031080,0,0,0,0,0,0,0,0,0,0,0,0,0,0,0,3080130,0,0,2160151,0,0,0,-4061191,0,0
20,169,565.906121046282,0,0,778167.269902392,778168.317023335,1,50,8,1,0,28,3,0,5230081,0,5222282,0,0,0,0,0,0,0,0,0,0,0,0,0,4040020,0,0,0,1190061,0,0,0,0,0,0,0,0,0,-3081201,0,0,0,0,0,2141081,0,0
20,170,1262.17999262735,0,0,778169.94053738,778170.987609433,1,50,8,0,0,18,7,6240202,8102111,1161061,6161181,0,0,3170171,0,0,0,0,0,3070031,0,4021030,0,0,3010071,0,0,0,-1071010,0,0,0,0,0,1161061,0,0,0,0,4031101,2130080,0,0,0,0,0,0
20,171,831.376606831327,1,0,778173.293529462,778174.34059882,1,50,8,1,1,5,3,1080130,3091120,6322212,0,0,0,0,0,-1080130,0,0,0,0,0,0,3091120,0,0,0,0,0,0,3171151,0,0,0,0,0,0,0,3151061,0,0,0,0,0,0,0,0,0
20,172,513.174350606278,0,0,778176.187689043,778177.234753782,1,50,8,0,0,16,3,3181080,8371340,0,0,0,0,3181080,0,0,0,0,0,0,0,3160040,0,0,0,0,-3011200,0,2200100,0,0,0,0,0,0,0,0,0,0,0,0,0,0,0,0,0,0
20,173,679.958944092505,1,0,778178.775962856,778179.823039913,1,50,8,0,1,8,7,5180241,7282241,6110131,5241151,0,1110050,0,0,0,0,0,-4070191,0,0,0,0,0,0,0,3201071,4081170,0,0,3010081,0,3100050,0,0,0,0,0,0,4051050,0,1190101,0,0,0,0,0
20,174,382.324461243115,0,0,778181.55247599,778182.599536108,1,50,8,0,0,2,3,2181010,3151091,2100041,4030050,0,-2181010,0,0,0,0,0,0,0,0,3151091,0,0,0,0,0,0,0,0,0,0,0,0,2100041,0,0,0,0,0,0,0,0,0,0,4030050,0
20,175,1665.40389903821,1,0,778184.164273318,778185.211345755,1,50,8,0,1,32,7,4221342,6350051,4351281,4292351,0,2021181,2200161,0,0,0,0,0,0,0,0,3170031,0,0,0,0,0,3180020,0,0,0,2200130,0,0,2151151,0,0,0,0,0,0,-3111200,0,1181151,0,0
20,176,1294.09684380516,0,0,778188.046714642,778189.093763212,1,50,8,0,0,13,3,7261212,5231101,0,0,0,0,0,0,3190121,0,0,4071091,0,0,2141041,0,-3090060,0,0,0,0,0,0,0,0,0,0,0,0,0,0,0,0,0,0,0,0,0,0,0
20,177,1135.75332181063,0,0,778191.435017789,778192.482043261,1,50,8,1,0,35,7,6061110,5243333,6181081,3111021,0,3040060,0,0,0,0,0,3021050,0,0,0,2051161,0,0,0,0,1161011,2031161,0,0,0,0,0,2040071,4141010,0,0,0,0,0,0,0,0,0,-3111021,0
20,178,956.322327023372,0,0,778194.717443175,778195.76444555,1,50,8,0,0,34,7,4041090,7121282,5270251,6090151,0,0,0,0,0,0,0,0,4041090,0,2071191,0,4030071,0,1020020,0,0,0,4070111,0,0,0,0,0,0,0,1200140,0,0,0,0,0,3070010,-3020141,0,0
20,179,753.275811322965,1,0,778197.823303998,778198.87037605,1,50,8,1,1,10,3,0,3351240,6301162,0,0,0,0,0,0,0,0,0,0,-1180100,0,2171140,0,0,0,0,0,0,0,0,0,0,0,0,4100151,0,2201011,0,0,0,0,0,0,0,0,0
20,180,675.365187344141,1,0,778200.729227261,778201.776297773,1,50,8,1,1,22,7,0,5171231,2182122,5502473,0,0,0,0,0,0,0,0,0,2120071,0,0,0,0,0,0,3051160,0,0,1111101,0,-1071021,0,0,0,0,0,1170130,2081161,0,0,1131131,0,0,0,1120051
20,181,547.410985571332,1,0,778203.635155528,778204.682227966,1,50,8,1,1,21,3,0,4021080,4141171,3150131,0,0,0,0,0,0,0,0,0,0,0,0,0,0,0,4021080,0,0,0,0,-2041140,0,0,0,2100031,0,0,0,3150131,0,0,0,0,0,0,0
20,182,668.662221170962,1,0,778206.294016825,778207.341085798,1,50,8,0,1,24,3,7221122,0,4271130,0,3031061,0,0,0,0,0,0,0,4190061,0,0,0,0,0,0,0,0,0,0,3140040,0,0,0,-1131090,0,0,0,0,0,0,0,0,0,0,0,0
20,183,973.578653531149,0,0,778209.152889208,778210.199957411,1,50,8,1,0,33,7,0,12593380,6202170,6222312,0,0,0,0,0,0,0,0,0,0,1101120,3191190,4140010,0,0,0,0,4161060,0,0,0,4111090,2091080,0,0,0,0,0,0,3021181,0,0,-3201131,0,0,0
20,184,934.419503901154,1,0,778212.247047942,778213.294114605,1,50,8,1,1,19,3,1031161,3101161,3171130,2060040,0,1031161,0,0,0,0,0,0,0,0,3101161,0,0,0,0,0,0,0,-3171130,0,0,0,0,0,0,0,0,2060040,0,0,0,0,0,0,0,0
20,185,1030.10923345573,0,0,778215.329443764,778216.376506577,1,50,8,0,0,9,3,2080161,3070180,4160190,3171040,0,0,0,0,0,0,0,0,-2080161,0,3070180,0,0,0,0,0,0,0,0,4160190,0,0,0,0,0,0,0,0,0,0,0,0,0,3171040,0,0
20,186,1118.76146448776,0,0,778218.49420076,778219.541268193,1,50,8,1,0,30,7,9300302,5192121,5350311,4161081,0,2070080,0,3140081,0,0,4090141,0,0,0,0,3091071,2101050,0,0,0,0,0,4150151,0,0,1200160,0,0,0,0,0,0,0,-4161081,0,0,0,0,0,0
20,187,605.710082803853,0,0,778221.811896406,778222.858969228,1,50,8,1,0,27,3,1060010,0,5130171,4031170,0,0,0,0,1060010,0,0,0,0,0,0,0,0,0,0,0,0,0,0,2120051,0,0,0,0,0,0,-3010120,0,0,0,4031170,0,0,0,0,0
20,188,1150.19595774356,1,0,778224.588405689,778225.635471968,1,50,8,1,1,12,7,6131381,6092141,7333461,4090081,0,0,0,0,0,3091191,0,0,3040190,0,0,-3041130,0,0,0,0,0,3051011,2091100,0,0,0,0,0,0,2081190,3161171,0,0,0,0,0,4090081,0,0,0
20,189,871.748773031868,1,0,778227.917865787,778228.964938995,1,50,8,0,1,29,7,8201351,1121021,3180130,7320203,0,0,4071170,0,0,4130181,0,0,0,0,0,1121021,0,0,0,0,0,0,1130030,0,2050100,0,0,0,0,0,0,0,-3030041,0,0,2120071,0,0,0,2170091
20,190,705.344137502834,1,0,778230.859085102,778231.906147145,1,50,8,0,1,3,3,5320211,2070041,3180201,0,0,0,-1120191,0,0,0,0,4200020,0,0,0,0,0,0,2070041,0,0,0,0,0,0,0,3180201,0,0,0,0,0,0,0,0,0,0,0,0,0
20,191,463.144631474279,1,0,778233.800306341,778234.847374929,1,50,8,1,1,4,7,5351111,10442321,3111200,3220220,0,0,0,-1171050,0,0,4180061,0,0,0,0,4190100,2151030,0,0,0,4101191,0,0,0,0,0,0,3111200,0,0,0,1130070,0,0,0,0,0,2090150,0,0
20,192,495.578872156329,1,1,778236.482728494,778237.529772445,1,50,8,0,0,17,7,4190050,6261302,9352373,2041051,0,0,0,0,0,4190050,0,0,0,0,0,0,0,0,4161010,0,-1070131,1030161,3021121,3130061,0,0,0,0,0,3201191,0,0,0,0,2041051,0,0,0,0,0
20,193,951.590753742494,0,0,778242.929849283,778243.976918641,1,50,9,0,0,29,7,1101180,8443402,4100190,8261233,0,1101180,0,0,0,0,0,0,0,4191190,2081181,0,0,0,0,0,2171031,0,0,0,0,0,0,0,0,0,4100190,0,-2011011,0,0,4080041,0,2170181,0,0
20,194,904.19725747779,1,0,778246.118134414,778247.165206082,1,50,9,0,1,34,3,0,4021081,4101151,3201120,0,0,0,0,0,0,0,0,0,0,0,0,0,0,0,4021081,0,0,0,0,0,0,0,0,0,0,4101151,0,0,0,0,0,0,-1111060,0,2090060
20,195,598.387712147087,1,0,778249.235824747,778250.282897185,1,50,9,1,1,22,7,0,5171231,2182122,5502473,0,0,0,0,0,0,0,0,0,2120071,0,0,0,0,0,0,3051160,0,0,1111101,0,-1071021,0,0,0,0,0,1170130,2081161,0,0,1131131,0,0,0,1120051
20,196,1010.23824198637,0,0,778251.929990179,778252.977056073,1,50,9,1,0,12,7,6131381,6092141,7333461,4090081,0,0,0,0,0,3091191,0,0,3040190,0,0,-3041130,0,0,0,0,0,3051011,2091100,0,0,0,0,0,0,2081190,3161171,0,0,0,0,0,4090081,0,0,0
20,197,966.547314543277,0,0,778255.035914135,778256.082983493,1,50,9,0,0,9,3,10292373,0,0,4201071,0,4081151,4181171,0,0,0,0,0,-2030051,0,0,0,0,0,0,0,0,0,0,0,0,0,0,0,0,0,0,0,0,4201071,0,0,0,0,0,0
20,198,1768.81251053419,0,0,778258.153615632,778259.200681141,1,50,9,0,0,2,7,13273152,5211180,2090171,4121061,3090040,-3031031,0,0,0,3071041,4081040,0,0,0,0,0,1050170,4161010,0,0,0,0,0,0,0,0,0,0,0,2090171,0,0,4121061,0,0,0,0,0,0,0
20,199,1057.11704352871,1,0,778262.177235003,778263.224263555,1,50,9,1,1,19,3,1031161,3101161,3171130,2060040,0,1031161,0,0,0,0,0,0,0,0,3101161,0,0,0,0,0,0,0,-3171130,0,0,0,0,0,0,0,0,2060040,0,0,0,0,0,0,0,0
20,200,980.124554829672,0,0,778265.377246475,778266.424318143,1,50,9,0,0,24,3,1010030,0,7170320,3111051,0,0,0,0,0,1010030,0,0,0,0,0,0,0,0,0,0,0,0,0,0,0,0,0,-3080170,4090150,0,0,0,0,0,0,0,0,0,3111051,0
20,201,887.375938473269,1,0,778268.600822268,778269.647893166,1,50,9,1,1,33,7,0,12593380,6202170,6222312,0,0,0,0,0,0,0,0,0,0,1101120,3191190,4140010,0,0,0,0,4161060,0,0,0,4111090,2091080,0,0,0,0,0,0,3021181,0,0,-3201131,0,0,0
20,202,1757.19742372166,1,0,778271.600859609,778272.647937821,1,50,9,0,1,3,7,10420541,0,7202191,1130190,3140160,0,-1120121,2070150,0,0,0,4090110,0,0,0,0,0,0,0,0,0,0,0,3111111,0,0,3051010,0,0,1040070,0,0,0,1130190,0,0,0,0,0,0
20,203,649.526508059353,1,0,778275.565634006,778276.612693355,1,50,9,1,1,10,3,0,3351240,6301162,0,0,0,0,0,0,0,0,0,0,-1180100,0,2171140,0,0,0,0,0,0,0,0,0,0,0,0,4100151,0,2201011,0,0,0,0,0,0,0,0,0
20,204,1508.63833818585,1,0,778278.318614,778279.365680663,1,50,9,1,1,30,7,9300302,5192121,5350311,4161081,0,2070080,0,3140081,0,0,4090141,0,0,0,0,3091071,2101050,0,0,0,0,0,4150151,0,0,1200160,0,0,0,0,0,0,0,-4161081,0,0,0,0,0,0
20,205,1522.09662506357,1,0,778281.906900132,778282.95397334,1,50,9,0,1,13,3,0,6251211,1040191,4110030,0,0,0,0,0,0,0,0,0,0,0,0,-2121160,0,0,0,0,4130051,0,0,0,0,0,0,1040191,0,0,0,0,4110030,0,0,0,0,0,0
20,206,1404.00901075918,1,0,778285.542253312,778286.58932036,1,50,9,1,1,21,3,0,4021080,4141171,3150131,0,0,0,0,0,0,0,0,0,0,0,0,0,0,0,4021080,0,0,0,0,-2041140,0,0,0,2100031,0,0,0,3150131,0,0,0,0,0,0,0
20,207,1646.53342508245,0,0,778289.083475475,778290.130550223,1,50,9,1,0,4,7,5351111,10442321,3111200,3220220,0,0,0,-1171050,0,0,4180061,0,0,0,0,4190100,2151030,0,0,0,4101191,0,0,0,0,0,0,3111200,0,0,0,1130070,0,0,0,0,0,2090150,0,0
20,208,1108.4517854033,0,0,778292.93059457,778293.977666238,1,50,9,0,0,8,7,8271081,7191232,5280190,5311302,0,0,0,0,4081070,0,0,-4190011,0,0,0,0,0,0,0,4080131,3111101,0,0,0,0,0,4180020,0,1100170,0,0,0,0,0,1200181,0,0,0,0,4111121
20,209,896.168865612708,0,0,778296.224758232,778297.271824895,1,50,9,1,0,5,3,1080130,3091120,6322212,0,0,0,0,0,-1080130,0,0,0,0,0,0,3091120,0,0,0,0,0,0,3171151,0,0,0,0,0,0,0,3151061,0,0,0,0,0,0,0,0,0
20,210,1422.203490627,0,0,778299.31892351,778300.365993638,1,50,9,1,0,35,7,6061110,5243333,6181081,3111021,0,3040060,0,0,0,0,0,3021050,0,0,0,2051161,0,0,0,0,1161011,2031161,0,0,0,0,0,2040071,4141010,0,0,0,0,0,0,0,0,0,-3111021,0
20,211,1153.02042721305,0,0,778302.91901952,778303.966097347,1,50,9,0,0,32,7,4321332,4140201,1110110,9383260,0,0,0,0,0,2151181,0,2170151,0,1090030,0,0,0,3050171,0,0,0,0,0,1110110,0,0,0,0,0,0,0,0,4161040,0,0,-1101070,4121150,0,0,0
20,212,767.38237508107,1,0,778306.189616935,778307.236682058,1,50,9,0,1,17,3,2220270,1041121,0,2101070,0,1020100,0,0,0,0,1200170,0,0,0,0,0,0,0,0,0,-1041121,0,0,0,0,0,0,0,0,0,0,0,0,2101070,0,0,0,0,0,0
20,213,600.741372560151,1,0,778309.119055244,778310.166173492,1,50,9,1,1,28,3,0,5230081,0,5222282,0,0,0,0,0,0,0,0,0,0,0,0,0,4040020,0,0,0,1190061,0,0,0,0,0,0,0,0,0,-3081201,0,0,0,0,0,2141081,0,0
20,214,1300.99652567878,0,0,778311.883821249,778312.930895611,1,50,9,0,0,18,7,1041040,4323291,2170070,5090222,0,0,1041040,0,0,0,0,0,0,0,0,0,0,1071100,1061140,1090040,0,-1101011,0,0,0,0,0,0,0,2170070,0,0,4080051,0,0,0,1010171,0,0,0
20,215,929.416147060692,0,0,778315.401515277,778316.448583865,1,50,9,1,0,27,3,1060010,0,5130171,4031170,0,0,0,0,1060010,0,0,0,0,0,0,0,0,0,0,0,0,0,0,2120051,0,0,0,0,0,0,-3010120,0,0,0,4031170,0,0,0,0,0
20,216,523.146417690441,0,0,778318.542739135,778319.589816962,1,50,9,0,0,16,3,3091040,1191130,7262050,0,0,0,0,0,3091040,0,0,0,0,0,0,0,0,0,0,-1191130,0,0,0,0,0,0,0,0,4201040,0,3061010,0,0,0,0,0,0,0,0,0
20,217,2193.37604008615,0,0,778324.354582196,778325.401652709,1,50,10,0,0,8,7,1161120,3141161,9233431,7152551,0,0,0,0,0,0,0,-1161120,0,0,3141161,0,0,0,0,0,0,0,2091180,0,0,0,3071111,0,0,0,4071140,0,0,0,4021180,2061201,0,0,0,1070170
20,218,966.533070895821,0,0,778328.613470209,778329.660547651,1,50,10,1,0,35,7,6061110,5243333,6181081,3111021,0,3040060,0,0,0,0,0,3021050,0,0,0,2051161,0,0,0,0,1161011,2031161,0,0,0,0,0,2040071,4141010,0,0,0,0,0,0,0,0,0,-3111021,0
20,219,521.959193632938,0,0,778331.790028999,778332.837066405,1,50,10,1,0,33,7,0,12593380,6202170,6222312,0,0,0,0,0,0,0,0,0,0,1101120,3191190,4140010,0,0,0,0,4161060,0,0,0,4111090,2091080,0,0,0,0,0,0,3021181,0,0,-3201131,0,0,0
20,220,478.317541186698,0,0,778334.366499093,778335.413566142,1,50,10,1,0,27,3,1060010,0,5130171,4031170,0,0,0,0,1060010,0,0,0,0,0,0,0,0,0,0,0,0,0,0,2120051,0,0,0,0,0,0,-3010120,0,0,0,4031170,0,0,0,0,0
20,221,733.091845409945,1,0,778336.907748974,778337.95478407,1,50,10,0,1,34,7,6101252,6292300,8280232,2111251,0,2070121,0,4031131,0,0,0,0,0,3161150,0,0,0,0,0,0,3131150,0,0,0,4130161,0,4150071,0,0,0,0,0,1031070,0,0,0,0,-1080181,0,0
20,222,601.42853052821,1,0,778339.884222764,778340.931300206,1,50,10,0,1,29,3,2130121,4020130,0,8231211,0,0,0,0,0,2130121,0,0,0,0,0,0,0,4020130,0,0,0,0,0,0,0,0,0,0,0,0,0,4081170,-4150041,0,0,0,0,0,0,0
20,223,1221.97759477422,0,0,778342.601918256,778343.648989924,1,50,10,0,0,2,3,3281160,0,0,3270212,0,-1131100,0,0,2150060,0,0,0,0,0,0,0,0,0,0,0,0,0,0,0,0,0,0,0,0,0,0,0,0,1160071,0,0,0,0,0,2110141
20,224,1409.16635259055,0,0,778345.966669401,778347.013727595,1,50,10,0,0,16,3,2080180,6192151,0,2061131,0,0,0,2080180,0,0,0,0,0,0,0,0,3091060,0,0,-3101091,0,0,0,0,0,0,0,0,0,0,0,0,0,0,0,0,2061131,0,0,0
20,225,765.89064556174,1,0,778349.460847614,778350.507914662,1,50,10,1,1,30,7,9300302,5192121,5350311,4161081,0,2070080,0,3140081,0,0,4090141,0,0,0,0,3091071,2101050,0,0,0,0,0,4150151,0,0,1200160,0,0,0,0,0,0,0,-4161081,0,0,0,0,0,0
20,226,529.101786785759,0,0,778352.319700749,778353.366772802,1,50,10,1,0,28,3,0,5230081,0,5222282,0,0,0,0,0,0,0,0,0,0,0,0,0,4040020,0,0,0,1190061,0,0,0,0,0,0,0,0,0,-3081201,0,0,0,0,0,2141081,0,0
20,227,1419.28278061096,1,0,778354.978565895,778356.025639103,1,50,10,0,1,13,7,5101281,11380322,4170090,8191131,4080141,0,0,0,0,1021140,0,0,0,0,4090070,0,-4200151,0,0,3090101,0,0,0,0,0,0,0,0,0,4170090,0,0,4051021,0,0,0,4140110,0,0,0
20,228,1529.62572057731,0,0,778358.602146539,778359.649220131,1,50,10,1,0,12,7,6131381,6092141,7333461,4090081,0,0,0,0,0,3091191,0,0,3040190,0,0,-3041130,0,0,0,0,0,3051011,2091100,0,0,0,0,0,0,2081190,3161171,0,0,0,0,0,4090081,0,0,0
20,229,588.837563875131,1,0,778362.366972212,778363.413983826,1,50,10,0,1,3,7,5182382,4241250,1201111,4220110,0,0,-1051041,1031201,0,0,0,0,3100140,3180090,0,1061160,0,0,0,0,0,0,0,0,0,0,0,0,1201111,0,0,0,0,2120070,0,2100040,0,0,0,0
20,230,662.698768079281,0,0,778365.119966065,778366.166967285,1,50,10,1,0,19,3,1031161,3101161,3171130,2060040,0,1031161,0,0,0,0,0,0,0,0,3101161,0,0,0,0,0,0,0,-3171130,0,0,0,0,0,0,0,0,2060040,0,0,0,0,0,0,0,0
20,231,582.212745212018,0,1,778367.896406826,778368.943478108,1,50,10,0,1,24,3,0,0,13612441,0,0,0,0,0,0,0,0,0,0,0,0,0,0,0,0,0,0,0,3121181,3161030,0,0,0,-4140120,0,3190110,0,0,0,0,0,0,0,0,0,0
20,232,802.064026589505,0,0,778370.63765278,778371.684680177,1,50,10,0,0,18,3,0,3281321,0,7311280,0,0,0,0,0,0,0,0,0,0,0,2101190,0,0,0,0,0,-1180131,0,0,0,0,0,0,0,0,0,0,0,0,0,4120080,0,0,3191200,0
20,233,661.081925733015,1,0,778373.543549096,778374.590623073,1,50,10,1,1,22,7,0,5171231,2182122,5502473,0,0,0,0,0,0,0,0,0,2120071,0,0,0,0,0,0,3051160,0,0,1111101,0,-1071021,0,0,0,0,0,1170130,2081161,0,0,1131131,0,0,0,1120051
20,234,1127.92472564615,1,0,778376.343588824,778377.390659336,1,50,10,0,1,32,7,0,2061041,14484691,4302220,0,0,0,0,0,0,0,0,0,0,0,0,0,0,0,0,0,2061041,3131130,4161160,2060101,3121140,2011160,0,0,0,0,0,0,0,0,-3111100,0,0,1191120,0
20,235,626.786776585504,1,0,778379.684875353,778380.731885426,1,50,10,1,1,10,3,0,3351240,6301162,0,0,0,0,0,0,0,0,0,0,-1180100,0,2171140,0,0,0,0,0,0,0,0,0,0,0,0,4100151,0,2201011,0,0,0,0,0,0,0,0,0
20,236,612.958925659768,1,0,778382.390752112,778383.437809921,1,50,10,1,1,5,3,1080130,3091120,6322212,0,0,0,0,0,-1080130,0,0,0,0,0,0,3091120,0,0,0,0,0,0,3171151,0,0,0,0,0,0,0,3151061,0,0,0,0,0,0,0,0,0
20,237,1890.00523195136,1,0,778385.108471087,778386.15548655,1,50,10,1,1,4,7,5351111,10442321,3111200,3220220,0,0,0,-1171050,0,0,4180061,0,0,0,0,4190100,2151030,0,0,0,4101191,0,0,0,0,0,0,3111200,0,0,0,1130070,0,0,0,0,0,2090150,0,0
20,238,517.248023184948,0,0,778389.120250168,778390.16732145,1,50,10,0,0,9,7,6272262,4371241,2090070,6151251,0,0,0,1171131,0,0,1070061,0,-4031070,1180191,0,0,3191050,0,0,0,0,0,0,0,0,0,2090070,0,0,0,0,0,4011051,0,0,0,0,0,0,2140200
20,239,547.207340365276,1,0,778391.767353171,778392.81441406,1,50,10,0,1,17,3,4050130,2051010,4091191,4101020,0,0,4050130,0,0,0,0,0,0,0,0,0,0,0,0,0,-2051010,0,0,0,0,0,0,0,4091191,0,0,0,0,4101020,0,0,0,0,0,0
20,240,468.025955255143,0,0,778394.567396749,778395.614459562,1,50,10,1,0,21,3,0,4021080,4141171,3150131,0,0,0,0,0,0,0,0,0,0,0,0,0,0,0,4021080,0,0,0,0,-2041140,0,0,0,2100031,0,0,0,3150131,0,0,0,0,0,0,0
20,241,544.490275438875,1,0,778400.249821982,778401.296901733,1,50,11,1,1,28,3,0,5230081,0,5222282,0,0,0,0,0,0,0,0,0,0,0,0,0,4040020,0,0,0,1190061,0,0,0,0,0,0,0,0,0,-3081201,0,0,0,0,0,2141081,0,0
20,242,522.957786102779,1,0,778403.014605694,778404.0616431,1,50,11,0,1,16,7,10572523,4140241,1190180,0,2091200,0,1180061,2050061,3060010,0,0,2191191,0,2090190,0,0,0,0,0,-2050051,0,0,0,0,0,0,0,0,0,0,1190180,0,0,0,0,0,0,0,0,0
20,243,579.038344905712,0,0,778405.626398788,778406.673446973,1,50,11,0,0,3,3,1130040,4360351,4020021,0,0,0,-1130040,0,0,0,0,0,0,3160201,0,0,0,0,0,0,1200150,0,4020021,0,0,0,0,0,0,0,0,0,0,0,0,0,0,0,0,0
20,244,1156.92471631337,0,0,778408.320583083,778409.36760817,1,50,11,0,0,18,3,2091081,3081180,5150072,0,0,0,0,0,0,0,2091081,0,0,0,0,0,0,0,0,0,0,-3081180,2010041,0,3140031,0,0,0,0,0,0,0,0,0,0,0,0,0,0,0
20,245,1110.3727479931,0,0,778411.697062879,778412.744128002,1,50,11,0,0,24,3,0,4100181,8282312,0,0,0,0,0,0,0,0,0,0,0,0,0,0,0,0,0,4100181,0,0,0,1111031,0,0,-3090141,0,0,4081140,0,0,0,0,0,0,0,0,0
20,246,462.654574308544,0,0,778414.920674473,778415.96770341,1,50,11,1,0,21,3,0,4021080,4141171,3150131,0,0,0,0,0,0,0,0,0,0,0,0,0,0,0,4021080,0,0,0,0,-2041140,0,0,0,2100031,0,0,0,3150131,0,0,0,0,0,0,0
20,247,1200.81274455879,1,0,778417.485374726,778418.532445624,1,50,11,1,1,22,7,0,5171231,2182122,5502473,0,0,0,0,0,0,0,0,0,2120071,0,0,0,0,0,0,3051160,0,0,1111101,0,-1071021,0,0,0,0,0,1170130,2081161,0,0,1131131,0,0,0,1120051
20,248,695.941814803518,0,0,778420.885487751,778421.932503214,1,50,11,1,0,35,7,6061110,5243333,6181081,3111021,0,3040060,0,0,0,0,0,3021050,0,0,0,2051161,0,0,0,0,1161011,2031161,0,0,0,0,0,2040071,4141010,0,0,0,0,0,0,0,0,0,-3111021,0
20,249,1209.95213789865,1,0,778423.697233417,778424.74430008,1,50,11,1,1,4,7,5351111,10442321,3111200,3220220,0,0,0,-1171050,0,0,4180061,0,0,0,0,4190100,2151030,0,0,0,4101191,0,0,0,0,0,0,3111200,0,0,0,1130070,0,0,0,0,0,2090150,0,0
20,250,669.524922035635,1,0,778426.979630316,778428.026703139,1,50,11,1,1,27,3,1060010,0,5130171,4031170,0,0,0,0,1060010,0,0,0,0,0,0,0,0,0,0,0,0,0,0,2120051,0,0,0,0,0,0,-3010120,0,0,0,4031170,0,0,0,0,0
20,251,691.246042959392,0,0,778429.709089105,778430.756149994,1,50,11,0,0,17,7,4191130,4161130,4190170,6483681,0,1171100,0,0,3020030,0,0,0,0,0,0,0,0,0,0,0,-4161130,0,0,0,4190170,0,0,0,0,0,0,0,0,2081150,0,0,1171160,0,2090180,1141191
20,252,916.291622561403,0,0,778432.462072179,778433.509135378,1,50,11,0,0,13,3,0,7352180,6220221,0,0,0,0,0,0,0,0,0,0,0,0,3161110,-4191070,0,0,0,0,0,0,0,0,0,0,2160021,4060200,0,0,0,0,0,0,0,0,0,0,0
20,253,894.306802307256,0,0,778435.626816857,778436.673887755,1,50,11,0,0,2,7,4121071,0,12271563,6171272,0,-2061021,2060050,0,0,0,0,0,0,0,0,0,0,0,0,0,0,0,0,0,3080171,3090171,0,2080171,0,0,4021050,0,0,0,3090111,3081161,0,0,0,0
20,254,651.742351823486,1,0,778438.591562766,778439.638632894,1,50,11,1,1,10,3,0,3351240,6301162,0,0,0,0,0,0,0,0,0,0,-1180100,0,2171140,0,0,0,0,0,0,0,0,0,0,0,0,4100151,0,2201011,0,0,0,0,0,0,0,0,0
20,255,768.026802223176,1,0,778441.462199602,778442.509260876,1,50,11,1,1,33,7,0,12593380,6202170,6222312,0,0,0,0,0,0,0,0,0,0,1101120,3191190,4140010,0,0,0,0,4161060,0,0,0,4111090,2091080,0,0,0,0,0,0,3021181,0,0,-3201131,0,0,0
20,256,602.559165214188,1,0,778444.450483655,778445.497553398,1,50,11,0,1,9,3,11421382,0,0,0,0,0,2111150,0,4030081,3080100,0,0,-2200051,0,0,0,0,0,0,0,0,0,0,0,0,0,0,0,0,0,0,0,0,0,0,0,0,0,0,0
20,257,1171.53558088467,0,0,778447.238757006,778448.285831368,1,50,11,0,0,34,7,8120351,4291181,0,12481313,0,0,4110160,0,0,0,0,4010191,0,0,3171140,0,0,1120041,0,0,0,0,0,0,0,0,0,0,0,0,0,4191101,0,0,0,0,3130010,-2040011,3120191,0
20,258,631.80322223343,0,0,778450.61530956,778451.662350815,1,50,11,1,0,19,3,1031161,3101161,3171130,2060040,0,1031161,0,0,0,0,0,0,0,0,3101161,0,0,0,0,0,0,0,-3171130,0,0,0,0,0,0,0,0,2060040,0,0,0,0,0,0,0,0
20,259,1348.08243694715,0,0,778453.427076784,778454.474152301,1,50,11,1,0,12,7,6131381,6092141,7333461,4090081,0,0,0,0,0,3091191,0,0,3040190,0,0,-3041130,0,0,0,0,0,3051011,2091100,0,0,0,0,0,0,2081190,3161171,0,0,0,0,0,4090081,0,0,0
20,260,855.236963951029,1,0,778456.838901906,778457.885965489,1,50,11,0,1,29,3,2170180,3160080,0,6281202,2170180,0,0,0,0,0,0,0,0,0,0,0,0,0,0,0,3160080,0,0,0,0,0,0,0,0,0,0,0,-4180131,2101071,0,0,0,0,0,0
20,261,737.689066911116,0,0,778459.921295418,778460.96836824,1,50,11,0,0,32,7,2061111,9391343,1030081,8173300,0,0,0,0,0,2061111,0,0,0,4160021,0,0,0,3171161,0,0,2060161,0,1030081,0,0,0,0,0,0,0,0,4111120,3041060,0,0,-1021120,0,0,0,0
20,262,1652.73593994789,1,0,778462.874405067,778463.921366636,1,50,11,1,1,30,7,9300302,5192121,5350311,4161081,0,2070080,0,3140081,0,0,4090141,0,0,0,0,3091071,2101050,0,0,0,0,0,4150151,0,0,1200160,0,0,0,0,0,0,0,-4161081,0,0,0,0,0,0
20,263,855.842894758098,1,0,778466.686102228,778467.733171586,1,50,11,1,1,5,3,1080130,3091120,6322212,0,0,0,0,0,-1080130,0,0,0,0,0,0,3091120,0,0,0,0,0,0,3171151,0,0,0,0,0,0,0,3151061,0,0,0,0,0,0,0,0,0
20,264,640.3686364647,1,0,778469.603783784,778470.650860456,1,50,11,0,1,8,7,7131161,5210161,5201202,5210200,0,0,0,0,0,0,4061090,-3070071,0,0,0,0,0,3150120,0,2060041,0,0,0,4170131,0,0,0,0,0,1031071,0,0,0,0,0,0,3150100,0,2060100,0
20,265,1346.8909781659,0,0,778475.450959468,778476.498009578,1,50,12,1,0,30,7,9300302,5192121,5350311,4161081,0,2070080,0,3140081,0,0,4090141,0,0,0,0,3091071,2101050,0,0,0,0,0,4150151,0,0,1200160,0,0,0,0,0,0,0,-4161081,0,0,0,0,0,0
20,266,512.729333946481,1,0,778478.933348977,778479.980413715,1,50,12,1,1,35,7,6061110,5243333,6181081,3111021,0,3040060,0,0,0,0,0,3021050,0,0,0,2051161,0,0,0,0,1161011,2031161,0,0,0,0,0,2040071,4141010,0,0,0,0,0,0,0,0,0,-3111021,0
20,267,1366.44014099147,0,0,778481.627501705,778482.674573758,1,50,12,1,0,19,3,1031161,3101161,3171130,2060040,0,1031161,0,0,0,0,0,0,0,0,3101161,0,0,0,0,0,0,0,-3171130,0,0,0,0,0,0,0,0,2060040,0,0,0,0,0,0,0,0
20,268,1024.86412005965,1,0,778485.098148704,778486.14523038,1,50,12,0,1,32,7,0,11431241,3180030,9631472,0,0,0,0,0,0,0,0,0,3110060,0,0,4121081,0,0,0,0,4200100,0,0,0,0,0,0,0,0,3180030,0,0,1190180,0,-1090200,0,0,3181041,4170051
20,269,916.174208861776,1,0,778488.215832492,778489.262904545,1,50,12,1,1,21,3,0,4021080,4141171,3150131,0,0,0,0,0,0,0,0,0,0,0,0,0,0,0,4021080,0,0,0,0,-2041140,0,0,0,2100031,0,0,0,3150131,0,0,0,0,0,0,0
20,270,694.057808606885,0,0,778491.215881383,778492.262944196,1,50,12,0,0,34,3,1040101,3021081,0,6382081,0,0,0,0,0,0,0,0,1040101,3021081,0,0,0,0,0,0,0,0,0,0,0,0,0,0,0,0,0,0,0,0,0,0,0,-2191030,4191051,0
20,271,572.791559388861,0,0,778494.157105317,778495.204176215,1,50,12,1,0,27,3,1060010,0,5130171,4031170,0,0,0,0,1060010,0,0,0,0,0,0,0,0,0,0,0,0,0,0,2120051,0,0,0,0,0,0,-3010120,0,0,0,4031170,0,0,0,0,0
20,272,1416.75165260676,0,0,778496.957168528,778498.004219407,1,50,12,0,0,13,7,5152071,10411211,1050160,2252240,0,0,0,0,3061051,0,2091020,0,0,0,0,0,-4150100,0,4071061,0,2190050,0,0,0,0,0,0,0,1050160,0,0,1151090,1101150,0,0,0,0,0,0,0
20,273,707.93531963136,1,0,778500.568961236,778501.616026745,1,50,12,1,1,28,3,0,5230081,0,5222282,0,0,0,0,0,0,0,0,0,0,0,0,0,4040020,0,0,0,1190061,0,0,0,0,0,0,0,0,0,-3081201,0,0,0,0,0,2141081,0,0
20,274,880.615997943096,1,0,778503.463134676,778504.510185555,1,50,12,0,1,16,7,0,3251111,3141010,15641473,0,0,0,0,0,0,0,0,0,0,0,0,2131100,0,0,-1120011,0,0,0,3141010,0,0,0,0,0,0,0,0,0,0,0,4201141,3170120,2040011,4140121,2090080
20,275,767.587559996173,1,0,778506.41609881,778507.463174712,1,50,12,1,1,10,3,0,3351240,6301162,0,0,0,0,0,0,0,0,0,0,-1180100,0,2171140,0,0,0,0,0,0,0,0,0,0,0,0,4100151,0,2201011,0,0,0,0,0,0,0,0,0
20,276,696.490386268124,1,0,778509.357321589,778510.404390562,1,50,12,1,1,22,7,0,5171231,2182122,5502473,0,0,0,0,0,0,0,0,0,2120071,0,0,0,0,0,0,3051160,0,0,1111101,0,-1071021,0,0,0,0,0,1170130,2081161,0,0,1131131,0,0,0,1120051
20,277,647.679073386826,0,0,778512.216190893,778513.263257556,1,50,12,0,0,2,3,4030021,5311102,4100050,0,0,-4030021,0,0,0,0,0,0,0,0,0,3180051,0,0,0,0,2131051,0,0,0,4100050,0,0,0,0,0,0,0,0,0,0,0,0,0,0,0
20,278,1219.66166072525,1,0,778515.016228696,778516.063300748,1,50,12,0,1,29,7,3070100,3011081,7340170,13513522,0,0,0,0,0,0,0,3070100,0,0,0,0,0,0,0,0,0,3011081,0,0,0,0,4170090,0,0,0,3170080,3191180,-2091041,4181110,0,4050191,0,0,0,0
20,279,645.424733287655,1,0,778518.322165279,778519.369229632,1,50,12,1,1,5,3,1080130,3091120,6322212,0,0,0,0,0,-1080130,0,0,0,0,0,0,3091120,0,0,0,0,0,0,3171151,0,0,0,0,0,0,0,3151061,0,0,0,0,0,0,0,0,0
20,280,633.358085411601,0,0,778521.063378896,778522.110446329,1,50,12,0,0,24,3,4051070,0,1160081,2231331,0,0,0,0,4051070,0,0,0,0,0,0,0,0,0,0,0,0,0,0,0,0,0,0,-1160081,0,0,0,0,0,0,0,1051180,0,0,0,1180151
20,281,650.819211965427,0,0,778523.792868097,778524.839900113,1,50,12,0,0,17,7,5192190,2211291,9201381,1130071,0,0,0,0,0,0,3141170,2051020,0,0,1120100,0,0,0,0,0,-1091191,0,3100190,0,3060020,0,0,3041171,0,0,0,0,0,0,1130071,0,0,0,0,0
20,282,851.535935071297,1,0,778526.581103722,778527.628191943,1,50,12,0,1,3,3,5171072,4110141,0,3181040,0,4060031,-1111041,0,0,0,0,0,0,0,0,0,0,0,0,0,4110141,0,0,0,0,0,0,0,0,0,0,0,0,0,0,0,0,3181040,0,0
20,283,1168.49553247448,0,0,778529.675271695,778530.722341437,1,50,12,1,0,33,7,0,12593380,6202170,6222312,0,0,0,0,0,0,0,0,0,0,1101120,3191190,4140010,0,0,0,0,4161060,0,0,0,4111090,2091080,0,0,0,0,0,0,3021181,0,0,-3201131,0,0,0
20,284,892.626056214795,0,0,778532.934142769,778533.981211357,1,50,12,0,0,8,3,4272272,0,3200130,4141090,0,0,0,0,0,0,3101201,-1171071,0,0,0,0,0,0,0,0,0,0,0,0,0,3200130,0,0,0,0,0,0,0,0,4141090,0,0,0,0,0
20,285,919.491045409814,1,0,778535.93418627,778536.981262557,1,50,12,1,1,12,7,6131381,6092141,7333461,4090081,0,0,0,0,0,3091191,0,0,3040190,0,0,-3041130,0,0,0,0,0,3051011,2091100,0,0,0,0,0,0,2081190,3161171,0,0,0,0,0,4090081,0,0,0
20,286,3120.51342858467,1,0,778539.098982147,778540.146010699,1,50,12,0,1,9,3,3201150,3031151,4171141,3191121,0,0,0,0,0,0,0,0,-3201150,0,3031151,0,0,0,0,0,0,0,0,0,0,0,0,0,0,0,4171141,0,0,3191121,0,0,0,0,0,0
20,287,1779.1206499096,0,0,778544.334308534,778545.381377507,1,50,12,1,0,4,7,5351111,10442321,3111200,3220220,0,0,0,-1171050,0,0,4180061,0,0,0,0,4190100,2151030,0,0,0,4101191,0,0,0,0,0,0,3111200,0,0,0,1130070,0,0,0,0,0,2090150,0,0
20,288,1159.85543536954,1,0,778548.369720844,778549.416734768,1,50,12,0,1,18,7,11503363,5152142,4040111,2081141,2170021,4091081,1121171,0,0,0,0,4121090,0,0,0,0,2031011,0,0,0,0,-3121131,0,0,0,0,4040111,0,0,0,0,2081141,0,0,0,0,0,0,0,0
20,289,778.427717508748,0,0,778554.805059473,778555.852114972,1,50,13,0,0,29,7,9282150,4021081,1121151,9291313,3100020,3021090,0,0,0,0,3161040,0,0,0,0,0,0,0,0,4021081,0,0,0,0,0,1121151,0,0,0,0,0,0,-3101081,0,0,4050111,2140121,0,0,0
20,290,1166.18460288737,0,0,778557.793337366,778558.840405954,1,50,13,1,0,4,7,5351111,10442321,3111200,3220220,0,0,0,-1171050,0,0,4180061,0,0,0,0,4190100,2151030,0,0,0,4101191,0,0,0,0,0,0,3111200,0,0,0,1130070,0,0,0,0,0,2090150,0,0
20,291,490.909277810715,1,0,778561.134560761,778562.181648597,1,50,13,0,1,9,3,2010040,4031080,0,8302231,0,0,0,0,0,0,0,0,-2010040,0,0,0,0,0,0,0,0,4031080,0,0,0,0,0,0,0,0,0,0,4171070,0,0,0,0,0,0,4131161
20,292,545.490407850593,1,0,778563.711067427,778564.75813794,1,50,13,0,1,16,3,0,1170130,7300161,1150131,0,0,0,0,0,0,0,0,0,0,0,0,0,0,0,-1170130,0,0,4140060,0,3160101,0,0,0,0,0,0,0,0,0,0,0,0,0,0,1150131
20,293,611.209271242842,0,0,778566.499346553,778567.546408212,1,50,13,0,0,17,7,3141120,5352060,6271141,2051080,0,0,3141120,0,0,0,0,0,0,0,0,3031010,0,0,0,1190020,-1131030,0,0,1130041,4121050,0,0,1020050,0,0,0,0,2051080,0,0,0,0,0,0,0
20,294,1409.50858418364,1,0,778569.181739449,778570.228809576,1,50,13,0,1,13,7,0,4022032,5230101,10434344,0,0,0,0,0,0,0,0,0,0,0,0,-3011021,0,0,1011011,0,0,0,3170031,2060070,0,0,0,0,0,0,0,1081121,4131141,0,1061061,0,0,4161021,0
20,295,1921.42894631252,0,0,778572.828930224,778573.875922589,1,50,13,1,0,30,7,9300302,5192121,5350311,4161081,0,2070080,0,3140081,0,0,4090141,0,0,0,0,3091071,2101050,0,0,0,0,0,4150151,0,0,1200160,0,0,0,0,0,0,0,-4161081,0,0,0,0,0,0
20,296,521.381364902481,0,0,778576.923033908,778577.970102496,1,50,13,1,0,21,3,0,4021080,4141171,3150131,0,0,0,0,0,0,0,0,0,0,0,0,0,0,0,4021080,0,0,0,0,-2041140,0,0,0,2100031,0,0,0,3150131,0,0,0,0,0,0,0
20,297,672.630414017476,0,0,778579.593669666,778580.64072863,1,50,13,1,0,19,3,1031161,3101161,3171130,2060040,0,1031161,0,0,0,0,0,0,0,0,3101161,0,0,0,0,0,0,0,-3171130,0,0,0,0,0,0,0,0,2060040,0,0,0,0,0,0,0,0
20,298,1046.28266056534,1,0,778582.428993511,778583.476064024,1,50,13,0,1,2,7,11240292,6160291,6341110,4061151,4130011,-3080110,0,0,0,0,4030171,0,0,0,3010101,0,0,0,0,3150190,0,0,0,0,0,0,4171050,0,2170060,0,0,0,0,0,0,0,0,0,4061151,0
20,299,1154.62418075185,1,0,778585.699627883,778586.746704941,1,50,13,1,1,22,7,0,5171231,2182122,5502473,0,0,0,0,0,0,0,0,0,2120071,0,0,0,0,0,0,3051160,0,0,1111101,0,-1071021,0,0,0,0,0,1170130,2081161,0,0,1131131,0,0,0,1120051
20,300,704.332841210999,1,0,778589.087919867,778590.134988455,1,50,13,1,1,35,7,6061110,5243333,6181081,3111021,0,3040060,0,0,0,0,0,3021050,0,0,0,2051161,0,0,0,0,1161011,2031161,0,0,0,0,0,2040071,4141010,0,0,0,0,0,0,0,0,0,-3111021,0
20,301,974.877901840955,0,0,778591.970386598,778593.017438633,1,50,13,1,0,10,3,0,3351240,6301162,0,0,0,0,0,0,0,0,0,0,-1180100,0,2171140,0,0,0,0,0,0,0,0,0,0,0,0,4100151,0,2201011,0,0,0,0,0,0,0,0,0
20,302,670.798377715983,1,0,778595.170364963,778596.217437401,1,50,13,1,1,27,3,1060010,0,5130171,4031170,0,0,0,0,1060010,0,0,0,0,0,0,0,0,0,0,0,0,0,0,2120051,0,0,0,0,0,0,-3010120,0,0,0,4031170,0,0,0,0,0
20,303,495.56116387248,0,0,778597.911581275,778598.95863639,1,50,13,0,0,34,3,0,5171240,4200130,3131170,0,0,0,0,0,0,0,0,0,3030200,0,0,2141040,0,0,0,0,0,0,0,0,0,4200130,0,0,0,0,0,0,0,0,0,0,-3131170,0,0
20,304,1308.03132941946,1,0,778600.629267913,778601.676334961,1,50,13,1,1,12,7,6131381,6092141,7333461,4090081,0,0,0,0,0,3091191,0,0,3040190,0,0,-3041130,0,0,0,0,0,3051011,2091100,0,0,0,0,0,0,2081190,3161171,0,0,0,0,0,4090081,0,0,0
20,305,930.865915608592,1,0,778604.076390242,778605.123447281,1,50,13,1,1,33,7,0,12593380,6202170,6222312,0,0,0,0,0,0,0,0,0,0,1101120,3191190,4140010,0,0,0,0,4161060,0,0,0,4111090,2091080,0,0,0,0,0,0,3021181,0,0,-3201131,0,0,0
20,306,876.624322496355,0,0,778607.21760101,778608.264672678,1,50,13,1,0,5,3,1080130,3091120,6322212,0,0,0,0,0,-1080130,0,0,0,0,0,0,3091120,0,0,0,0,0,0,3171151,0,0,0,0,0,0,0,3151061,0,0,0,0,0,0,0,0,0
20,307,911.113107693382,0,0,778610.34705926,778611.394125538,1,50,13,0,0,18,3,2021071,2200191,2080050,2110190,0,0,2021071,0,0,0,0,0,0,0,0,0,0,0,0,0,0,-2200191,0,0,0,0,0,0,2080050,0,0,0,2110190,0,0,0,0,0,0,0
20,308,866.298474837095,0,0,778613.311810559,778614.358871063,1,50,13,0,0,8,3,3101201,3131181,0,6321280,0,0,0,0,0,0,0,-3101201,0,0,0,0,0,0,0,0,3131181,0,0,0,0,0,0,0,0,0,0,0,3190170,3131110,0,0,0,0,0,0
20,309,843.849774915725,1,0,778616.335441863,778617.382448472,1,50,13,0,1,3,3,7321051,7082171,0,0,0,0,-4150030,0,0,0,0,3171021,0,0,0,4011081,0,0,0,0,3071090,0,0,0,0,0,0,0,0,0,0,0,0,0,0,0,0,0,0,0
20,310,783.029943471774,0,0,778619.347182833,778620.394287992,1,50,13,0,0,32,7,6352241,0,4192312,7232573,0,0,0,0,4181111,0,0,0,2171130,0,0,0,0,0,0,0,0,0,1090061,0,0,0,1041140,2061111,0,0,0,0,0,0,0,-2090191,0,2071191,0,3071191
20,311,937.097302637994,0,0,778622.264878633,778623.311950685,1,50,13,0,0,24,7,10292480,0,11102351,3251181,4071200,0,0,0,0,0,0,4140160,2081120,0,0,0,0,0,0,0,0,0,4061180,0,0,0,0,-3011021,4030150,0,0,0,0,0,0,0,1090150,0,0,2161031
20,312,861.505307490006,1,0,778625.335513851,778626.3825809,1,50,13,1,1,28,3,0,5230081,0,5222282,0,0,0,0,0,0,0,0,0,0,0,0,0,4040020,0,0,0,1190061,0,0,0,0,0,0,0,0,0,-3081201,0,0,0,0,0,2141081,0,0
20,313,1118.48852608819,0,0,778631.582655505,778632.629740262,1,50,14,0,0,2,3,1021111,2030031,4160091,0,0,-1021111,0,0,0,0,0,0,0,0,0,0,0,0,2030031,0,0,0,0,0,3100041,0,0,0,1060050,0,0,0,0,0,0,0,0,0,0,0
20,314,917.646305286326,1,0,778634.794481475,778635.841558147,1,50,14,0,1,34,7,11591313,1141200,4091180,5202331,0,0,2131050,0,2080101,4190141,0,0,3190021,1141200,0,0,0,0,0,0,0,0,0,0,0,0,0,0,0,0,4091180,0,0,0,0,0,0,-2141140,0,3061191
20,315,664.276344119571,0,0,778637.923937415,778638.971002153,1,50,14,0,0,16,7,4131200,4352191,1200071,8251253,0,0,0,0,0,4131200,0,0,0,0,1080140,0,0,0,0,-1131041,0,2141010,0,0,0,0,0,0,0,0,1200071,0,1080111,0,0,0,3020131,4151011,0,0
20,316,1043.453186634,1,0,778640.84162975,778641.888683709,1,50,14,0,1,8,3,1061131,4131090,4080060,4101101,0,0,0,0,0,0,0,-1061131,0,0,0,0,0,0,4131090,0,0,0,0,0,0,0,0,4080060,0,0,0,0,0,4101101,0,0,0,0,0,0
20,317,676.52507906314,1,0,778643.959356269,778645.006388286,1,50,14,1,1,27,3,1060010,0,5130171,4031170,0,0,0,0,1060010,0,0,0,0,0,0,0,0,0,0,0,0,0,0,2120051,0,0,0,0,0,0,-3010120,0,0,0,4031170,0,0,0,0,0
20,318,631.320479209535,0,0,778646.70053909,778647.747604983,1,50,14,0,0,9,3,3141312,0,8221160,0,0,2041141,0,0,0,0,0,0,-1100171,0,0,0,0,0,0,0,0,0,0,4161090,0,0,4060070,0,0,0,0,0,0,0,0,0,0,0,0,0
20,319,1261.99675048701,1,0,778649.382929291,778650.429997109,1,50,14,0,1,17,7,7131051,7141350,6302390,3061101,0,4050041,3081010,0,0,0,0,0,0,0,0,0,0,3061190,0,0,-4080160,0,0,0,0,3111030,0,2180170,0,1011190,0,0,0,3061101,0,0,0,0,0,0
20,320,1319.3804071052,0,0,778652.806510011,778653.85356782,1,50,14,0,0,18,7,4191371,6342250,0,10391473,0,0,0,2091180,2100191,0,0,0,0,3161120,0,0,0,0,0,0,0,-3181130,0,0,0,0,0,0,0,0,0,0,3070131,2161110,0,0,2110131,0,0,3050101
20,321,1892.12252537254,1,0,778656.194799684,778657.241867118,1,50,14,1,1,4,7,5351111,10442321,3111200,3220220,0,0,0,-1171050,0,0,4180061,0,0,0,0,4190100,2151030,0,0,0,4101191,0,0,0,0,0,0,3111200,0,0,0,1130070,0,0,0,0,0,2090150,0,0
20,322,1608.10531908646,1,0,778660.25367969,778661.300742504,1,50,14,1,1,30,7,9300302,5192121,5350311,4161081,0,2070080,0,3140081,0,0,4090141,0,0,0,0,3091071,2101050,0,0,0,0,0,4150151,0,0,1200160,0,0,0,0,0,0,0,-4161081,0,0,0,0,0,0
20,323,812.121940194629,0,0,778664.006680087,778665.053741746,1,50,14,0,0,32,7,2030321,0,4291230,10563641,0,0,0,1010201,0,0,0,0,1020120,0,0,0,0,0,0,0,0,0,3121130,0,0,1170100,0,0,0,0,0,0,0,3201141,0,-1041170,2171200,0,4150130,0
20,324,574.990079854615,0,0,778666.994951437,778668.042015405,1,50,14,1,0,33,7,0,12593380,6202170,6222312,0,0,0,0,0,0,0,0,0,0,1101120,3191190,4140010,0,0,0,0,4161060,0,0,0,4111090,2091080,0,0,0,0,0,0,3021181,0,0,-3201131,0,0,0
20,325,1148.49018922541,0,0,778669.77146688,778670.818532388,1,50,14,1,0,12,7,6131381,6092141,7333461,4090081,0,0,0,0,0,3091191,0,0,3040190,0,0,-3041130,0,0,0,0,0,3051011,2091100,0,0,0,0,0,0,2081190,3161171,0,0,0,0,0,4090081,0,0,0
20,326,630.605218932033,0,0,778673.136225339,778674.183292387,1,50,14,1,0,28,3,0,5230081,0,5222282,0,0,0,0,0,0,0,0,0,0,0,0,0,4040020,0,0,0,1190061,0,0,0,0,0,0,0,0,0,-3081201,0,0,0,0,0,2141081,0,0
20,327,446.103499038145,0,1,778675.959796666,778677.006864099,1,50,14,1,1,21,3,0,4021080,4141171,3150131,0,0,0,0,0,0,0,0,0,0,0,0,0,0,0,4021080,0,0,0,0,-2041140,0,0,0,2100031,0,0,0,3150131,0,0,0,0,0,0,0
20,328,1032.74815098848,1,0,778678.559833777,778679.606945865,1,50,14,0,1,24,7,5342331,0,11512281,4161071,3191081,0,1030110,0,0,0,0,1121140,0,0,0,0,0,0,0,0,0,0,0,4121020,0,4180130,0,-2050080,1161051,0,0,0,0,0,0,0,4161071,0,0,0
20,329,568.261321284808,1,0,778681.724586923,778682.771653202,1,50,14,1,1,22,7,0,5171231,2182122,5502473,0,0,0,0,0,0,0,0,0,2120071,0,0,0,0,0,0,3051160,0,0,1111101,0,-1071021,0,0,0,0,0,1170130,2081161,0,0,1131131,0,0,0,1120051
20,330,882.215132005513,1,0,778684.524628961,778685.571691005,1,50,14,0,1,13,3,0,3191201,1191041,2070191,0,0,0,0,0,0,0,0,0,0,0,0,-1021111,0,2170090,0,0,0,1191041,0,0,0,0,0,0,0,0,0,0,0,0,2070191,0,0,0,0
20,331,524.149244884029,1,0,778687.477639676,778688.524679391,1,50,14,1,1,10,3,0,3351240,6301162,0,0,0,0,0,0,0,0,0,0,-1180100,0,2171140,0,0,0,0,0,0,0,0,0,0,0,0,4100151,0,2201011,0,0,0,0,0,0,0,0,0
20,332,582.931854994968,0,0,778690.077646374,778691.124716502,1,50,14,1,0,5,3,1080130,3091120,6322212,0,0,0,0,0,-1080130,0,0,0,0,0,0,3091120,0,0,0,0,0,0,3171151,0,0,0,0,0,0,0,3151061,0,0,0,0,0,0,0,0,0
20,333,773.121010162868,1,0,778692.830637532,778693.877701886,1,50,14,0,1,29,3,0,2170160,0,9302402,0,0,0,0,0,0,0,0,0,0,0,2170160,0,0,0,0,0,0,0,0,0,0,0,0,0,0,0,3051130,-3051071,0,0,0,0,0,0,3200201
20,334,1524.3321020389,1,0,778695.701268208,778696.748331792,1,50,14,1,1,35,7,6061110,5243333,6181081,3111021,0,3040060,0,0,0,0,0,3021050,0,0,0,2051161,0,0,0,0,1161011,2031161,0,0,0,0,0,2040071,4141010,0,0,0,0,0,0,0,0,0,-3111021,0
20,335,693.308286718093,0,0,778699.454262831,778700.50132603,1,50,14,0,0,3,3,6070091,0,0,5111191,0,0,-2010060,0,0,0,0,4060031,0,0,0,0,0,0,0,0,0,0,0,0,0,0,0,0,0,0,0,0,0,0,0,0,4021120,0,0,1090071
20,336,945.483709452674,0,0,778702.313143299,778703.360194949,1,50,14,1,0,19,3,1031161,3101161,3171130,2060040,0,1031161,0,0,0,0,0,0,0,0,3101161,0,0,0,0,0,0,0,-3171130,0,0,0,0,0,0,0,0,2060040,0,0,0,0,0,0,0,0
20,337,540.474732173607,0,0,778708.466155476,778709.513230223,1,50,15,1,0,22,7,0,5171231,2182122,5502473,0,0,0,0,0,0,0,0,0,2120071,0,0,0,0,0,0,3051160,0,0,1111101,0,-1071021,0,0,0,0,0,1170130,2081161,0,0,1131131,0,0,0,1120051
20,338,866.979858255945,1,0,778711.242731743,778712.289741817,1,50,15,0,1,13,3,0,2201071,4201202,1070050,0,0,0,0,0,0,0,0,0,0,0,0,-2201071,0,0,0,0,0,0,3060051,1141151,0,0,0,0,0,0,1070050,0,0,0,0,0,0,0,0
20,339,907.585696782917,0,0,778714.336835812,778715.3839044,1,50,15,0,0,3,7,8152260,3280270,6270151,4142260,0,0,-4091200,0,0,0,0,0,4061060,1170100,0,2110170,0,0,0,0,0,0,0,0,3150110,0,0,0,0,0,3120041,0,2131090,2011170,0,0,0,0,0,0
20,340,1397.06929284148,0,0,778717.313347714,778718.360413992,1,50,15,0,0,29,7,4161141,5020262,3251111,8402331,4161141,0,0,0,0,0,0,0,0,0,0,0,0,1010161,0,0,0,4010101,0,0,0,0,0,2090021,0,1161090,0,0,-2070101,0,0,0,4141090,2191140,0,0
20,341,517.572931479663,1,0,778720.831047132,778721.878126114,1,50,15,1,1,21,3,0,4021080,4141171,3150131,0,0,0,0,0,0,0,0,0,0,0,0,0,0,0,4021080,0,0,0,0,-2041140,0,0,0,2100031,0,0,0,3150131,0,0,0,0,0,0,0
20,342,892.664937418886,1,0,778723.548743394,778724.595816601,1,50,15,1,1,35,7,6061110,5243333,6181081,3111021,0,3040060,0,0,0,0,0,3021050,0,0,0,2051161,0,0,0,0,1161011,2031161,0,0,0,0,0,2040071,4141010,0,0,0,0,0,0,0,0,0,-3111021,0
20,343,575.716504012235,1,0,778726.595839314,778727.642904052,1,50,15,0,1,34,3,1110161,0,4021120,2291221,0,0,0,1110161,0,0,0,0,0,0,0,0,0,0,0,0,0,0,0,4021120,0,0,0,0,0,0,0,0,0,0,1130201,0,0,-1161020,0,0
20,344,541.297012008727,0,0,778729.337061785,778730.384129603,1,50,15,1,0,19,3,1031161,3101161,3171130,2060040,0,1031161,0,0,0,0,0,0,0,0,3101161,0,0,0,0,0,0,0,-3171130,0,0,0,0,0,0,0,0,2060040,0,0,0,0,0,0,0,0
20,345,1350.4249334801,1,0,778731.984155935,778733.031224138,1,50,15,0,1,17,7,1190150,6251251,5121141,4573401,0,0,0,0,1190150,0,0,0,0,0,2190180,0,0,0,0,0,-4061071,0,0,0,2080010,0,0,0,0,0,3041131,0,0,1181141,1201150,0,0,0,2191110,0
20,346,726.992500480264,1,0,778735.431255551,778736.478332608,1,50,15,0,1,32,3,7191241,0,0,2291141,0,0,4070090,0,0,0,0,0,3121151,0,0,0,0,0,0,0,0,0,0,0,0,0,0,0,0,0,0,0,0,0,1120121,-1171020,0,0,0,0
20,347,396.338249091059,1,0,778738.290131399,778739.337203837,1,50,15,1,1,27,3,1060010,0,5130171,4031170,0,0,0,0,1060010,0,0,0,0,0,0,0,0,0,0,0,0,0,0,2120051,0,0,0,0,0,0,-3010120,0,0,0,4031170,0,0,0,0,0
20,348,1185.59979868587,1,0,778740.819579871,778741.86669196,1,50,15,0,1,24,7,5260240,0,5233251,11271291,3100140,0,2160100,0,0,0,0,0,0,0,0,0,0,0,0,0,0,0,0,0,1111081,0,0,-3071020,0,0,1051150,0,0,0,0,0,4110031,0,3010200,4151060
20,349,1733.34746051114,0,0,778744.254923889,778745.301997481,1,50,15,0,0,9,7,3130140,4080251,3172292,8322292,0,0,0,0,0,0,0,0,-3130140,2010051,0,2070200,0,0,0,0,0,0,0,0,0,0,0,0,0,1151151,2021141,0,3061080,0,0,0,0,2101021,0,3160191
20,350,2409.84927595127,1,0,778748.078520239,778749.125580742,1,50,15,1,1,30,7,9300302,5192121,5350311,4161081,0,2070080,0,3140081,0,0,4090141,0,0,0,0,3091071,2101050,0,0,0,0,0,4150151,0,0,1200160,0,0,0,0,0,0,0,-4161081,0,0,0,0,0,0
20,351,1290.1998689631,0,0,778752.702109351,778753.749177939,1,50,15,1,0,12,7,6131381,6092141,7333461,4090081,0,0,0,0,0,3091191,0,0,3040190,0,0,-3041130,0,0,0,0,0,3051011,2091100,0,0,0,0,0,0,2081190,3161171,0,0,0,0,0,4090081,0,0,0
20,352,1113.38353913743,0,0,778756.160978809,778757.208038928,1,50,15,0,0,8,3,4110100,2090150,3051200,1121121,0,0,0,0,0,0,0,-4110100,0,2090150,0,0,0,0,0,0,0,0,0,0,0,0,3051200,0,0,0,0,1121121,0,0,0,0,0,0,0,0
20,353,941.36769103352,0,0,778759.419853348,778760.466927711,1,50,15,1,0,4,7,5351111,10442321,3111200,3220220,0,0,0,-1171050,0,0,4180061,0,0,0,0,4190100,2151030,0,0,0,4101191,0,0,0,0,0,0,3111200,0,0,0,1130070,0,0,0,0,0,2090150,0,0
20,354,1038.97145390511,1,1,778762.60813386,778763.655207837,1,50,15,0,0,18,3,0,7291211,0,5150291,0,0,0,0,0,0,0,0,0,0,0,0,0,0,4170080,0,0,-3121131,0,0,0,0,0,0,0,0,0,0,0,1100140,0,0,0,4050151,0,0
20,355,700.624497956596,1,0,778765.79642438,778766.843532619,1,50,15,0,1,2,3,5251260,4201261,0,0,0,-4061170,0,0,0,0,1190090,0,0,0,0,0,2140101,2061160,0,0,0,0,0,0,0,0,0,0,0,0,0,0,0,0,0,0,0,0,0,0
20,356,866.558324429207,1,0,778768.678819894,778769.725881937,1,50,15,1,1,28,3,0,5230081,0,5222282,0,0,0,0,0,0,0,0,0,0,0,0,0,4040020,0,0,0,1190061,0,0,0,0,0,0,0,0,0,-3081201,0,0,0,0,0,2141081,0,0
20,357,910.856722621247,1,0,778771.749503618,778772.796517156,1,50,15,1,1,5,3,1080130,3091120,6322212,0,0,0,0,0,-1080130,0,0,0,0,0,0,3091120,0,0,0,0,0,0,3171151,0,0,0,0,0,0,0,3151061,0,0,0,0,0,0,0,0,0
20,358,508.108244743198,1,0,778774.725965859,778775.773027518,1,50,15,1,1,10,3,0,3351240,6301162,0,0,0,0,0,0,0,0,0,0,-1180100,0,2171140,0,0,0,0,0,0,0,0,0,0,0,0,4100151,0,2201011,0,0,0,0,0,0,0,0,0
20,359,737.75874520652,0,0,778777.4083576,778778.455463144,1,50,15,0,0,16,7,2170251,6172290,5202191,2090141,1050171,0,0,0,0,0,0,0,1120080,0,0,0,0,0,1011120,-1070060,0,4091110,0,0,0,2111121,3091070,0,0,0,0,0,0,2090141,0,0,0,0,0,0
20,360,1117.61543131433,0,0,778780.361347911,778781.408454225,1,50,15,1,0,33,7,0,12593380,6202170,6222312,0,0,0,0,0,0,0,0,0,0,1101120,3191190,4140010,0,0,0,0,4161060,0,0,0,4111090,2091080,0,0,0,0,0,0,3021181,0,0,-3201131,0,0,0
20,361,708.313352894038,0,0,778786.69084612,778787.737917018,1,50,16,1,0,5,3,1080130,3091120,6322212,0,0,0,0,0,-1080130,0,0,0,0,0,0,3091120,0,0,0,0,0,0,3171151,0,0,0,0,0,0,0,3151061,0,0,0,0,0,0,0,0,0
20,362,1290.59022094589,0,0,778789.561473332,778790.608550004,1,50,16,1,0,19,3,1031161,3101161,3171130,2060040,0,1031161,0,0,0,0,0,0,0,0,3101161,0,0,0,0,0,0,0,-3171130,0,0,0,0,0,0,0,0,2060040,0,0,0,0,0,0,0,0
20,363,1776.25537442509,1,0,778793.043880548,778794.090949906,1,50,16,0,1,13,7,8270240,6280232,2071091,4232321,0,0,0,0,0,0,0,4180120,4090120,0,1010061,0,-2170131,0,0,0,3100040,0,0,0,2071091,0,0,0,0,0,0,0,2181171,0,0,0,0,2051150,0,0
20,364,500.135287642479,1,0,778796.891000413,778797.938066691,1,50,16,0,1,9,7,7323492,6260141,5272232,3031131,0,0,0,3041180,0,3191151,0,0,-1091161,0,0,2180110,4080031,0,0,0,0,0,0,0,0,0,3091191,0,2181041,0,0,0,0,0,0,0,0,3031131,0,0
20,365,574.929640744813,1,0,778799.632215185,778800.679294167,1,50,16,1,1,28,3,0,5230081,0,5222282,0,0,0,0,0,0,0,0,0,0,0,0,0,4040020,0,0,0,1190061,0,0,0,0,0,0,0,0,0,-3081201,0,0,0,0,0,2141081,0,0
20,366,453.941334271804,1,0,778802.385197489,778803.432313428,1,50,16,1,1,27,3,1060010,0,5130171,4031170,0,0,0,0,1060010,0,0,0,0,0,0,0,0,0,0,0,0,0,0,2120051,0,0,0,0,0,0,-3010120,0,0,0,4031170,0,0,0,0,0
20,367,869.736189371906,1,0,778804.938173711,778805.985292729,1,50,16,1,1,30,7,9300302,5192121,5350311,4161081,0,2070080,0,3140081,0,0,4090141,0,0,0,0,3091071,2101050,0,0,0,0,0,4150151,0,0,1200160,0,0,0,0,0,0,0,-4161081,0,0,0,0,0,0
20,368,1381.73084927257,0,0,778807.9382815,778808.985293499,1,50,16,0,0,3,7,8333322,8102152,1160140,3152242,0,0,-3191101,4101141,0,0,1041080,0,0,0,0,0,4051021,0,0,0,0,4051131,0,0,0,0,0,1160140,0,0,0,0,2141171,0,0,0,0,0,0,1011071
20,369,948.86752939783,0,0,778811.444143323,778812.49122269,1,50,16,0,0,34,7,0,10431301,6340393,3080180,0,0,0,0,0,0,0,0,0,4110110,0,0,0,3120011,0,0,0,3201180,0,0,4110181,0,0,1190091,0,0,1040121,1060070,0,0,0,0,0,-2020110,0,0
20,370,574.304076842964,0,0,778814.467724968,778815.514798945,1,50,16,1,0,35,7,6061110,5243333,6181081,3111021,0,3040060,0,0,0,0,0,3021050,0,0,0,2051161,0,0,0,0,1161011,2031161,0,0,0,0,0,2040071,4141010,0,0,0,0,0,0,0,0,0,-3111021,0
20,371,653.16324820742,0,0,778817.161890785,778818.208953599,1,50,16,0,0,8,3,6111160,3070160,1101071,0,0,0,0,0,0,4041020,0,-2070140,0,0,0,0,0,0,3070160,0,0,0,0,0,0,0,0,0,0,0,1101071,0,0,0,0,0,0,0,0,0
20,372,622.418992687017,0,0,778819.926639466,778820.973708824,1,50,16,0,0,2,3,10323344,0,0,0,2180131,-3071011,3051151,0,0,2021051,0,0,0,0,0,0,0,0,0,0,0,0,0,0,0,0,0,0,0,0,0,0,0,0,0,0,0,0,0,0
20,373,630.803089705296,1,0,778822.70319764,778823.750215028,1,50,16,1,1,10,3,0,3351240,6301162,0,0,0,0,0,0,0,0,0,0,-1180100,0,2171140,0,0,0,0,0,0,0,0,0,0,0,0,4100151,0,2201011,0,0,0,0,0,0,0,0,0
20,374,882.774482364766,0,0,778825.456133749,778826.503200797,1,50,16,0,0,32,7,1120121,8172171,3241141,4351321,0,0,0,1120121,0,0,0,0,0,1070111,0,0,0,0,0,4091040,3011020,0,0,0,1050131,0,0,0,0,2191010,0,0,0,0,0,-2151131,0,0,0,2200190
20,375,866.365843219683,1,0,778828.597353756,778829.644418495,1,50,16,0,1,18,3,0,3171021,4121111,1151161,0,0,0,0,0,0,0,0,0,0,0,0,0,0,0,0,0,-3171021,3060061,0,0,0,0,0,0,1061050,0,0,0,0,0,0,0,1151161,0,0
20,376,1146.26934088301,1,0,778831.691509411,778832.738589547,1,50,16,1,1,33,7,0,12593380,6202170,6222312,0,0,0,0,0,0,0,0,0,0,1101120,3191190,4140010,0,0,0,0,4161060,0,0,0,4111090,2091080,0,0,0,0,0,0,3021181,0,0,-3201131,0,0,0
20,377,919.057577615604,1,0,778835.03274089,778836.079811403,1,50,16,0,1,17,3,0,3322172,2061021,1090180,0,0,0,0,0,0,0,0,0,0,0,0,0,0,0,2201141,-1121031,0,0,0,2061021,0,0,0,0,0,0,0,0,1090180,0,0,0,0,0,0
20,378,824.187048245221,1,0,778838.185729969,778839.232793168,1,50,16,1,1,4,7,5351111,10442321,3111200,3220220,0,0,0,-1171050,0,0,4180061,0,0,0,0,4190100,2151030,0,0,0,4101191,0,0,0,0,0,0,3111200,0,0,0,1130070,0,0,0,0,0,2090150,0,0
20,379,949.657087330706,1,0,778841.26813041,778842.315209007,1,50,16,1,1,12,7,6131381,6092141,7333461,4090081,0,0,0,0,0,3091191,0,0,3040190,0,0,-3041130,0,0,0,0,0,3051011,2091100,0,0,0,0,0,0,2081190,3161171,0,0,0,0,0,4090081,0,0,0
20,380,610.219147871248,0,0,778844.456413231,778845.503479895,1,50,16,1,0,22,7,0,5171231,2182122,5502473,0,0,0,0,0,0,0,0,0,2120071,0,0,0,0,0,0,3051160,0,0,1111101,0,-1071021,0,0,0,0,0,1170130,2081161,0,0,1131131,0,0,0,1120051
20,381,608.89179748483,1,0,778847.291740542,778848.338816059,1,50,16,0,1,29,7,4221352,3171010,4071081,5311371,0,0,0,1180150,2020011,1021191,0,0,0,0,0,0,0,3171010,0,0,0,0,0,0,0,0,0,0,0,0,4071081,2021170,-2170131,1120070,0,0,0,0,0,0
20,382,637.38055806607,0,0,778850.009421405,778851.056500772,1,50,16,0,0,16,3,0,6301262,1180010,2151020,0,0,0,0,0,0,0,0,0,3140061,0,0,0,0,0,-3161201,0,0,0,1180010,0,0,0,0,0,0,0,2151020,0,0,0,0,0,0,0,0
20,383,569.498205557466,0,0,778852.868298408,778853.915368536,1,50,16,0,0,24,3,0,0,10460522,4170170,0,0,0,0,0,0,0,0,0,0,0,0,0,0,0,0,0,0,4200161,0,0,4200191,0,-2060170,0,0,0,0,0,0,0,0,4170170,0,0,0
20,384,422.071833512746,0,0,778855.609515875,778856.656594472,1,50,16,1,0,21,3,0,4021080,4141171,3150131,0,0,0,0,0,0,0,0,0,0,0,0,0,0,0,4021080,0,0,0,0,-2041140,0,0,0,2100031,0,0,0,3150131,0,0,0,0,0,0,0
20,385,1086.3637952134,1,0,778861.280178965,778862.327258332,1,50,17,1,1,5,3,1080130,3091120,6322212,0,0,0,0,0,-1080130,0,0,0,0,0,0,3091120,0,0,0,0,0,0,3171151,0,0,0,0,0,0,0,3151061,0,0,0,0,0,0,0,0,0
20,386,955.463475896977,0,0,778864.480238557,778865.52730984,1,50,17,0,0,24,7,13312541,0,8272522,1150050,0,0,4131180,0,4020161,2090090,0,0,3071110,0,0,0,0,0,0,0,0,0,0,1081201,0,0,0,-3121151,4070170,0,0,0,0,0,0,0,0,0,0,1150050
20,387,845.292614190839,1,0,778867.621463954,778868.668522918,1,50,17,0,1,3,3,5312330,0,0,5141212,3191160,0,-2121170,0,0,0,0,0,0,0,0,0,0,0,0,0,0,0,0,0,0,0,0,0,0,0,0,0,0,0,0,2110091,0,3031121,0,0
20,388,539.123128983192,1,0,778870.680324712,778871.727402539,1,50,17,0,1,16,7,7280292,4231180,3060151,2121211,0,2090191,0,0,4030060,0,1160041,0,0,0,0,0,0,0,2181010,-2050170,0,0,3060151,0,0,0,0,0,0,0,0,0,0,1050181,0,0,0,0,1071030,0
20,389,633.273778716102,1,0,778873.327426175,778874.374490529,1,50,17,0,1,8,3,3160201,4170200,4121111,2161140,0,0,0,0,0,0,0,-3160201,0,0,0,0,0,0,0,0,4170200,0,0,0,0,0,0,0,4121111,0,0,0,0,0,0,0,0,0,2161140,0
20,390,725.506930379197,0,0,778876.092176396,778877.13924383,1,50,17,1,0,28,3,0,5230081,0,5222282,0,0,0,0,0,0,0,0,0,0,0,0,0,4040020,0,0,0,1190061,0,0,0,0,0,0,0,0,0,-3081201,0,0,0,0,0,2141081,0,0
20,391,821.326392237097,1,0,778879.045163628,778880.092224902,1,50,17,0,1,29,3,5281251,2061011,0,3160140,0,1160091,0,0,0,0,0,4121160,0,2061011,0,0,0,0,0,0,0,0,0,0,0,0,0,0,0,0,0,0,-3160140,0,0,0,0,0,0,0
20,392,1328.23377335444,0,0,778882.045200969,778883.092270327,1,50,17,1,0,12,7,6131381,6092141,7333461,4090081,0,0,0,0,0,3091191,0,0,3040190,0,0,-3041130,0,0,0,0,0,3051011,2091100,0,0,0,0,0,0,2081190,3161171,0,0,0,0,0,4090081,0,0,0
20,393,1024.30553955492,1,0,778885.445241621,778886.492320603,1,50,17,0,1,32,3,5201181,0,1051130,4140100,0,0,0,2191041,3010140,0,0,0,0,0,0,0,0,0,0,0,0,0,0,0,0,0,0,0,0,1051130,0,0,0,0,0,-4140100,0,0,0,0
20,394,694.438151433133,1,0,778888.55118598,778889.598250719,1,50,17,1,1,30,7,9300302,5192121,5350311,4161081,0,2070080,0,3140081,0,0,4090141,0,0,0,0,3091071,2101050,0,0,0,0,0,4150151,0,0,1200160,0,0,0,0,0,0,0,-4161081,0,0,0,0,0,0
20,395,1697.03241344541,0,0,778891.492431473,778892.539473883,1,50,17,0,0,13,7,1050160,9140233,6131172,6081212,0,1050160,0,0,0,0,0,0,0,0,3040111,0,-4090011,0,2010111,0,0,0,2031081,0,0,0,0,0,0,4100091,0,0,3020141,0,0,3061071,0,0,0,0
20,396,442.350115277804,0,0,778895.257166295,778896.304231033,1,50,17,1,0,21,3,0,4021080,4141171,3150131,0,0,0,0,0,0,0,0,0,0,0,0,0,0,0,4021080,0,0,0,0,-2041140,0,0,0,2100031,0,0,0,3150131,0,0,0,0,0,0,0
20,397,669.743580627255,0,0,778897.833676041,778898.880738469,1,50,17,1,0,33,7,0,12593380,6202170,6222312,0,0,0,0,0,0,0,0,0,0,1101120,3191190,4140010,0,0,0,0,4161060,0,0,0,4111090,2091080,0,0,0,0,0,0,3021181,0,0,-3201131,0,0,0
20,398,674.200290814042,1,0,778900.704302097,778901.751375305,1,50,17,1,1,19,3,1031161,3101161,3171130,2060040,0,1031161,0,0,0,0,0,0,0,0,3101161,0,0,0,0,0,0,0,-3171130,0,0,0,0,0,0,0,0,2060040,0,0,0,0,0,0,0,0
20,399,574.565851246007,1,0,778903.574940858,778904.62201907,1,50,17,1,1,27,3,1060010,0,5130171,4031170,0,0,0,0,1060010,0,0,0,0,0,0,0,0,0,0,0,0,0,0,2120051,0,0,0,0,0,0,-3010120,0,0,0,4031170,0,0,0,0,0
20,400,1053.64622210618,1,1,778906.23379792,778907.280868818,1,50,17,1,0,4,7,5351111,10442321,3111200,3220220,0,0,0,-1171050,0,0,4180061,0,0,0,0,4190100,2151030,0,0,0,4101191,0,0,0,0,0,0,3111200,0,0,0,1130070,0,0,0,0,0,2090150,0,0
20,401,1311.42438831739,0,0,778909.422084976,778910.469152024,1,50,17,1,0,35,7,6061110,5243333,6181081,3111021,0,3040060,0,0,0,0,0,3021050,0,0,0,2051161,0,0,0,0,1161011,2031161,0,0,0,0,0,2040071,4141010,0,0,0,0,0,0,0,0,0,-3111021,0
20,402,1227.89562237449,0,0,778912.963313683,778914.010370722,1,50,17,0,0,2,7,7181230,3180031,4120030,9431311,0,-4030040,0,3151190,0,0,0,0,0,0,0,0,0,3180031,0,0,0,0,0,0,4120030,0,0,0,0,0,0,0,0,0,1040050,0,3180161,4050060,0,1161040
20,403,1018.14036606811,1,0,778916.422179291,778917.469249419,1,50,17,0,1,34,3,5231322,0,3200180,2080020,0,0,0,2100141,0,0,0,0,3131181,0,0,0,0,0,0,0,0,0,0,0,0,3200180,0,0,0,0,0,0,0,0,0,0,0,-2080020,0,0
20,404,680.313879391178,1,0,778919.681054216,778920.728130118,1,50,17,0,1,18,3,1091130,3331191,0,2181171,0,0,0,0,0,1091130,0,0,0,0,0,0,2160090,0,0,0,0,-1171101,0,0,0,0,0,0,0,0,0,0,0,0,0,2181171,0,0,0,0
20,405,1378.25309846085,0,0,778922.481100103,778923.528167151,1,50,17,1,0,10,3,0,3351240,6301162,0,0,0,0,0,0,0,0,0,0,-1180100,0,2171140,0,0,0,0,0,0,0,0,0,0,0,0,4100151,0,2201011,0,0,0,0,0,0,0,0,0
20,406,685.587094980292,1,0,778925.951735938,778926.998809145,1,50,17,1,1,22,7,0,5171231,2182122,5502473,0,0,0,0,0,0,0,0,0,2120071,0,0,0,0,0,0,3051160,0,0,1111101,0,-1071021,0,0,0,0,0,1170130,2081161,0,0,1131131,0,0,0,1120051
20,407,478.081944165751,1,0,778928.728245991,778929.775313425,1,50,17,0,1,9,7,7532351,6162201,3031141,2031151,0,0,0,0,0,3161161,3170080,0,-1201110,0,2041071,1060060,3061070,0,0,0,0,0,0,0,0,0,0,0,3031141,0,0,0,0,0,0,0,0,0,2031151,0
20,408,621.906992630102,0,0,778931.281229142,778932.328293881,1,50,17,0,0,17,7,9431321,4212201,8181261,2171050,3051100,2180200,0,0,0,0,0,4200021,0,0,3051160,0,0,0,0,0,-1161041,0,0,4030140,0,0,0,0,0,4151121,0,0,0,0,0,0,0,0,0,2171050
20,409,553.502246155404,0,0,778937.210729045,778938.257796094,1,50,18,1,0,27,3,1060010,0,5130171,4031170,0,0,0,0,1060010,0,0,0,0,0,0,0,0,0,0,0,0,0,0,2120051,0,0,0,0,0,0,-3010120,0,0,0,4031170,0,0,0,0,0
20,410,622.725037741475,1,0,778939.881361339,778940.928477277,1,50,18,1,1,21,3,0,4021080,4141171,3150131,0,0,0,0,0,0,0,0,0,0,0,0,0,0,0,4021080,0,0,0,0,-2041140,0,0,0,2100031,0,0,0,3150131,0,0,0,0,0,0,0
20,411,567.704665591009,0,0,778942.728480434,778943.775529388,1,50,18,1,0,33,7,0,12593380,6202170,6222312,0,0,0,0,0,0,0,0,0,0,1101120,3191190,4140010,0,0,0,0,4161060,0,0,0,4111090,2091080,0,0,0,0,0,0,3021181,0,0,-3201131,0,0,0
20,412,1255.97555295099,1,0,778945.54027422,778946.587328179,1,50,18,0,1,9,7,11392282,4311120,5361171,2120190,0,0,0,4091110,0,0,0,4150061,-3151111,0,0,0,2140080,0,0,0,2171040,0,2170071,0,0,0,0,0,0,0,3191100,0,2120190,0,0,0,0,0,0,0
20,413,1436.46249955054,0,0,778948.916782888,778949.963852631,1,50,18,0,0,3,7,5220262,2201161,10393402,2181060,0,0,-1110010,0,0,0,0,2070081,2040171,0,0,0,0,2201161,0,0,0,0,2121111,4071171,0,0,0,0,0,0,4201120,0,0,2181060,0,0,0,0,0,0
20,414,845.767272869125,1,0,778952.4462841,778953.493318426,1,50,18,0,1,34,3,0,8200141,1190070,2091100,0,0,0,0,0,0,0,0,0,0,4020090,0,0,0,0,0,0,4180051,0,0,0,1190070,0,0,0,0,0,0,0,0,0,0,0,-2091100,0,0
20,415,556.755178957246,0,0,778955.399230525,778956.446299498,1,50,18,0,0,17,7,4170180,11421341,2071101,7321263,0,0,0,4170180,0,0,0,0,0,0,0,4201200,4100101,0,0,0,-3120040,0,0,0,0,0,0,0,0,0,2071101,0,0,0,0,4120051,1070141,0,2131071,0
20,416,797.562660765834,1,0,778958.081621881,778959.128695474,1,50,18,0,1,24,7,4112181,10202292,10211281,0,3081080,1031101,0,0,0,0,0,0,0,2080131,4011030,0,0,0,0,0,4111131,0,0,0,0,0,4061190,-2020021,0,4130070,0,0,0,0,0,0,0,0,0,0
20,417,685.654078377411,0,0,778960.94049157,778961.987552844,1,50,18,0,0,8,3,5202172,2011091,0,3130111,0,0,0,0,0,0,0,-2051101,3151071,0,0,0,0,0,2011091,0,0,0,0,0,0,0,0,0,0,0,0,0,0,0,0,3130111,0,0,0,0
20,418,538.77473808825,1,0,778963.75234541,778964.799367033,1,50,18,0,1,29,7,1090161,6251180,4162101,11312322,0,0,0,0,0,1090161,0,0,0,0,3160030,0,0,0,0,0,0,3091150,0,0,0,0,0,3131090,1031011,0,0,0,-4060111,0,4161150,3091061,0,0,0,0
20,419,780.581582337618,0,0,778966.340574568,778967.387665099,1,50,18,1,0,5,3,1080130,3091120,6322212,0,0,0,0,0,-1080130,0,0,0,0,0,0,3091120,0,0,0,0,0,0,3171151,0,0,0,0,0,0,0,3151061,0,0,0,0,0,0,0,0,0
20,420,577.852660557255,0,0,778969.211212173,778970.258268827,1,50,18,0,0,2,3,2061030,4160151,1161081,2101060,0,-2061030,0,0,0,0,0,0,0,0,0,0,0,4160151,0,0,0,0,0,0,0,1161081,0,0,0,0,0,0,0,0,0,2101060,0,0,0,0
20,421,765.624636551365,1,0,778972.011289628,778973.058304706,1,50,18,1,1,22,7,0,5171231,2182122,5502473,0,0,0,0,0,0,0,0,0,2120071,0,0,0,0,0,0,3051160,0,0,1111101,0,-1071021,0,0,0,0,0,1170130,2081161,0,0,1131131,0,0,0,1120051
20,422,970.718382624909,0,0,778974.870109271,778975.91717401,1,50,18,1,0,19,3,1031161,3101161,3171130,2060040,0,1031161,0,0,0,0,0,0,0,0,3101161,0,0,0,0,0,0,0,-3171130,0,0,0,0,0,0,0,0,2060040,0,0,0,0,0,0,0,0
20,423,1046.70457937755,1,0,778978.07015539,778979.117222438,1,50,18,1,1,35,7,6061110,5243333,6181081,3111021,0,3040060,0,0,0,0,0,3021050,0,0,0,2051161,0,0,0,0,1161011,2031161,0,0,0,0,0,2040071,4141010,0,0,0,0,0,0,0,0,0,-3111021,0
20,424,614.549590507522,0,0,778981.364324441,778982.411393029,1,50,18,1,0,10,3,0,3351240,6301162,0,0,0,0,0,0,0,0,0,0,-1180100,0,2171140,0,0,0,0,0,0,0,0,0,0,0,0,4100151,0,2201011,0,0,0,0,0,0,0,0,0
20,425,817.878283676691,1,0,778984.129099684,778985.176147099,1,50,18,0,1,32,3,0,0,3261031,6222291,0,0,0,0,0,0,0,0,0,0,0,0,0,0,0,0,0,0,0,2200011,0,0,0,0,1061020,0,0,0,4111201,0,0,-2111090,0,0,0,0
20,426,757.122740964405,0,0,778987.140891084,778988.187956977,1,50,18,1,0,30,7,9300302,5192121,5350311,4161081,0,2070080,0,3140081,0,0,4090141,0,0,0,0,3091071,2101050,0,0,0,0,0,4150151,0,0,1200160,0,0,0,0,0,0,0,-4161081,0,0,0,0,0,0
20,427,854.550190968439,1,0,778989.964511301,778991.011516371,1,50,18,1,1,12,7,6131381,6092141,7333461,4090081,0,0,0,0,0,3091191,0,0,3040190,0,0,-3041130,0,0,0,0,0,3051011,2091100,0,0,0,0,0,0,2081190,3161171,0,0,0,0,0,4090081,0,0,0
20,428,497.914054314606,0,0,778992.988044056,778994.03515268,1,50,18,1,0,28,3,0,5230081,0,5222282,0,0,0,0,0,0,0,0,0,0,0,0,0,4040020,0,0,0,1190061,0,0,0,0,0,0,0,0,0,-3081201,0,0,0,0,0,2141081,0,0
20,429,668.226443696767,1,0,778995.658660565,778996.705719914,1,50,18,0,1,16,3,1171080,10272162,0,0,1171080,0,0,0,0,0,0,0,0,4061061,0,0,0,0,0,-3171060,3040041,0,0,0,0,0,0,0,0,0,0,0,0,0,0,0,0,0,0,0
20,430,583.772998070344,1,0,778998.494018673,778999.541116903,1,50,18,0,1,18,3,0,5360090,3201101,3161041,0,0,0,0,0,0,0,0,0,0,0,0,0,0,0,0,2180040,-3180050,0,0,0,0,0,0,0,3201101,0,0,0,0,3161041,0,0,0,0,0
20,431,1419.07143627759,1,0,779001.164613239,779002.211687217,1,50,18,0,1,13,7,7192223,9472361,0,5211221,2011031,0,2040091,0,0,0,3141101,0,0,0,0,0,-4131180,0,0,4140110,1201071,0,0,0,0,0,0,0,0,0,0,0,0,0,0,0,0,2170111,3041110,0
20,432,1810.65022875555,0,0,779004.635259083,779005.682323052,1,50,18,1,0,4,7,5351111,10442321,3111200,3220220,0,0,0,-1171050,0,0,4180061,0,0,0,0,4190100,2151030,0,0,0,4101191,0,0,0,0,0,0,3111200,0,0,0,1130070,0,0,0,0,0,2090150,0,0
20,433,780.366773367859,0,0,779011.588318688,779012.635357634,1,50,19,1,0,5,3,1080130,3091120,6322212,0,0,0,0,0,-1080130,0,0,0,0,0,0,3091120,0,0,0,0,0,0,3171151,0,0,0,0,0,0,0,3151061,0,0,0,0,0,0,0,0,0
20,434,967.530508642085,0,0,779014.553054203,779015.600117017,1,50,19,0,0,9,3,1060181,2111130,4131100,1040031,0,0,0,0,0,0,0,0,-1060181,0,0,0,0,0,2111130,0,0,0,0,4131100,0,0,0,0,0,0,0,0,0,0,0,0,1040031,0,0,0
20,435,666.049481020309,0,0,779017.682501674,779018.729574497,1,50,19,0,0,29,3,0,3151020,2091100,1070101,0,0,0,0,0,0,0,0,0,0,0,0,3151020,0,0,0,0,0,0,1060050,0,0,1031050,0,0,0,0,0,-1070101,0,0,0,0,0,0,0
20,436,1133.6741396226,1,0,779020.564911046,779021.612000037,1,50,19,1,1,33,7,0,12593380,6202170,6222312,0,0,0,0,0,0,0,0,0,0,1101120,3191190,4140010,0,0,0,0,4161060,0,0,0,4111090,2091080,0,0,0,0,0,0,3021181,0,0,-3201131,0,0,0
20,437,1018.84985191282,1,0,779023.929660267,779024.976722695,1,50,19,0,1,24,7,2180241,4221282,7231082,8151261,0,1130161,0,0,0,1050080,0,0,0,2071201,0,0,0,2150081,0,0,0,0,0,0,0,3131051,0,-4100031,0,0,0,0,0,0,0,0,4100181,0,0,4051080
20,438,1120.60004507657,0,0,779027.059115822,779028.106184025,1,50,19,0,0,13,3,0,7242091,2150020,3161170,0,0,0,0,0,0,0,0,0,0,4061031,0,-3181060,0,0,0,0,0,0,0,0,0,0,0,0,2150020,0,0,0,0,0,3161170,0,0,0,0
20,439,481.873824261129,0,0,779030.329756353,779031.376820322,1,50,19,1,0,27,3,1060010,0,5130171,4031170,0,0,0,0,1060010,0,0,0,0,0,0,0,0,0,0,0,0,0,0,2120051,0,0,0,0,0,0,-3010120,0,0,0,4031170,0,0,0,0,0
20,440,416.470629977994,0,0,779033.012142319,779034.059212832,1,50,19,1,0,28,3,0,5230081,0,5222282,0,0,0,0,0,0,0,0,0,0,0,0,0,4040020,0,0,0,1190061,0,0,0,0,0,0,0,0,0,-3081201,0,0,0,0,0,2141081,0,0
20,441,600.209739408456,1,0,779035.659238394,779036.70632238,1,50,19,1,1,19,3,1031161,3101161,3171130,2060040,0,1031161,0,0,0,0,0,0,0,0,3101161,0,0,0,0,0,0,0,-3171130,0,0,0,0,0,0,0,0,2060040,0,0,0,0,0,0,0,0
20,442,860.106738866307,0,0,779038.494583413,779039.541649306,1,50,19,0,0,3,3,8091361,2190051,2111040,0,0,0,-4050161,0,0,0,0,0,4041200,2190051,0,0,0,0,0,0,0,0,0,0,0,0,2111040,0,0,0,0,0,0,0,0,0,0,0,0,0
20,443,1787.79269882943,1,0,779041.58875562,779042.635865784,1,50,19,1,1,30,7,9300302,5192121,5350311,4161081,0,2070080,0,3140081,0,0,4090141,0,0,0,0,3091071,2101050,0,0,0,0,0,4150151,0,0,1200160,0,0,0,0,0,0,0,-4161081,0,0,0,0,0,0
20,444,582.763626473024,1,0,779045.494675419,779046.541764025,1,50,19,0,1,17,7,0,4251110,12592705,3050191,0,0,0,0,0,0,0,0,0,0,0,0,0,1191070,0,0,-3060040,0,2140151,0,0,4110181,3120051,2071121,1151201,0,0,0,0,0,0,0,0,0,0,3050191
20,445,1061.94408761803,1,0,779048.306488453,779049.353550882,1,50,19,0,1,8,7,6321390,3070130,6262351,8120301,0,0,1070010,2140190,0,0,0,-3111190,0,0,0,3070130,0,0,0,0,0,0,0,0,0,0,0,0,2191160,4071191,0,4080110,4040191,0,0,0,0,0,0,0
20,446,871.523570036516,1,0,779051.588885737,779052.635958175,1,50,19,1,1,21,3,0,4021080,4141171,3150131,0,0,0,0,0,0,0,0,0,0,0,0,0,0,0,4021080,0,0,0,0,-2041140,0,0,0,2100031,0,0,0,3150131,0,0,0,0,0,0,0
20,447,572.7453638101,1,1,779054.694817008,779055.741886751,1,50,19,0,0,16,3,0,3060031,5220090,2041110,0,0,0,0,0,0,0,0,0,0,0,0,0,0,0,-3060031,0,0,0,0,2120040,0,0,0,0,3100050,0,0,0,0,0,0,2041110,0,0,0
20,448,423.409963026643,0,0,779057.377208364,779058.424276567,1,50,19,1,0,10,3,0,3351240,6301162,0,0,0,0,0,0,0,0,0,0,-1180100,0,2171140,0,0,0,0,0,0,0,0,0,0,0,0,4100151,0,2201011,0,0,0,0,0,0,0,0,0
20,449,586.143596679904,1,0,779059.9301919,779060.977250479,1,50,19,1,1,22,7,0,5171231,2182122,5502473,0,0,0,0,0,0,0,0,0,2120071,0,0,0,0,0,0,3051160,0,0,1111101,0,-1071021,0,0,0,0,0,1170130,2081161,0,0,1131131,0,0,0,1120051
20,450,819.821574143134,0,0,779062.753762457,779063.800832585,1,50,19,1,0,12,7,6131381,6092141,7333461,4090081,0,0,0,0,0,3091191,0,0,3040190,0,0,-3041130,0,0,0,0,0,3051011,2091100,0,0,0,0,0,0,2081190,3161171,0,0,0,0,0,4090081,0,0,0
20,451,536.108488216996,0,0,779065.683218474,779066.730291682,1,50,19,0,0,18,3,5141201,5311331,0,0,2070181,0,0,0,3071020,0,0,0,0,0,0,0,0,0,1121140,0,0,-4190191,0,0,0,0,0,0,0,0,0,0,0,0,0,0,0,0,0,0
20,452,892.269965959713,1,0,779068.436200393,779069.483260897,1,50,19,0,1,2,7,10471492,2150030,3363272,0,4160020,-2180091,0,1060180,3071201,0,0,0,0,0,0,2150030,0,0,0,0,0,0,0,0,1161090,0,0,0,0,1181111,1021071,0,0,0,0,0,0,0,0,0
20,453,879.75522200577,0,0,779071.424487526,779072.471558424,1,50,19,1,0,35,7,6061110,5243333,6181081,3111021,0,3040060,0,0,0,0,0,3021050,0,0,0,2051161,0,0,0,0,1161011,2031161,0,0,0,0,0,2040071,4141010,0,0,0,0,0,0,0,0,0,-3111021,0
20,454,702.170122181997,1,0,779074.542172855,779075.589238363,1,50,19,0,1,34,7,1091030,6352180,2191060,4332331,0,0,0,1091030,0,0,0,0,0,0,0,0,2201120,0,0,4151060,0,0,1151020,0,0,1040040,0,0,0,0,0,0,1100091,0,0,0,1071090,-2161150,0,0
20,455,1248.60621674452,1,0,779077.459868654,779078.506918379,1,50,19,1,1,4,7,5351111,10442321,3111200,3220220,0,0,0,-1171050,0,0,4180061,0,0,0,0,4190100,2151030,0,0,0,4101191,0,0,0,0,0,0,3111200,0,0,0,1130070,0,0,0,0,0,2090150,0,0
20,456,1014.19912057463,1,0,779080.848147549,779081.895208823,1,50,19,0,1,32,7,8201081,0,6131220,6203411,3041041,0,0,3100020,0,0,0,0,2060020,0,0,0,0,0,0,0,0,0,2020050,0,0,0,4111170,0,0,0,0,0,0,1021140,1061101,-4121170,0,0,0,0
20,457,847.640885040164,1,0,779087.083540534,779088.130604502,1,50,20,0,1,2,3,3221311,2190131,2080140,0,0,-2040161,0,0,0,1181150,0,0,0,0,0,0,0,0,2190131,0,0,0,0,2080140,0,0,0,0,0,0,0,0,0,0,0,0,0,0,0,0
20,458,637.832119013183,0,0,779090.095345407,779091.142456341,1,50,20,1,0,21,3,0,4021080,4141171,3150131,0,0,0,0,0,0,0,0,0,0,0,0,0,0,0,4021080,0,0,0,0,-2041140,0,0,0,2100031,0,0,0,3150131,0,0,0,0,0,0,0
20,459,799.49940671213,1,0,779092.930682342,779093.977751315,1,50,20,1,1,12,7,6131381,6092141,7333461,4090081,0,0,0,0,0,3091191,0,0,3040190,0,0,-3041130,0,0,0,0,0,3051011,2091100,0,0,0,0,0,0,2081190,3161171,0,0,0,0,0,4090081,0,0,0
20,460,414.163934998214,1,0,779095.966023819,779097.013087017,1,50,20,1,1,22,7,0,5171231,2182122,5502473,0,0,0,0,0,0,0,0,0,2120071,0,0,0,0,0,0,3051160,0,0,1111101,0,-1071021,0,0,0,0,0,1170130,2081161,0,0,1131131,0,0,0,1120051
20,461,504.556196392514,1,0,779098.542546268,779099.589593683,1,50,20,0,1,16,7,8190192,4212110,6472383,0,0,0,0,0,4100111,0,0,4090081,0,0,0,0,0,3121040,0,-1091070,0,0,1171161,0,0,2071091,0,2200121,0,1030010,0,0,0,0,0,0,0,0,0,0
20,462,717.370749218389,0,0,779101.283746412,779102.33081346,1,50,20,1,0,4,7,5351111,10442321,3111200,3220220,0,0,0,-1171050,0,0,4180061,0,0,0,0,4190100,2151030,0,0,0,4101191,0,0,0,0,0,0,3111200,0,0,0,1130070,0,0,0,0,0,2090150,0,0
20,463,385.230927728117,1,0,779104.177899063,779105.22497766,1,50,20,1,1,10,3,0,3351240,6301162,0,0,0,0,0,0,0,0,0,0,-1180100,0,2171140,0,0,0,0,0,0,0,0,0,0,0,0,4100151,0,2201011,0,0,0,0,0,0,0,0,0
20,464,1393.03719613235,1,0,779106.625002529,779107.672071887,1,50,20,0,1,32,7,6301190,4391512,2050191,4170241,0,0,0,3170090,0,0,3131100,0,0,1080161,0,0,0,0,0,1131201,2180150,0,0,0,0,0,0,2050191,0,0,0,2060111,0,0,0,-2110130,0,0,0,0
