sub_id,Trial,RT,Resp,Error,Fix_onset,Disp_onset,q1,q2,block,repeat,tid,tloc,d_setsize,quad1,quad2,quad3,quad4,loc1,loc2,loc3,loc4,loc5,loc6,loc7,loc8,loc9,loc10,loc11,loc12,loc13,loc14,loc15,loc16,loc17,loc18,loc19,loc20,loc21,loc22,loc23,loc24,loc25,loc26,loc27,loc28,loc29,loc30,loc31,loc32,loc33,loc34,loc35,loc36
2,1,740.151516918559,0,0,507818.157620551,507819.204700688,0,30,1,0,0,27,3,4190060,0,6280270,1111061,0,0,0,4190060,0,0,0,0,0,0,0,0,0,0,0,0,0,0,4200200,0,0,0,0,0,0,0,-2080070,0,0,0,1111061,0,0,0,0,0
2,2,1165.38411128568,1,0,507820.981199963,507822.028278175,0,30,1,0,1,4,3,5200231,0,2121051,1191051,0,0,0,-3020111,2180120,0,0,0,0,0,0,0,0,0,0,0,0,0,0,0,0,0,2121051,0,0,0,0,0,0,0,0,0,0,1191051,0,0
2,3,1528.08648598148,1,0,507824.263609951,507825.310677769,0,30,1,0,1,26,7,4243421,5202321,5220102,0,0,2071111,0,0,1021120,1151190,0,0,0,0,0,0,3131161,1041070,0,0,0,1030090,0,0,3040011,0,0,0,0,-2180091,0,0,0,0,0,0,0,0,0,0
2,4,763.957209419459,0,0,507828.016606114,507829.063675857,0,30,1,1,0,15,7,1010201,4361332,1020080,6292482,0,0,0,0,1010201,0,0,0,0,0,0,2171181,0,0,-2190151,0,0,0,0,1020080,0,0,0,0,0,0,0,0,1120190,1111061,3020120,0,1041111,0,0,0
2,5,1122.59669054765,1,0,507830.851949593,507831.899018566,0,30,1,1,1,1,3,3050121,2181111,8301112,0,-3050121,0,0,0,0,0,0,0,0,0,0,0,0,0,0,0,0,2181111,0,4161041,0,0,0,0,0,4140071,0,0,0,0,0,0,0,0,0,0
2,6,1329.25800373778,0,0,507834.040233569,507835.087305236,0,30,1,0,0,2,7,1031081,5161210,1200170,12502362,0,-1031081,0,0,0,0,0,0,0,0,0,0,3050010,0,0,2111200,0,0,0,0,0,0,0,0,1200170,0,0,2130120,0,0,0,0,2190121,4021060,0,4161061
2,7,838.627219665796,0,0,507837.463858175,507838.510881722,0,30,1,1,0,22,3,3151160,4122232,1110070,0,3151160,0,0,0,0,0,0,0,0,0,2071201,0,0,0,0,0,0,2051031,0,0,0,-1110070,0,0,0,0,0,0,0,0,0,0,0,0,0,0
2,8,1180.68213376682,1,0,507840.522716623,507841.569815238,0,30,1,0,1,30,3,0,6191331,4191010,2021160,0,0,0,0,0,0,0,0,0,0,0,0,0,3111140,0,0,0,3080191,0,0,0,0,0,0,4191010,0,0,0,0,-2021160,0,0,0,0,0,0
2,9,535.823076206725,0,0,507843.922744186,507844.969807384,0,30,1,0,0,24,3,5150192,0,2040010,4170150,0,3070161,0,0,0,0,2080031,0,0,0,0,0,0,0,0,0,0,0,0,0,0,0,0,-2040010,0,0,0,0,0,0,4170150,0,0,0,0,0
2,10,1087.15011872118,0,0,507846.546312511,507847.593376094,0,30,1,1,0,19,3,0,6201210,3131021,2201130,0,0,0,0,0,0,0,0,0,0,0,2091110,0,0,4110100,0,0,0,-3131021,0,0,0,0,0,0,0,0,0,0,0,0,0,0,2201130,0,0
2,11,1356.11221380532,0,0,507849.840478097,507850.88754476,0,30,1,1,0,31,7,4132261,10412384,3080200,3050120,3081100,0,0,1051161,0,0,0,0,0,4120011,4101161,0,1041061,1150151,0,0,0,0,0,0,0,0,0,3080200,0,0,0,0,0,0,-3050120,0,0,0,0,0
2,12,894.475646084175,1,0,507853.417005936,507854.464077603,0,30,1,0,1,9,7,9400282,2080070,5190191,5291371,1100100,0,0,0,0,4200071,0,0,-4100111,0,0,2080070,0,0,0,0,0,0,1090171,0,0,0,0,0,0,0,4100020,3151191,0,2140180,0,0,0,0,0,0
2,13,1358.92551933648,1,0,507856.452350108,507857.499409457,0,30,1,1,1,25,7,4211340,4051131,1140080,10392303,3191190,0,0,0,0,0,1020150,0,0,0,0,0,0,0,0,0,1031091,3020040,0,0,0,0,0,0,-1140080,0,0,0,0,0,0,4191131,2060041,4141131,0,0
2,14,1471.84193320572,0,0,507860.040642399,507861.087703673,0,30,1,1,0,32,7,5201140,2182211,4261110,5162171,2171020,0,0,0,0,0,0,3030120,0,1151160,0,0,1031051,0,0,0,0,0,0,0,1150040,0,0,0,3111070,0,0,0,1081161,0,0,-4081010,0,0,0,0
2,15,1430.73333374923,1,0,507863.640687208,507864.687758106,0,30,1,1,1,11,7,5210251,6372361,2051011,3332102,0,0,3190121,0,0,0,0,2020130,0,2111041,-1101160,0,0,3160160,0,0,0,0,0,0,0,2051011,0,0,0,0,0,0,2201071,0,0,0,0,1131031,0,0
2,16,1247.87463346729,1,0,507867.252551905,507868.299583152,0,30,1,1,1,33,7,4180040,7262281,8261230,2232111,0,4180040,0,0,0,0,0,0,0,0,1060101,2081080,0,0,4121100,0,0,0,0,4100200,0,0,0,0,0,4161030,0,0,0,1121030,0,0,-1111081,0,0,0
2,17,984.69005478546,1,0,507870.746697781,507871.793755975,0,30,1,0,1,13,7,7131192,4181380,11260292,3121040,0,0,4111041,0,0,3020151,0,0,0,0,0,0,-1160200,0,0,3021180,0,0,0,0,0,0,3010040,4080201,0,4170051,0,0,0,0,0,0,0,0,0,3121040
2,18,503.768408438191,0,0,507873.864379645,507874.911448618,0,30,1,0,0,16,7,9373431,3160140,4071200,5191271,0,0,4161180,2081140,0,0,0,0,3131111,0,0,0,0,0,0,-1110110,0,2050030,0,0,0,0,0,0,0,0,4071200,0,0,0,0,1181101,4010170,0,0,0
2,19,1090.34184238408,1,0,507876.44089478,507877.487966063,0,30,1,0,1,12,3,0,1121061,2160040,5232321,0,0,0,0,0,0,0,0,0,0,0,-1121061,0,0,0,0,0,0,0,0,0,2160040,0,0,0,0,0,0,0,0,1041141,4191180,0,0,0,0
2,20,940.581443021074,0,0,507879.758585421,507880.805663633,0,30,1,1,0,3,3,4200111,1191100,0,6390132,0,0,-4200111,0,0,0,0,0,0,0,0,0,1191100,0,0,0,0,0,0,0,0,0,0,0,0,0,0,0,0,2190061,0,0,4200071,0,0,0
2,21,483.798866684083,1,0,507882.770488075,507883.817476976,0,30,1,1,1,21,3,6162130,0,4140091,2100031,0,0,2111050,4051080,0,0,0,0,0,0,0,0,0,0,0,0,0,0,0,0,-4140091,0,0,0,0,0,0,0,0,0,0,0,2100031,0,0,0
2,22,571.245780331083,0,0,507885.346904275,507886.393984412,0,30,1,1,0,18,3,0,3131020,9302283,0,0,0,0,0,0,0,0,0,0,0,0,0,0,0,0,0,0,-3131020,0,0,3030031,0,0,2171101,0,0,4101151,0,0,0,0,0,0,0,0,0
2,23,1003.20405350067,1,0,507888.099898128,507889.146964791,0,30,1,0,1,20,7,6381332,6282282,8220111,3141130,3180071,0,0,0,0,0,1191160,2010101,0,0,0,0,0,2091081,0,4191201,0,0,0,-4170050,0,0,0,0,0,4050061,0,0,0,0,0,0,0,3141130,0,0
2,24,911.216892767698,0,0,507891.346997821,507892.394072953,0,30,1,0,0,8,3,3150021,1101120,2101080,3070100,0,0,0,0,0,0,0,-3150021,0,0,0,0,0,0,0,1101120,0,0,0,0,2101080,0,0,0,0,0,0,0,0,3070100,0,0,0,0,0,0
2,25,796.343714813702,1,0,507909.17080282,507910.217877568,0,30,2,0,1,9,7,1011160,1091040,5331501,7291561,0,0,0,0,0,0,0,0,-1011160,0,0,0,0,0,1091040,0,0,0,0,0,0,1091160,0,2140180,0,2100161,0,0,2121190,0,0,0,0,3060190,2110181,0
2,26,1402.26305130636,1,0,507912.170858255,507913.217922608,0,30,2,0,1,30,7,4191131,3180050,4020150,9481322,0,0,3081120,0,0,0,0,0,1110011,0,0,0,0,0,3180050,0,0,0,0,4020150,0,0,0,0,0,0,0,0,2141130,-3060021,3170150,0,0,0,0,1110021
2,27,838.609126396477,0,0,507915.747387249,507916.794448138,0,30,2,1,0,18,3,0,3131020,9302283,0,0,0,0,0,0,0,0,0,0,0,0,0,0,0,0,0,0,-3131020,0,0,3030031,0,0,2171101,0,0,4101151,0,0,0,0,0,0,0,0,0
2,28,550.254933186807,1,0,507918.735683236,507919.782734115,0,30,2,1,1,11,7,5210251,6372361,2051011,3332102,0,0,3190121,0,0,0,0,2020130,0,2111041,-1101160,0,0,3160160,0,0,0,0,0,0,0,2051011,0,0,0,0,0,0,2201071,0,0,0,0,1131031,0,0
2,29,441.668191924691,1,0,507921.406282422,507922.453358709,0,30,2,0,1,16,7,3152302,11544573,4081160,3200201,0,0,0,1141151,0,0,0,0,2011151,0,1161101,0,4061151,0,0,-3201141,0,3121180,0,0,0,0,4081160,0,0,0,0,0,0,0,0,0,3200201,0,0,0
2,30,748.205316194799,0,0,507924.029859986,507925.076928959,0,30,2,0,0,2,3,4132121,0,2100150,2130130,0,-1111090,0,0,0,0,0,0,3021031,0,0,0,0,0,0,0,0,0,0,0,0,0,2100150,0,0,0,0,0,0,0,0,0,0,0,0,2130130
2,31,642.342184204608,0,0,507926.900495667,507927.947563485,0,30,2,0,0,8,3,5322301,3051171,3100050,0,0,0,0,0,0,3141171,0,-2181130,0,0,3051171,0,0,0,0,0,0,0,0,0,0,3100050,0,0,0,0,0,0,0,0,0,0,0,0,0,0
2,32,581.21361292433,0,0,507929.59465186,507930.641724682,0,30,2,0,0,13,3,0,3050011,3180190,5341050,0,0,0,0,0,0,0,0,0,0,0,0,-3050011,0,0,0,0,0,0,0,3180190,0,0,0,0,0,0,0,3161010,0,0,0,0,0,2180040,0
2,33,1571.62804808468,1,0,507932.265277993,507933.312355436,0,30,2,0,1,4,3,3040021,0,9273362,0,0,0,0,-3040021,0,0,0,0,0,0,0,0,0,0,0,0,0,0,4091160,0,2091011,0,3091191,0,0,0,0,0,0,0,0,0,0,0,0,0
2,34,1104.26323919091,0,0,507935.994748331,507937.041819229,0,30,2,0,0,26,7,6082171,2181131,11403322,2111170,0,0,0,3011050,0,0,0,3071121,0,0,0,0,0,0,0,0,2181131,0,0,0,3091110,0,0,1011141,3141061,-4160010,0,0,2111170,0,0,0,0,0,0,0
2,35,1033.43784890603,1,0,507939.206562367,507940.253635189,0,30,2,1,1,19,3,0,6201210,3131021,2201130,0,0,0,0,0,0,0,0,0,0,0,2091110,0,0,4110100,0,0,0,-3131021,0,0,0,0,0,0,0,0,0,0,0,0,0,0,2201130,0,0
2,36,421.080400468782,1,0,507942.441908386,507943.488974665,0,30,2,1,1,15,7,1010201,4361332,1020080,6292482,0,0,0,0,1010201,0,0,0,0,0,0,2171181,0,0,-2190151,0,0,0,0,1020080,0,0,0,0,0,0,0,0,1120190,1111061,3020120,0,1041111,0,0,0
2,37,1261.74367539352,0,0,507944.983132474,507946.030197598,0,30,2,0,0,24,7,1090060,9351163,7171292,4192231,0,0,0,1090060,0,0,0,0,0,0,1170011,4170071,0,0,0,0,4011081,0,0,0,0,0,0,-3130171,0,0,4041121,0,0,0,1111191,3081040,0,0,0,0
2,38,764.705961395521,1,0,507948.43023748,507949.477309918,0,30,2,1,1,3,3,4200111,1191100,0,6390132,0,0,-4200111,0,0,0,0,0,0,0,0,0,1191100,0,0,0,0,0,0,0,0,0,0,0,0,0,0,0,0,2190061,0,0,4200071,0,0,0
2,39,737.142650468741,0,0,507951.253806498,507952.300878165,0,30,2,0,0,27,7,5171242,9262313,5231301,3051181,0,0,0,0,0,1021091,0,4150151,0,2060071,0,4141051,0,0,0,0,3061191,0,4101161,0,0,0,0,0,0,0,-1130140,0,0,0,0,0,0,0,3051181,0
2,40,779.78878992144,0,0,507954.147975702,507955.195043905,0,30,2,0,0,20,3,6032120,4190100,3140011,0,0,0,4011060,0,0,0,2021060,0,0,0,4190100,0,0,0,0,0,0,0,0,-3140011,0,0,0,0,0,0,0,0,0,0,0,0,0,0,0,0
2,41,851.413747179322,0,0,507957.124478365,507958.171567741,0,30,2,1,0,25,7,4211340,4051131,1140080,10392303,3191190,0,0,0,0,0,1020150,0,0,0,0,0,0,0,0,0,1031091,3020040,0,0,0,0,0,0,-1140080,0,0,0,0,0,0,4191131,2060041,4141131,0,0
2,42,887.077822815627,0,0,507960.065712308,507961.112780511,0,30,2,1,0,32,7,5201140,2182211,4261110,5162171,2171020,0,0,0,0,0,0,3030120,0,1151160,0,0,1031051,0,0,0,0,0,0,0,1150040,0,0,0,3111070,0,0,0,1081161,0,0,-4081010,0,0,0,0
2,43,482.451498159207,0,0,507963.042226519,507964.089300497,0,30,2,1,0,21,3,6162130,0,4140091,2100031,0,0,2111050,4051080,0,0,0,0,0,0,0,0,0,0,0,0,0,0,0,0,-4140091,0,0,0,0,0,0,0,0,0,0,0,2100031,0,0,0
2,44,927.643240254838,1,0,507965.606972198,507966.654077742,0,30,2,1,1,31,7,4132261,10412384,3080200,3050120,3081100,0,0,1051161,0,0,0,0,0,4120011,4101161,0,1041061,1150151,0,0,0,0,0,0,0,0,0,3080200,0,0,0,0,0,0,-3050120,0,0,0,0,0
2,45,466.694215429015,1,0,507968.607066514,507969.654086211,0,30,2,1,1,22,3,3151160,4122232,1110070,0,3151160,0,0,0,0,0,0,0,0,0,2071201,0,0,0,0,0,0,2051031,0,0,0,-1110070,0,0,0,0,0,0,0,0,0,0,0,0,0,0
2,46,1210.9020705102,0,0,507971.124705108,507972.171770616,0,30,2,0,0,12,3,0,1061020,0,10391422,0,0,0,0,0,0,0,0,0,0,0,-1061020,0,0,0,0,0,0,0,0,0,0,0,0,0,0,0,3160191,0,0,3141140,0,0,4090091,0,0
2,47,938.963060849346,1,0,507974.524758079,507975.571833596,0,30,2,1,1,33,7,4180040,7262281,8261230,2232111,0,4180040,0,0,0,0,0,0,0,0,1060101,2081080,0,0,4121100,0,0,0,0,4100200,0,0,0,0,0,4161030,0,0,0,1121030,0,0,-1111081,0,0,0
2,48,1176.78631382296,0,0,507977.666009268,507978.713047829,0,30,2,1,0,1,3,3050121,2181111,8301112,0,-3050121,0,0,0,0,0,0,0,0,0,0,0,0,0,0,0,0,2181111,0,4161041,0,0,0,0,0,4140071,0,0,0,0,0,0,0,0,0,0
2,49,955.33974817954,0,0,508000.678092084,508001.725167602,0,30,3,0,0,2,3,4081171,3111170,3151150,2131100,0,-4081171,0,0,0,0,0,0,0,0,0,0,0,3111170,0,0,0,0,0,0,0,3151150,0,0,0,0,0,0,0,2131100,0,0,0,0,0,0
2,50,942.122447653674,0,0,508003.819324411,508004.866397233,0,30,3,0,0,4,3,1170080,2121060,4100160,1050081,0,0,0,-1170080,0,0,0,0,0,0,0,0,0,0,0,0,2121060,0,0,0,0,0,0,0,4100160,0,0,0,0,0,0,0,0,0,0,1050081
2,51,1530.32350278227,0,1,508006.831132364,508007.878203261,0,30,3,1,1,31,7,4132261,10412384,3080200,3050120,3081100,0,0,1051161,0,0,0,0,0,4120011,4101161,0,1041061,1150151,0,0,0,0,0,0,0,0,0,3080200,0,0,0,0,0,0,-3050120,0,0,0,0,0
2,52,909.439521201421,1,0,508010.584152009,508011.631198654,0,30,3,1,1,18,3,0,3131020,9302283,0,0,0,0,0,0,0,0,0,0,0,0,0,0,0,0,0,0,-3131020,0,0,3030031,0,0,2171101,0,0,4101151,0,0,0,0,0,0,0,0,0
2,53,843.579376523849,1,0,508013.643005837,508014.69007327,0,30,3,1,1,1,3,3050121,2181111,8301112,0,-3050121,0,0,0,0,0,0,0,0,0,0,0,0,0,0,0,0,2181111,0,4161041,0,0,0,0,0,4140071,0,0,0,0,0,0,0,0,0,0
2,54,777.191833301913,0,0,508016.631286426,508017.678354244,0,30,3,0,0,16,7,5262352,5232141,3160132,3080151,2141041,1021141,0,0,0,0,0,2100170,0,2051020,0,0,0,0,0,-3181121,0,0,0,0,0,2150061,0,0,0,0,1010071,0,0,3080151,0,0,0,0,0,0
2,55,693.087548483163,1,0,508019.631332621,508020.678398129,0,30,3,1,1,11,7,5210251,6372361,2051011,3332102,0,0,3190121,0,0,0,0,2020130,0,2111041,-1101160,0,0,3160160,0,0,0,0,0,0,0,2051011,0,0,0,0,0,0,2201071,0,0,0,0,1131031,0,0
2,56,419.136340147816,0,0,508022.478434393,508023.525502596,0,30,3,1,0,21,3,6162130,0,4140091,2100031,0,0,2111050,4051080,0,0,0,0,0,0,0,0,0,0,0,0,0,0,0,0,-4140091,0,0,0,0,0,0,0,0,0,0,0,2100031,0,0,0
2,57,684.984089049976,0,0,508025.13729338,508026.184365047,0,30,3,0,0,24,3,0,1080151,8201172,2030110,0,0,0,0,0,0,0,0,0,0,0,0,0,0,1080151,0,0,0,0,0,0,0,0,-4050031,0,0,4151141,0,0,0,0,0,0,2030110,0,0
2,58,1448.38386180345,1,0,508028.054988794,508029.102054302,0,30,3,0,1,27,7,8251101,3161082,9210380,3050040,0,0,0,4141040,4110061,0,0,0,0,0,0,0,0,0,0,0,2020061,1141021,0,0,0,0,4020150,0,0,4060130,-1130100,0,0,0,0,3050040,0,0,0,0
2,59,992.041297547985,1,0,508031.596225586,508032.643293019,0,30,3,0,1,30,3,1041071,3060091,2151071,2081010,1041071,0,0,0,0,0,0,0,0,0,0,0,0,0,0,0,3060091,0,0,0,0,0,0,2151071,0,0,0,0,0,-2081010,0,0,0,0,0,0
2,60,988.273285154719,0,0,508034.808037312,508035.855110904,0,30,3,0,0,9,3,3040201,1021141,3080150,4110190,0,0,0,0,0,0,0,0,-3040201,0,0,0,0,0,0,0,0,1021141,0,0,0,0,0,3080150,0,0,0,0,0,0,0,4110190,0,0,0,0
2,61,1060.98114181077,1,0,508037.949275413,508038.996338226,0,30,3,1,1,19,3,0,6201210,3131021,2201130,0,0,0,0,0,0,0,0,0,0,0,2091110,0,0,4110100,0,0,0,-3131021,0,0,0,0,0,0,0,0,0,0,0,0,0,0,2201130,0,0
2,62,965.467340138275,0,0,508041.125783002,508042.172846586,0,30,3,1,0,33,7,4180040,7262281,8261230,2232111,0,4180040,0,0,0,0,0,0,0,0,1060101,2081080,0,0,4121100,0,0,0,0,4100200,0,0,0,0,0,4161030,0,0,0,1121030,0,0,-1111081,0,0,0
2,63,651.833048323169,0,0,508044.149348863,508045.196470191,0,30,3,0,0,20,7,3260180,0,8481522,5210241,0,0,0,2140070,0,0,0,1120110,0,0,0,0,0,0,0,0,0,0,0,-3120031,1150120,3150191,1061180,0,0,0,0,0,0,2140110,0,0,0,3070131,0,0
2,64,569.415668898728,0,0,508046.878805728,508047.92588394,0,30,3,1,0,15,7,1010201,4361332,1020080,6292482,0,0,0,0,1010201,0,0,0,0,0,0,2171181,0,0,-2190151,0,0,0,0,1020080,0,0,0,0,0,0,0,0,1120190,1111061,3020120,0,1041111,0,0,0
2,65,1174.53466850566,1,0,508049.690611063,508050.73768427,0,30,3,1,1,25,7,4211340,4051131,1140080,10392303,3191190,0,0,0,0,0,1020150,0,0,0,0,0,0,0,0,0,1031091,3020040,0,0,0,0,0,0,-1140080,0,0,0,0,0,0,4191131,2060041,4141131,0,0
2,66,1080.65926702693,0,0,508053.043614694,508054.090675968,0,30,3,1,0,32,7,5201140,2182211,4261110,5162171,2171020,0,0,0,0,0,0,3030120,0,1151160,0,0,1031051,0,0,0,0,0,0,0,1150040,0,0,0,3111070,0,0,0,1081161,0,0,-4081010,0,0,0,0
2,67,533.343148126733,1,0,508056.231892895,508057.278964178,0,30,3,0,1,26,3,4020010,6311211,3040071,0,0,0,4020010,0,0,0,0,0,0,0,0,0,2140070,4171141,0,0,0,0,0,0,0,0,0,0,0,-3040071,0,0,0,0,0,0,0,0,0,0
2,68,1118.97265416337,1,0,508058.843695228,508059.89077344,0,30,3,0,1,12,7,0,4343322,9433282,3200131,0,0,0,0,0,0,0,0,0,0,0,-1041071,0,0,0,0,1151200,2151051,0,0,2151031,0,0,4151150,0,0,3131101,0,0,0,0,0,2080091,0,1120040,0
2,69,462.600524770096,1,0,508062.208496033,508063.255529589,0,30,3,1,1,22,3,3151160,4122232,1110070,0,3151160,0,0,0,0,0,0,0,0,0,2071201,0,0,0,0,0,0,2051031,0,0,0,-1110070,0,0,0,0,0,0,0,0,0,0,0,0,0,0
2,70,564.60633315146,0,0,508064.761448387,508065.808504271,0,30,3,0,0,13,7,9411410,1021030,5111311,3261380,4190090,2120180,0,0,0,0,3101140,0,0,0,0,0,-1021030,0,0,0,0,0,0,0,3050131,0,0,2061180,0,0,0,2091200,0,0,0,0,0,0,1170180,0
2,71,1190.22804743145,0,0,508067.44386977,508068.490909101,0,30,3,0,0,8,7,6281471,5162222,5161361,1140121,0,0,0,0,0,2130191,3091160,-1060120,0,4031091,0,0,0,0,0,0,1131131,0,0,2030191,0,0,3131170,0,0,0,0,0,0,0,0,0,0,0,1140121,0
2,72,781.464531435631,1,0,508070.855649852,508071.902720365,0,30,3,1,1,3,3,4200111,1191100,0,6390132,0,0,-4200111,0,0,0,0,0,0,0,0,0,1191100,0,0,0,0,0,0,0,0,0,0,0,0,0,0,0,0,2190061,0,0,4200071,0,0,0
2,73,744.363391015213,1,0,508090.326596736,508091.37360604,0,30,4,1,1,19,3,0,6201210,3131021,2201130,0,0,0,0,0,0,0,0,0,0,0,2091110,0,0,4110100,0,0,0,-3131021,0,0,0,0,0,0,0,0,0,0,0,0,0,0,2201130,0,0
2,74,556.099048117176,1,0,508093.161872077,508094.208942974,0,30,4,1,1,25,7,4211340,4051131,1140080,10392303,3191190,0,0,0,0,0,1020150,0,0,0,0,0,0,0,0,0,1031091,3020040,0,0,0,0,0,0,-1140080,0,0,0,0,0,0,4191131,2060041,4141131,0,0
2,75,726.833741238806,1,0,508095.844297309,508096.89133818,0,30,4,0,1,8,7,8281210,0,10251282,5282541,0,0,0,0,0,0,0,-4141070,4140140,0,0,0,0,0,0,0,0,0,0,0,2080111,0,4090131,4081040,0,0,0,0,1030201,0,0,0,0,0,2191170,2061170
2,76,1369.08814287744,0,0,508098.761958077,508099.809020121,0,30,4,1,0,11,7,5210251,6372361,2051011,3332102,0,0,3190121,0,0,0,0,2020130,0,2111041,-1101160,0,0,3160160,0,0,0,0,0,0,0,2051011,0,0,0,0,0,0,2201071,0,0,0,0,1131031,0,0
2,77,923.141489445698,0,0,508102.279657496,508103.326726083,0,30,4,1,0,22,3,3151160,4122232,1110070,0,3151160,0,0,0,0,0,0,0,0,0,2071201,0,0,0,0,0,0,2051031,0,0,0,-1110070,0,0,0,0,0,0,0,0,0,0,0,0,0,0
2,78,544.810409366619,0,0,508105.40912383,508106.456195497,0,30,4,0,0,9,3,3100261,0,5232150,0,0,0,0,0,0,2080151,0,0,-1020110,0,0,0,0,0,0,0,0,0,0,0,0,0,3161110,0,0,2071040,0,0,0,0,0,0,0,0,0,0
2,79,973.722089780495,0,0,508108.162100744,508109.209183961,0,30,4,0,0,13,7,3170091,2040161,8313192,6351090,0,0,0,0,0,0,0,0,3170091,0,0,0,-2040161,0,0,0,0,0,1201010,1030081,0,3061041,0,3021060,0,0,0,0,0,0,0,0,0,2200060,4151030,0
2,80,1149.640302232,0,0,508111.209212448,508112.256264098,0,30,4,1,0,33,7,4180040,7262281,8261230,2232111,0,4180040,0,0,0,0,0,0,0,0,1060101,2081080,0,0,4121100,0,0,0,0,4100200,0,0,0,0,0,4161030,0,0,0,1121030,0,0,-1111081,0,0,0
2,81,656.29283816088,0,0,508114.444548459,508115.491628211,0,30,4,0,0,27,3,0,5322091,3021171,3161041,0,0,0,0,0,0,0,0,0,0,1191010,0,0,0,0,4131081,0,0,0,0,0,0,0,0,0,0,-3021171,0,0,0,0,3161041,0,0,0,0
2,82,856.266198738012,1,0,508117.350479806,508118.397551089,0,30,4,0,1,2,7,5172301,0,8213192,5250231,0,-3031090,1061170,0,1080041,0,0,0,0,0,0,0,0,0,0,0,0,0,0,0,3101111,0,1061031,4051050,0,0,0,2150031,0,3100200,0,0,0,0,0,0
2,83,636.776397179347,1,0,508120.327028664,508121.37406684,0,30,4,1,1,1,3,3050121,2181111,8301112,0,-3050121,0,0,0,0,0,0,0,0,0,0,0,0,0,0,0,0,2181111,0,4161041,0,0,0,0,0,4140071,0,0,0,0,0,0,0,0,0,0
2,84,752.019139123149,1,0,508123.032907733,508124.079985561,0,30,4,0,1,24,3,3061081,4090171,5211131,0,0,0,0,0,0,0,0,0,3061081,4090171,0,0,0,0,0,0,0,0,0,0,0,0,0,-3201100,2010031,0,0,0,0,0,0,0,0,0,0,0
2,85,903.728674224112,0,0,508126.021196406,508127.068062818,0,30,4,0,0,4,3,9652411,0,0,0,2200130,0,0,-2201201,0,4060060,0,0,1191020,0,0,0,0,0,0,0,0,0,0,0,0,0,0,0,0,0,0,0,0,0,0,0,0,0,0,0
2,86,530.042865138967,1,0,508129.044770351,508130.091831625,0,30,4,1,1,21,3,6162130,0,4140091,2100031,0,0,2111050,4051080,0,0,0,0,0,0,0,0,0,0,0,0,0,0,0,0,-4140091,0,0,0,0,0,0,0,0,0,0,0,2100031,0,0,0
2,87,643.319988797884,0,0,508131.762463148,508132.809534431,0,30,4,1,0,18,3,0,3131020,9302283,0,0,0,0,0,0,0,0,0,0,0,0,0,0,0,0,0,0,-3131020,0,0,3030031,0,0,2171101,0,0,4101151,0,0,0,0,0,0,0,0,0
2,88,1479.40875502536,0,0,508134.468382638,508135.515455461,0,30,4,1,0,32,7,5201140,2182211,4261110,5162171,2171020,0,0,0,0,0,0,3030120,0,1151160,0,0,1031051,0,0,0,0,0,0,0,1150040,0,0,0,3111070,0,0,0,1081161,0,0,-4081010,0,0,0,0
2,89,687.938290822785,1,0,508138.150796707,508139.197981169,0,30,4,0,1,30,3,4021071,1131021,2130061,2090161,0,0,0,0,0,4021071,0,0,0,0,0,0,0,0,0,0,0,1131021,0,2130061,0,0,0,0,0,0,0,0,0,-2090161,0,0,0,0,0,0
2,90,610.901146603283,1,0,508141.056725745,508142.103776624,0,30,4,0,1,20,7,3121381,1160171,13433353,2040090,2061201,0,0,0,0,1060180,0,0,0,0,0,0,0,0,0,0,1160171,0,0,-1200080,0,0,4041101,4151031,0,4041141,0,0,0,0,0,0,0,0,0,2040090
2,91,2774.84471729258,0,0,508143.903869477,508144.950908808,0,30,4,0,0,12,7,6251280,8421292,5291141,0,3131140,0,0,0,2080100,0,0,0,1040040,0,0,-1141071,4140090,0,3140131,0,0,0,0,0,0,0,3151051,2140090,0,0,0,0,0,0,0,0,0,0,0,0
2,92,713.368139928207,0,0,508148.927429179,508149.974496997,0,30,4,1,0,15,7,1010201,4361332,1020080,6292482,0,0,0,0,1010201,0,0,0,0,0,0,2171181,0,0,-2190151,0,0,0,0,1020080,0,0,0,0,0,0,0,0,1120190,1111061,3020120,0,1041111,0,0,0
2,93,1158.19686243776,0,0,508151.833350132,508152.880433349,0,30,4,1,0,31,7,4132261,10412384,3080200,3050120,3081100,0,0,1051161,0,0,0,0,0,4120011,4101161,0,1041061,1150151,0,0,0,0,0,0,0,0,0,3080200,0,0,0,0,0,0,-3050120,0,0,0,0,0
2,94,761.249768605921,1,0,508155.092226596,508156.139300189,0,30,4,0,1,16,7,2120020,3050080,12303272,6110172,2120020,0,0,0,0,0,0,0,0,0,0,0,0,0,0,-3050080,0,0,3020090,4181050,4041061,0,0,0,0,1061071,0,0,4010101,0,2100071,0,0,0,0,0
2,95,822.528475197032,1,0,508158.045217677,508159.092284341,0,30,4,0,1,26,3,0,5251181,1161021,3070121,0,0,0,0,0,0,0,0,0,0,3100090,0,0,0,0,0,2151091,0,0,0,0,0,0,0,0,-1161021,0,3070121,0,0,0,0,0,0,0,0
2,96,721.115894033574,0,0,508161.092327071,508162.139392195,0,30,4,1,0,3,3,4200111,1191100,0,6390132,0,0,-4200111,0,0,0,0,0,0,0,0,0,1191100,0,0,0,0,0,0,0,0,0,0,0,0,0,0,0,0,2190061,0,0,4200071,0,0,0
2,97,1006.79883285193,0,0,508195.104605064,508196.151675576,0,30,5,1,0,32,7,5201140,2182211,4261110,5162171,2171020,0,0,0,0,0,0,3030120,0,1151160,0,0,1031051,0,0,0,0,0,0,0,1150040,0,0,0,3111070,0,0,0,1081161,0,0,-4081010,0,0,0,0
2,98,597.554883686826,0,0,508198.351717075,508199.398785278,0,30,5,1,0,33,7,4180040,7262281,8261230,2232111,0,4180040,0,0,0,0,0,0,0,0,1060101,2081080,0,0,4121100,0,0,0,0,4100200,0,0,0,0,0,4161030,0,0,0,1121030,0,0,-1111081,0,0,0
2,99,462.14318939019,0,0,508201.175284168,508202.222357376,0,30,5,0,0,27,3,0,0,10322304,0,0,0,0,0,0,0,0,0,0,0,0,0,0,0,0,0,0,0,3070111,3161091,0,0,0,0,1060061,0,-3031041,0,0,0,0,0,0,0,0,0
2,100,509.339199983515,0,0,508203.798854033,508204.84592647,0,30,5,0,0,26,3,1041031,0,7061211,4180011,1041031,0,0,0,0,0,0,0,0,0,0,0,0,0,0,0,0,0,0,4021080,0,0,0,0,0,-3040131,0,0,0,0,0,0,0,0,4180011,0
2,101,1126.97024887893,0,0,508206.481248468,508207.528314747,0,30,5,1,0,1,3,3050121,2181111,8301112,0,-3050121,0,0,0,0,0,0,0,0,0,0,0,0,0,0,0,0,2181111,0,4161041,0,0,0,0,0,4140071,0,0,0,0,0,0,0,0,0,0
2,102,819.535777205601,1,0,508209.857774844,508210.904842277,0,30,5,0,1,16,3,4120151,12342170,0,0,0,0,0,0,4120151,0,0,0,0,0,0,0,0,0,0,-4151100,4140020,4051050,0,0,0,0,0,0,0,0,0,0,0,0,0,0,0,0,0,0
2,103,1001.73157220706,0,0,508212.928407368,508213.975474032,0,30,5,0,0,12,3,5182201,4201020,4180010,0,0,0,0,4021111,0,0,0,1161090,0,0,0,-4201020,0,0,0,0,0,0,0,0,0,4180010,0,0,0,0,0,0,0,0,0,0,0,0,0,0
2,104,1216.25612815842,1,0,508216.104924582,508217.151985471,0,30,5,1,1,25,7,4211340,4051131,1140080,10392303,3191190,0,0,0,0,0,1020150,0,0,0,0,0,0,0,0,0,1031091,3020040,0,0,0,0,0,0,-1140080,0,0,0,0,0,0,4191131,2060041,4141131,0,0
2,105,769.863303226884,1,0,508219.493211561,508220.540283229,0,30,5,1,1,18,3,0,3131020,9302283,0,0,0,0,0,0,0,0,0,0,0,0,0,0,0,0,0,0,-3131020,0,0,3030031,0,0,2171101,0,0,4101151,0,0,0,0,0,0,0,0,0
2,106,434.634928125888,1,0,508222.328546571,508223.375616699,0,30,5,1,1,22,3,3151160,4122232,1110070,0,3151160,0,0,0,0,0,0,0,0,0,2071201,0,0,0,0,0,0,2051031,0,0,0,-1110070,0,0,0,0,0,0,0,0,0,0,0,0,0,0
2,107,731.26619879622,1,0,508225.010947166,508226.058024223,0,30,5,0,1,24,3,0,8112240,6271202,0,0,0,0,0,0,0,0,0,0,4011050,0,0,0,0,0,0,0,4101190,0,3071111,0,0,0,-3200091,0,0,0,0,0,0,0,0,0,0,0,0
2,108,1360.19897507504,0,0,508227.963921694,508229.01100337,0,30,5,1,0,3,3,4200111,1191100,0,6390132,0,0,-4200111,0,0,0,0,0,0,0,0,0,1191100,0,0,0,0,0,0,0,0,0,0,0,0,0,0,0,0,2190061,0,0,4200071,0,0,0
2,109,685.21391163813,1,0,508231.563984982,508232.611050105,0,30,5,0,1,9,7,11453290,4160211,0,12302322,4201160,0,0,0,0,0,0,3181020,-4071110,0,0,0,1060110,3100101,0,0,0,0,0,0,0,0,0,0,0,0,0,0,4061010,0,0,4181181,0,4060131,0,0
2,110,471.033127105329,0,0,508234.364025865,508235.411092913,0,30,5,1,0,15,7,1010201,4361332,1020080,6292482,0,0,0,0,1010201,0,0,0,0,0,0,2171181,0,0,-2190151,0,0,0,0,1020080,0,0,0,0,0,0,0,0,1120190,1111061,3020120,0,1041111,0,0,0
2,111,654.532019922044,1,0,508237.093490043,508238.140544387,0,30,5,0,1,8,7,9421401,3261301,5262131,2070190,3171180,0,0,0,0,0,4110140,-2140081,0,0,0,0,0,1081110,0,0,0,2180191,1101110,0,0,0,0,0,0,0,4161021,0,0,0,0,0,2070190,0,0,0
2,112,467.621589952614,1,0,508239.952459052,508240.999412921,0,30,5,0,1,20,7,10762913,0,3231171,0,2170090,3131171,0,1040150,2050171,1181201,1190130,0,0,0,0,0,0,0,0,0,0,0,0,-1131161,0,0,0,0,2100010,0,0,0,0,0,0,0,0,0,0,0
2,113,447.617786529008,1,0,508242.599438483,508243.646515155,0,30,5,1,1,21,3,6162130,0,4140091,2100031,0,0,2111050,4051080,0,0,0,0,0,0,0,0,0,0,0,0,0,0,0,0,-4140091,0,0,0,0,0,0,0,0,0,0,0,2100031,0,0,0
2,114,1437.70923820557,0,0,508245.152427023,508246.199497536,0,30,5,0,0,30,7,4150070,4121021,11523292,5291020,0,0,0,0,0,4150070,0,0,0,0,0,0,0,4121021,0,0,0,0,2160031,3061031,0,4141060,2161170,0,0,0,0,0,0,-2131010,0,3160010,0,0,0,0
2,115,838.609126396477,1,0,508248.752482227,508249.799543115,0,30,5,1,1,31,7,4132261,10412384,3080200,3050120,3081100,0,0,1051161,0,0,0,0,0,4120011,4101161,0,1041061,1150151,0,0,0,0,0,0,0,0,0,3080200,0,0,0,0,0,0,-3050120,0,0,0,0,0
2,116,569.906880962662,0,0,508251.670223067,508252.71724161,0,30,5,1,0,19,3,0,6201210,3131021,2201130,0,0,0,0,0,0,0,0,0,0,0,2091110,0,0,4110100,0,0,0,-3131021,0,0,0,0,0,0,0,0,0,0,0,0,0,0,2201130,0,0
2,117,609.918722417206,1,0,508254.481977202,508255.529043865,0,30,5,0,1,13,7,2160141,8301331,8320130,4190161,0,0,0,0,2160141,0,0,0,0,0,0,0,-3041150,2110091,3150090,0,0,0,0,0,3170080,2110040,0,0,0,0,3040010,0,0,0,0,0,0,0,0,4190161
2,118,886.326376115903,0,0,508257.293787157,508258.34085228,0,30,5,0,0,2,7,13302561,6152251,6292252,0,0,-4080131,1201170,4011080,0,0,0,4010180,0,4091190,0,0,0,2061061,0,0,0,0,0,0,0,0,3111161,3181091,0,0,0,0,0,0,0,0,0,0,0,0
2,119,1668.1931821513,0,0,508260.399721122,508261.446782011,0,30,5,1,0,11,7,5210251,6372361,2051011,3332102,0,0,3190121,0,0,0,0,2020130,0,2111041,-1101160,0,0,3160160,0,0,0,0,0,0,0,2051011,0,0,0,0,0,0,2201071,0,0,0,0,1131031,0,0
2,120,626.610693929251,1,0,508264.223308618,508265.270372201,0,30,5,0,1,4,3,7222241,0,5201122,0,4021070,0,0,-3201171,0,0,0,0,0,0,0,0,0,0,0,0,0,0,0,0,0,0,0,0,2110031,0,3091091,0,0,0,0,0,0,0,0,0
2,121,902.666876965668,0,0,508300.070935093,508301.118018695,0,30,6,1,0,18,3,0,3131020,9302283,0,0,0,0,0,0,0,0,0,0,0,0,0,0,0,0,0,0,-3131020,0,0,3030031,0,0,2171101,0,0,4101151,0,0,0,0,0,0,0,0,0
2,122,1077.89023214718,1,0,508303.176846346,508304.223919168,0,30,6,1,1,31,7,4132261,10412384,3080200,3050120,3081100,0,0,1051161,0,0,0,0,0,4120011,4101161,0,1041061,1150151,0,0,0,0,0,0,0,0,0,3080200,0,0,0,0,0,0,-3050120,0,0,0,0,0
2,123,502.501112117898,1,0,508306.459237471,508307.506311833,0,30,6,0,1,16,7,10533190,5282280,3081141,5240251,0,4191020,0,0,0,3161130,3181040,0,0,0,0,0,0,1111180,0,-4171100,0,0,0,3081141,0,0,0,0,0,0,0,0,0,0,0,0,0,1040121,0,4200130
2,124,598.52883865824,1,0,508309.165169665,508310.212240178,0,30,6,1,1,3,3,4200111,1191100,0,6390132,0,0,-4200111,0,0,0,0,0,0,0,0,0,1191100,0,0,0,0,0,0,0,0,0,0,0,0,0,0,0,0,2190061,0,0,4200071,0,0,0
2,125,707.543273223564,0,1,508311.871088386,508312.918152739,0,30,6,0,1,8,3,3050020,2051021,1071020,4021070,0,0,0,0,0,0,0,-3050020,0,2051021,0,0,0,0,0,0,0,0,0,0,0,1071020,0,0,0,0,0,0,0,0,0,0,0,4021070,0,0
2,126,1104.14428578224,1,0,508314.694653938,508315.741726376,0,30,6,1,1,25,7,4211340,4051131,1140080,10392303,3191190,0,0,0,0,0,1020150,0,0,0,0,0,0,0,0,0,1031091,3020040,0,0,0,0,0,0,-1140080,0,0,0,0,0,0,4191131,2060041,4141131,0,0
2,127,604.085771483369,1,0,508317.906471439,508318.953541566,0,30,6,0,1,26,7,0,7210130,9411182,8152191,0,0,0,0,0,0,0,0,0,0,0,0,3200030,0,4010100,0,0,0,0,0,0,4100031,0,0,0,-1180120,4131031,0,0,0,0,1041061,0,4030110,3081020,0
2,128,526.557030214462,0,0,508320.671223199,508321.718291787,0,30,6,1,0,19,3,0,6201210,3131021,2201130,0,0,0,0,0,0,0,0,0,0,0,2091110,0,0,4110100,0,0,0,-3131021,0,0,0,0,0,0,0,0,0,0,0,0,0,0,2201130,0,0
2,129,1230.63832503976,0,0,508323.388912532,508324.43597573,0,30,6,0,0,30,3,0,0,6200192,8171251,0,0,0,0,0,0,0,0,0,0,0,0,0,0,0,0,0,0,0,0,0,2040051,0,0,4160141,0,0,0,0,-4051120,4120131,0,0,0,0,0
2,130,894.678521261085,0,0,508326.694900699,508327.741907693,0,30,6,1,0,1,3,3050121,2181111,8301112,0,-3050121,0,0,0,0,0,0,0,0,0,0,0,0,0,0,0,0,2181111,0,4161041,0,0,0,0,0,4140071,0,0,0,0,0,0,0,0,0,0
2,131,772.505685454234,0,0,508329.789003614,508330.836072972,0,30,6,0,0,9,7,3112310,2152291,8331532,3100161,0,0,0,2041170,0,0,0,0,-1071140,0,0,1031101,0,0,0,0,0,1121190,0,0,2020151,0,0,2110190,0,4201191,0,0,0,3100161,0,0,0,0,0,0
2,132,1618.39559540385,1,0,508332.730272204,508333.777296906,0,30,6,1,1,11,7,5210251,6372361,2051011,3332102,0,0,3190121,0,0,0,0,2020130,0,2111041,-1101160,0,0,3160160,0,0,0,0,0,0,0,2051011,0,0,0,0,0,0,2201071,0,0,0,0,1131031,0,0
2,133,833.675062807743,1,0,508336.447924964,508337.495003561,0,30,6,0,1,20,7,3160021,6250100,12514642,4041201,0,0,0,0,3160021,0,0,0,0,0,0,0,3130050,0,0,3120050,0,0,0,-4151170,0,0,2101150,0,0,2111121,4151201,0,0,0,4041201,0,0,0,0,0
2,134,830.175754148513,0,0,508339.436198238,508340.48327876,0,30,6,0,0,13,3,4100060,2050171,5172171,0,0,4100060,0,0,0,0,0,0,0,0,0,0,-2050171,0,0,0,0,0,0,0,0,4151010,0,1021161,0,0,0,0,0,0,0,0,0,0,0,0
2,135,785.365355899557,1,0,508342.389200484,508343.436264837,0,30,6,0,1,27,7,6361180,4120200,6352321,5330211,0,0,0,0,3170170,0,3191010,0,0,4120200,0,0,0,0,0,0,0,0,0,0,0,0,4180191,0,0,1081050,-1091080,0,0,0,0,2140041,3190170,0,0,0
2,136,667.351654265076,0,0,508345.342181171,508346.389255533,0,30,6,0,0,24,3,4181090,4081120,8171361,0,0,0,0,0,0,4181090,0,0,0,4081120,0,0,0,0,0,0,0,0,4041170,0,0,0,0,-4130191,0,0,0,0,0,0,0,0,0,0,0,0
2,137,673.716238350607,0,0,508348.118713552,508349.165776366,0,30,6,0,0,4,3,2071010,8131331,2171151,0,0,0,0,-2071010,0,0,0,0,0,0,0,0,0,0,4030140,0,0,4101191,0,0,2171151,0,0,0,0,0,0,0,0,0,0,0,0,0,0,0
2,138,449.624980683438,0,0,508350.859913311,508351.906985748,0,30,6,1,0,15,7,1010201,4361332,1020080,6292482,0,0,0,0,1010201,0,0,0,0,0,0,2171181,0,0,-2190151,0,0,0,0,1020080,0,0,0,0,0,0,0,0,1120190,1111061,3020120,0,1041111,0,0,0
2,139,443.512162077241,0,0,508353.459987378,508354.507016314,0,30,6,1,0,21,3,6162130,0,4140091,2100031,0,0,2111050,4051080,0,0,0,0,0,0,0,0,0,0,0,0,0,0,0,0,-4140091,0,0,0,0,0,0,0,0,0,0,0,2100031,0,0,0
2,140,888.586105662398,1,0,508356.012929338,508357.059992921,0,30,6,0,1,2,7,9462614,2120011,3140091,3251100,0,-2090181,1101131,0,3070111,3201191,0,0,0,0,0,0,0,0,0,2120011,0,0,0,3140091,0,0,0,0,0,0,0,0,0,0,1060050,2191050,0,0,0,0
2,141,752.278218860738,0,0,508359.060036807,508360.107096156,0,30,6,1,0,33,7,4180040,7262281,8261230,2232111,0,4180040,0,0,0,0,0,0,0,0,1060101,2081080,0,0,4121100,0,0,0,0,4100200,0,0,0,0,0,4161030,0,0,0,1121030,0,0,-1111081,0,0,0
2,142,1261.54118514387,1,0,508361.977731836,508363.02479311,0,30,6,0,1,12,3,2190040,2150150,5221171,0,2190040,0,0,0,0,0,0,0,0,0,0,-2150150,0,0,0,0,0,0,0,0,0,0,3090010,0,0,0,2131161,0,0,0,0,0,0,0,0,0
2,143,458.800560503732,1,0,508365.342537261,508366.389552724,0,30,6,1,1,22,3,3151160,4122232,1110070,0,3151160,0,0,0,0,0,0,0,0,0,2071201,0,0,0,0,0,0,2051031,0,0,0,-1110070,0,0,0,0,0,0,0,0,0,0,0,0,0,0
2,144,852.810005948413,0,0,508368.048407476,508369.095518025,0,30,6,1,0,32,7,5201140,2182211,4261110,5162171,2171020,0,0,0,0,0,0,3030120,0,1151160,0,0,1031051,0,0,0,0,0,0,0,1150040,0,0,0,3111070,0,0,0,1081161,0,0,-4081010,0,0,0,0
2,145,423.847125610337,1,0,508387.060458726,508388.107525389,0,30,7,1,1,22,3,3151160,4122232,1110070,0,3151160,0,0,0,0,0,0,0,0,0,2071201,0,0,0,0,0,0,2051031,0,0,0,-1110070,0,0,0,0,0,0,0,0,0,0,0,0,0,0
2,146,689.409232349135,1,0,508389.589909892,508390.636970011,0,30,7,0,1,27,7,4150171,7191090,8572472,4140121,4150171,0,0,0,0,0,0,0,0,0,0,0,0,4020050,0,0,0,3171040,3110081,1130190,0,0,0,0,0,2141051,-2191150,0,0,0,0,0,0,0,4140121,0
2,147,454.568668443244,0,0,508392.354657034,508393.401722157,0,30,7,1,0,15,7,1010201,4361332,1020080,6292482,0,0,0,0,1010201,0,0,0,0,0,0,2171181,0,0,-2190151,0,0,0,0,1020080,0,0,0,0,0,0,0,0,1120190,1111061,3020120,0,1041111,0,0,0
2,148,676.037946832366,0,0,508394.990025612,508396.037063403,0,30,7,0,0,26,3,1060031,3040120,2020190,1051050,0,0,0,0,0,0,0,1060031,0,0,0,0,0,0,0,3040120,0,0,0,0,0,0,0,0,0,-2020190,0,0,0,0,0,0,1051050,0,0,0
2,149,1099.74301018519,0,0,508397.872384554,508398.919453142,0,30,7,1,0,1,3,3050121,2181111,8301112,0,-3050121,0,0,0,0,0,0,0,0,0,0,0,0,0,0,0,0,2181111,0,4161041,0,0,0,0,0,4140071,0,0,0,0,0,0,0,0,0,0
2,150,553.614115517121,1,0,508401.166550525,508402.213625273,0,30,7,0,1,20,7,0,5111251,8181271,10532292,0,0,0,0,0,0,0,0,0,0,0,0,3020190,0,0,0,2091061,0,0,-1030070,0,4050091,0,3101110,0,0,0,0,3171140,0,3181051,4180101,0,0,0,0
2,151,2228.36704662768,1,0,508403.966596413,508405.013666156,0,30,7,0,1,24,7,1121180,2160190,7202171,9302453,0,0,0,0,0,0,0,1121180,0,0,0,0,0,2160190,0,0,0,0,0,0,0,0,0,-3151160,0,4051011,0,0,2171101,0,1030091,0,0,0,3020191,3081070
2,152,1342.2943718615,1,0,508408.307841366,508409.354910724,0,30,7,1,1,11,7,5210251,6372361,2051011,3332102,0,0,3190121,0,0,0,0,2020130,0,2111041,-1101160,0,0,3160160,0,0,0,0,0,0,0,2051011,0,0,0,0,0,0,2201071,0,0,0,0,1131031,0,0
2,153,1399.54521646723,0,0,508411.778475661,508412.825552333,0,30,7,1,0,32,7,5201140,2182211,4261110,5162171,2171020,0,0,0,0,0,0,3030120,0,1151160,0,0,1031051,0,0,0,0,0,0,0,1150040,0,0,0,3111070,0,0,0,1081161,0,0,-4081010,0,0,0,0
2,154,655.755430634599,0,0,508415.284418711,508416.331480755,0,30,7,0,0,2,3,8232081,0,3100181,4021160,4091021,-4141060,0,0,0,0,0,0,0,0,0,0,0,0,0,0,0,0,0,3100181,0,0,0,0,0,0,0,4021160,0,0,0,0,0,0,0,0
2,155,570.649858505931,0,1,508418.190333505,508419.237410562,0,30,7,0,1,30,3,2121200,4130140,1150100,1150141,0,0,0,0,2121200,0,0,0,0,0,0,0,0,0,0,4130140,0,0,0,0,0,1150100,0,0,0,0,0,0,0,-1150141,0,0,0,0,0,0
2,156,589.237000152934,0,0,508420.978612245,508422.025683913,0,30,7,0,0,16,3,0,4161020,10381341,0,0,0,0,0,0,0,0,0,0,0,0,0,0,0,0,-4161020,0,0,0,2201030,0,0,4160140,0,0,0,4020171,0,0,0,0,0,0,0,0,0
2,157,922.051660774741,0,0,508423.766902535,508424.813959574,0,30,7,1,0,19,3,0,6201210,3131021,2201130,0,0,0,0,0,0,0,0,0,0,0,2091110,0,0,4110100,0,0,0,-3131021,0,0,0,0,0,0,0,0,0,0,0,0,0,0,2201130,0,0
2,158,705.782069999259,0,0,508426.89635886,508427.94341205,0,30,7,0,0,9,7,7111241,0,7201310,13421331,0,0,0,0,0,0,0,4100110,-3011131,0,0,0,0,0,0,0,0,0,0,4071150,3130160,0,0,0,0,0,0,3200131,0,3060120,3040030,0,0,0,0,4121050
2,159,875.28834794648,0,0,508429.731690405,508430.778760533,0,30,7,1,0,18,3,0,3131020,9302283,0,0,0,0,0,0,0,0,0,0,0,0,0,0,0,0,0,0,-3131020,0,0,3030031,0,0,2171101,0,0,4101151,0,0,0,0,0,0,0,0,0
2,160,632.351253880188,1,0,508432.790562327,508433.837634764,0,30,7,0,1,8,3,4041030,1161200,3080011,3061051,0,0,0,0,0,0,0,-4041030,0,0,0,1161200,0,0,0,0,0,0,0,0,3080011,0,0,0,0,0,0,0,0,0,0,0,0,3061051,0,0
2,161,771.211056795437,1,0,508435.637662559,508436.684720368,0,30,7,1,1,3,3,4200111,1191100,0,6390132,0,0,-4200111,0,0,0,0,0,0,0,0,0,1191100,0,0,0,0,0,0,0,0,0,0,0,0,0,0,0,0,2190061,0,0,4200071,0,0,0
2,162,1335.39468998788,1,0,508438.555356048,508439.602422327,0,30,7,1,1,31,7,4132261,10412384,3080200,3050120,3081100,0,0,1051161,0,0,0,0,0,4120011,4101161,0,1041061,1150151,0,0,0,0,0,0,0,0,0,3080200,0,0,0,0,0,0,-3050120,0,0,0,0,0
2,163,1006.58094405662,1,0,508442.014233205,508443.061301023,0,30,7,1,1,33,7,4180040,7262281,8261230,2232111,0,4180040,0,0,0,0,0,0,0,0,1060101,2081080,0,0,4121100,0,0,0,0,4100200,0,0,0,0,0,4161030,0,0,0,1121030,0,0,-1111081,0,0,0
2,164,590.610161190853,0,0,508445.108398868,508446.155465532,0,30,7,1,0,21,3,6162130,0,4140091,2100031,0,0,2111050,4051080,0,0,0,0,0,0,0,0,0,0,0,0,0,0,0,0,-4140091,0,0,0,0,0,0,0,0,0,0,0,2100031,0,0,0
2,165,1274.80429620482,0,0,508447.779055414,508448.82615095,0,30,7,1,0,25,7,4211340,4051131,1140080,10392303,3191190,0,0,0,0,0,1020150,0,0,0,0,0,0,0,0,0,1031091,3020040,0,0,0,0,0,0,-1140080,0,0,0,0,0,0,4191131,2060041,4141131,0,0
2,166,1128.48584598396,0,0,508451.273198211,508452.320267184,0,30,7,0,0,4,7,5452292,3191010,7290191,4080301,2141190,2110081,0,-1201021,0,0,0,0,0,0,0,0,3191010,0,0,0,0,0,0,3100121,0,0,0,0,0,4190070,0,0,0,3010191,0,0,0,0,1070110,0
2,167,1121.98421533685,1,0,508454.590893856,508455.638011335,0,30,7,0,1,12,7,5161251,6361101,2311231,5241210,0,0,0,0,2150101,0,0,3011150,0,0,0,-3190081,0,0,0,0,0,3171020,0,0,0,0,1120130,1191101,0,0,0,0,3041010,2200200,0,0,0,0,0,0
2,168,763.795140257571,1,0,508457.943887093,508458.990981474,0,30,7,0,1,13,3,2130070,2090131,5211321,0,0,0,0,0,0,0,2130070,0,0,0,0,0,-2090131,0,0,0,0,0,3100160,0,0,0,0,0,0,2111161,0,0,0,0,0,0,0,0,0,0
2,169,959.546232770663,0,0,508493.862064866,508494.909145388,0,30,8,1,0,11,7,5210251,6372361,2051011,3332102,0,0,3190121,0,0,0,0,2020130,0,2111041,-1101160,0,0,3160160,0,0,0,0,0,0,0,2051011,0,0,0,0,0,0,2201071,0,0,0,0,1131031,0,0
2,170,1442.90161167737,0,0,508496.991526966,508498.038597478,0,30,8,1,0,32,7,5201140,2182211,4261110,5162171,2171020,0,0,0,0,0,0,3030120,0,1151160,0,0,1031051,0,0,0,0,0,0,0,1150040,0,0,0,3111070,0,0,0,1081161,0,0,-4081010,0,0,0,0
2,171,1106.97991913185,1,0,508500.591582169,508501.638713506,0,30,8,1,1,1,3,3050121,2181111,8301112,0,-3050121,0,0,0,0,0,0,0,0,0,0,0,0,0,0,0,0,2181111,0,4161041,0,0,0,0,0,4140071,0,0,0,0,0,0,0,0,0,0
2,172,517.969288048334,0,0,508503.838703805,508504.885769698,0,30,8,1,0,3,3,4200111,1191100,0,6390132,0,0,-4200111,0,0,0,0,0,0,0,0,0,1191100,0,0,0,0,0,0,0,0,0,0,0,0,0,0,0,0,2190061,0,0,4200071,0,0,0
2,173,1050.28880992904,0,0,508506.462272515,508507.509329554,0,30,8,1,0,19,3,0,6201210,3131021,2201130,0,0,0,0,0,0,0,0,0,0,0,2091110,0,0,4110100,0,0,0,-3131021,0,0,0,0,0,0,0,0,0,0,0,0,0,0,2201130,0,0
2,174,1124.28513588384,1,0,508509.568192236,508510.615259669,0,30,8,0,1,24,7,6222141,0,13262743,0,0,0,0,0,3111021,2060070,0,1051050,0,0,0,0,0,0,0,0,0,0,1010191,0,0,0,4021191,-2051140,3170041,0,3010180,0,0,0,0,0,0,0,0,0
2,175,1595.94574064249,1,0,508512.909420636,508513.956482294,0,30,8,0,1,26,7,2252030,5240081,6252262,5101231,0,0,0,0,0,1131020,0,0,1121010,0,4120011,0,0,1120070,0,0,0,0,0,0,0,0,0,0,4181071,-2071191,0,0,4051051,0,0,0,0,0,1050180,0
2,176,1150.52417595871,0,0,508516.744773354,508517.791828853,0,30,8,0,0,20,7,4461391,2130030,8181142,4191091,0,0,1180171,0,2140100,0,1141120,0,0,0,0,0,0,0,0,2130030,0,0,1020030,-3141091,0,0,0,0,0,0,4020021,4191091,0,0,0,0,0,0,0,0
2,177,472.928297240287,1,0,508519.968343372,508521.015421969,0,30,8,0,1,16,3,4140141,6152271,0,3170200,4140141,0,0,0,0,0,0,0,0,0,2101160,0,0,0,0,-4051111,0,0,0,0,0,0,0,0,0,0,0,0,3170200,0,0,0,0,0,0,0
2,178,1018.74845201382,1,0,508522.603725809,508523.650748972,0,30,8,1,1,31,7,4132261,10412384,3080200,3050120,3081100,0,0,1051161,0,0,0,0,0,4120011,4101161,0,1041061,1150151,0,0,0,0,0,0,0,0,0,3080200,0,0,0,0,0,0,-3050120,0,0,0,0,0
2,179,798.497579700779,0,0,508525.850789316,508526.897860214,0,30,8,1,0,18,3,0,3131020,9302283,0,0,0,0,0,0,0,0,0,0,0,0,0,0,0,0,0,0,-3131020,0,0,3030031,0,0,2171101,0,0,4101151,0,0,0,0,0,0,0,0,0
2,180,920.566860586405,0,0,508528.803775008,508529.850846675,0,30,8,0,0,13,7,5210272,5291212,7110291,3301351,0,3150141,2060131,0,0,0,0,0,0,0,0,0,-1140111,0,4151101,0,0,0,0,4100141,0,0,3010150,0,0,0,0,0,0,0,0,0,0,1121200,0,2180151
2,181,855.489729496185,1,0,508531.956761777,508533.00383768,0,30,8,0,1,2,7,1201110,5242110,7371240,11423260,0,-1201110,0,0,0,0,0,0,0,0,0,4111100,0,0,0,0,1131010,0,3170160,0,4201080,0,0,0,0,0,0,0,3121040,4171060,0,0,0,0,0,4131160
2,182,681.120221037418,1,0,508534.945040441,508535.992112493,0,30,8,0,1,27,3,0,2050181,7321242,4020031,0,0,0,0,0,0,0,0,0,2050181,0,0,0,0,0,0,0,0,0,3140161,0,0,0,0,0,0,-4181081,0,0,0,0,0,0,0,4020031,0
2,183,559.383162704762,1,0,508537.698024285,508538.745101342,0,30,8,1,1,15,7,1010201,4361332,1020080,6292482,0,0,0,0,1010201,0,0,0,0,0,0,2171181,0,0,-2190151,0,0,0,0,1020080,0,0,0,0,0,0,0,0,1120190,1111061,3020120,0,1041111,0,0,0
2,184,1084.4488372677,0,0,508540.309826617,508541.356908679,0,30,8,0,0,30,3,1171161,1030170,0,7262250,0,1171161,0,0,0,0,0,0,0,0,0,0,0,1030170,0,0,0,0,0,0,0,0,0,0,0,0,0,0,0,-3131090,0,4131160,0,0,0,0
2,185,563.855271378998,0,0,508543.486348451,508544.53345977,0,30,8,0,0,8,3,3110070,0,1040070,6091291,0,0,0,0,0,0,0,-3110070,0,0,0,0,0,0,0,0,0,0,0,0,0,0,0,0,1040070,0,0,0,0,0,4031091,0,0,0,2060200,0
2,186,1116.51197419269,1,0,508546.274626036,508547.321695779,0,30,8,0,1,12,3,0,3121050,5192060,2121091,0,0,0,0,0,0,0,0,0,0,0,-3121050,0,0,0,0,0,0,0,0,0,2081010,0,3111050,0,0,0,0,0,2121091,0,0,0,0,0,0
2,187,453.316770552192,0,0,508549.462912707,508550.509971671,0,30,8,0,0,9,7,5090351,3020101,7212262,5311161,0,0,0,0,0,0,1010171,0,-4080180,0,0,0,0,0,0,3020101,0,0,0,1010070,3041031,0,0,0,0,0,3161161,0,4161041,1150120,0,0,0,0,0,0
2,188,900.753613619599,1,0,508551.980598652,508553.027670319,0,30,8,0,1,4,3,1081200,3180050,4261222,0,0,0,0,-1081200,0,0,0,0,0,0,0,0,0,0,3180050,0,0,0,0,0,0,0,0,1160111,0,3101111,0,0,0,0,0,0,0,0,0,0
2,189,446.365503710695,1,0,508555.074762775,508556.121833673,0,30,8,1,1,22,3,3151160,4122232,1110070,0,3151160,0,0,0,0,0,0,0,0,0,2071201,0,0,0,0,0,0,2051031,0,0,0,-1110070,0,0,0,0,0,0,0,0,0,0,0,0,0,0
2,190,673.570337588899,0,0,508557.733625996,508558.78068804,0,30,8,1,0,33,7,4180040,7262281,8261230,2232111,0,4180040,0,0,0,0,0,0,0,0,1060101,2081080,0,0,4121100,0,0,0,0,4100200,0,0,0,0,0,4161030,0,0,0,1121030,0,0,-1111081,0,0,0
2,191,413.453139655758,0,0,508560.627779803,508561.674851085,0,30,8,1,0,21,3,6162130,0,4140091,2100031,0,0,2111050,4051080,0,0,0,0,0,0,0,0,0,0,0,0,0,0,0,0,-4140091,0,0,0,0,0,0,0,0,0,0,0,2100031,0,0,0
2,192,1382.9329321743,1,0,508563.251358136,508564.298430574,0,30,8,1,1,25,7,4211340,4051131,1140080,10392303,3191190,0,0,0,0,0,1020150,0,0,0,0,0,0,0,0,0,1031091,3020040,0,0,0,0,0,0,-1140080,0,0,0,0,0,0,4191131,2060041,4141131,0,0
2,193,1764.22552828444,0,0,508585.298734694,508586.345813676,0,30,9,0,0,24,7,5262222,4120020,3120150,5201212,0,1190071,0,1021020,0,0,3051131,0,0,0,0,0,0,0,4120020,0,0,0,0,0,0,0,0,-1020100,0,0,2100050,0,0,2061151,0,3140061,0,0,0,0
2,194,629.824745410588,0,0,508589.287041845,508590.334105814,0,30,9,1,0,18,3,0,3131020,9302283,0,0,0,0,0,0,0,0,0,0,0,0,0,0,0,0,0,0,-3131020,0,0,3030031,0,0,2171101,0,0,4101151,0,0,0,0,0,0,0,0,0
2,195,618.645051086787,1,0,508592.169459301,508593.216498632,0,30,9,1,1,22,3,3151160,4122232,1110070,0,3151160,0,0,0,0,0,0,0,0,0,2071201,0,0,0,0,0,0,2051031,0,0,0,-1110070,0,0,0,0,0,0,0,0,0,0,0,0,0,0
2,196,954.616403731052,0,0,508594.922417353,508595.969486326,0,30,9,1,0,19,3,0,6201210,3131021,2201130,0,0,0,0,0,0,0,0,0,0,0,2091110,0,0,4110100,0,0,0,-3131021,0,0,0,0,0,0,0,0,0,0,0,0,0,0,2201130,0,0
2,197,1668.81951608229,1,0,508597.993049492,508599.040126934,0,30,9,1,1,3,3,4200111,1191100,0,6390132,0,0,-4200111,0,0,0,0,0,0,0,0,0,1191100,0,0,0,0,0,0,0,0,0,0,0,0,0,0,0,0,2190061,0,0,4200071,0,0,0
2,198,746.677785238717,0,0,508601.887225626,508602.934293444,0,30,9,1,0,1,3,3050121,2181111,8301112,0,-3050121,0,0,0,0,0,0,0,0,0,0,0,0,0,0,0,0,2181111,0,4161041,0,0,0,0,0,4140071,0,0,0,0,0,0,0,0,0,0
2,199,946.094875107519,0,0,508604.710799263,508605.757867081,0,30,9,0,0,2,7,8452281,3061190,11293542,0,0,-3191090,0,0,0,0,4100040,1161151,0,0,0,0,0,0,0,3061190,0,0,0,2110100,0,4051131,0,0,0,4121191,1011120,0,0,0,0,0,0,0,0,0
2,200,1501.45093456376,0,0,508607.828496526,508608.875564729,0,30,9,0,0,30,7,2010081,6381100,5211151,10461092,2010081,0,0,0,0,0,0,0,0,4190030,0,0,0,0,0,0,0,2191070,0,3040011,0,2171140,0,0,0,0,0,0,0,-3150021,0,0,3171051,4140020,0,0
2,201,1220.40525334887,1,0,508611.534437189,508612.581500003,0,30,9,1,1,32,7,5201140,2182211,4261110,5162171,2171020,0,0,0,0,0,0,3030120,0,1151160,0,0,1031051,0,0,0,0,0,0,0,1150040,0,0,0,3111070,0,0,0,1081161,0,0,-4081010,0,0,0,0
2,202,675.743450585287,0,0,508614.89917871,508615.946260387,0,30,9,0,0,13,3,3090181,1141131,3131101,3050061,0,0,0,3090181,0,0,0,0,0,0,0,0,-1141131,0,0,0,0,0,0,0,0,0,0,0,0,0,3131101,3050061,0,0,0,0,0,0,0,0
2,203,640.41429234203,1,0,508617.793357539,508618.840423047,0,30,9,0,1,20,7,8341273,2191360,4050111,6331231,0,0,4080201,0,0,2140021,0,0,2121051,0,0,0,0,0,0,1111190,0,1080170,0,-4050111,0,0,0,0,0,0,0,0,0,3160090,0,0,3171141,0,0,0
2,204,595.013746526092,0,0,508620.569858354,508621.616931176,0,30,9,0,0,16,3,0,4171232,2060020,2070120,0,0,0,0,0,0,0,0,0,0,2141171,0,0,0,0,-2030061,0,0,0,0,0,0,0,0,0,0,2060020,0,0,0,0,0,0,0,2070120,0
2,205,1102.146330697,1,0,508623.381660224,508624.428743056,0,30,9,0,1,4,7,13372474,10241193,4201150,0,4051161,0,0,-3180131,0,2100031,0,4041151,0,4070091,2031011,4140091,0,0,0,0,0,0,0,4201150,0,0,0,0,0,0,0,0,0,0,0,0,0,0,0,0
2,206,542.58340166416,1,0,508626.711131101,508627.758200074,0,30,9,0,1,8,3,2021171,0,1061120,5231290,0,0,0,0,0,0,0,-2021171,0,0,0,0,0,0,0,0,0,0,0,0,0,0,0,1061120,0,0,0,1061110,0,0,0,0,4170180,0,0,0
2,207,486.155606748071,0,0,508629.393555564,508630.44058527,0,30,9,1,0,21,3,6162130,0,4140091,2100031,0,0,2111050,4051080,0,0,0,0,0,0,0,0,0,0,0,0,0,0,0,0,-4140091,0,0,0,0,0,0,0,0,0,0,0,2100031,0,0,0
2,208,1392.23323983606,1,0,508632.040622766,508633.087692509,0,30,9,1,1,31,7,4132261,10412384,3080200,3050120,3081100,0,0,1051161,0,0,0,0,0,4120011,4101161,0,1041061,1150151,0,0,0,0,0,0,0,0,0,3080200,0,0,0,0,0,0,-3050120,0,0,0,0,0
2,209,622.467728157062,0,0,508635.558327188,508636.605390387,0,30,9,0,0,26,3,5112241,3101080,2170071,0,0,2101150,3011091,0,0,0,0,0,0,0,0,0,0,3101080,0,0,0,0,0,0,0,0,0,0,0,-2170071,0,0,0,0,0,0,0,0,0,0
2,210,479.21704367036,1,0,508638.405413562,508639.452517951,0,30,9,1,1,15,7,1010201,4361332,1020080,6292482,0,0,0,0,1010201,0,0,0,0,0,0,2171181,0,0,-2190151,0,0,0,0,1020080,0,0,0,0,0,0,0,0,1120190,1111061,3020120,0,1041111,0,0,0
2,211,1116.28138169181,0,0,508640.958405182,508642.00547146,0,30,9,1,0,25,7,4211340,4051131,1140080,10392303,3191190,0,0,0,0,0,1020150,0,0,0,0,0,0,0,0,0,1031091,3020040,0,0,0,0,0,0,-1140080,0,0,0,0,0,0,4191131,2060041,4141131,0,0
2,212,516.905636817683,1,0,508644.299623958,508645.346692161,0,30,9,0,1,9,3,4180130,4050200,4010121,4060160,0,0,0,0,0,0,0,0,-4180130,0,0,0,0,0,0,0,4050200,0,0,0,0,0,4010121,0,0,0,0,4060160,0,0,0,0,0,0,0,0
2,213,1382.55643891171,1,0,508646.923195362,508647.970262025,0,30,9,1,1,11,7,5210251,6372361,2051011,3332102,0,0,3190121,0,0,0,0,2020130,0,2111041,-1101160,0,0,3160160,0,0,0,0,0,0,0,2051011,0,0,0,0,0,0,2201071,0,0,0,0,1131031,0,0
2,214,1132.63728102902,1,0,508650.393839666,508651.440949445,0,30,9,0,1,12,7,5300252,6350131,4120020,7233252,4190091,0,0,0,0,0,0,0,1110161,0,0,-2180050,0,4170081,0,0,0,0,0,0,0,4120020,0,0,0,0,0,3161050,1011051,0,0,0,0,3061151,0,0
2,215,1571.34741049958,1,0,508653.629174522,508654.676258893,0,30,9,1,1,33,7,4180040,7262281,8261230,2232111,0,4180040,0,0,0,0,0,0,0,0,1060101,2081080,0,0,4121100,0,0,0,0,4100200,0,0,0,0,0,4161030,0,0,0,1121030,0,0,-1111081,0,0,0
2,216,613.544683670625,1,0,508657.44100334,508658.488071543,0,30,9,0,1,27,3,7201311,0,2021101,0,0,2070200,0,0,0,0,0,4101031,1030080,0,0,0,0,0,0,0,0,0,0,0,0,0,0,0,0,0,-2021101,0,0,0,0,0,0,0,0,0
2,217,1030.27576743625,0,0,508677.841304226,508678.888373584,0,30,10,0,0,4,7,8280091,7292193,2071031,1030061,0,0,0,-4080040,1100021,3100030,0,0,0,2041011,1071041,0,0,0,4180141,0,0,0,0,0,0,0,0,2071031,0,0,0,1030061,0,0,0,0,0,0,0,0
2,218,843.742600583937,1,0,508681.029633243,508682.076670264,0,30,10,0,1,2,3,7311291,3271270,0,0,3111171,-4200120,0,0,0,0,0,0,0,0,1151170,2120100,0,0,0,0,0,0,0,0,0,0,0,0,0,0,0,0,0,0,0,0,0,0,0,0
2,219,636.405293422285,0,0,508684.111990953,508685.159064931,0,30,10,1,0,31,7,4132261,10412384,3080200,3050120,3081100,0,0,1051161,0,0,0,0,0,4120011,4101161,0,1041061,1150151,0,0,0,0,0,0,0,0,0,3080200,0,0,0,0,0,0,-3050120,0,0,0,0,0
2,220,803.748852398712,1,0,508686.935605396,508687.982631253,0,30,10,1,1,18,3,0,3131020,9302283,0,0,0,0,0,0,0,0,0,0,0,0,0,0,0,0,0,0,-3131020,0,0,3030031,0,0,2171101,0,0,4101151,0,0,0,0,0,0,0,0,0
2,221,717.292832036037,0,0,508689.912081881,508690.959153549,0,30,10,0,0,20,7,15450353,2191061,4241292,1051020,3130101,0,0,4120031,0,0,0,4050050,4150171,0,2191061,0,0,0,0,0,0,0,0,-2110171,0,2131121,0,0,0,0,0,0,0,0,0,0,0,0,0,1051020
2,222,467.470299743582,0,0,508692.818007839,508693.865077582,0,30,10,1,0,22,3,3151160,4122232,1110070,0,3151160,0,0,0,0,0,0,0,0,0,2071201,0,0,0,0,0,0,2051031,0,0,0,-1110070,0,0,0,0,0,0,0,0,0,0,0,0,0,0
2,223,448.771134018898,0,0,508695.488644367,508696.535727583,0,30,10,0,0,26,3,1150110,5121191,4140090,0,0,0,0,0,0,0,1150110,0,0,0,3021111,0,2100080,0,0,0,0,0,0,0,0,0,0,0,0,-4140090,0,0,0,0,0,0,0,0,0,0
2,224,1171.61087878048,1,0,508698.135736206,508699.182806334,0,30,10,0,1,24,7,0,6251162,10252262,4190261,0,0,0,0,0,0,0,0,0,2080101,0,0,0,0,0,0,4171061,0,1071080,0,0,0,4050101,-4090071,0,1041010,0,1170191,0,0,0,3020070,0,0,0,0
2,225,1156.38869383838,1,0,508701.524014331,508702.571086384,0,30,10,1,1,3,3,4200111,1191100,0,6390132,0,0,-4200111,0,0,0,0,0,0,0,0,0,1191100,0,0,0,0,0,0,0,0,0,0,0,0,0,0,0,0,2190061,0,0,4200071,0,0,0
2,226,630.737106432207,0,0,508704.747626695,508705.794666026,0,30,10,0,0,9,3,3161181,3101071,4260202,0,0,0,0,0,0,0,0,0,-3161181,0,0,0,0,0,3101071,0,0,0,0,1080031,0,3180171,0,0,0,0,0,0,0,0,0,0,0,0,0,0
2,227,484.94759463938,1,0,508707.46528831,508708.512346889,0,30,10,1,1,21,3,6162130,0,4140091,2100031,0,0,2111050,4051080,0,0,0,0,0,0,0,0,0,0,0,0,0,0,0,0,-4140091,0,0,0,0,0,0,0,0,0,0,0,2100031,0,0,0
2,228,461.016789311543,0,0,508710.065326576,508711.112392854,0,30,10,1,0,15,7,1010201,4361332,1020080,6292482,0,0,0,0,1010201,0,0,0,0,0,0,2171181,0,0,-2190151,0,0,0,0,1020080,0,0,0,0,0,0,0,0,1120190,1111061,3020120,0,1041111,0,0,0
2,229,972.461722791195,1,0,508712.68889336,508713.735968108,0,30,10,0,1,27,3,0,5271212,3132242,0,0,0,0,0,0,0,0,0,0,0,3111171,0,0,0,2160041,0,0,0,0,2011171,0,0,0,0,0,0,-1121071,0,0,0,0,0,0,0,0,0
2,230,1260.38860762492,1,0,508715.900705086,508716.947784838,0,30,10,0,1,12,3,2111070,1131041,2120140,2051201,0,0,0,0,0,0,0,0,2111070,0,0,-1131041,0,0,0,0,0,0,0,0,0,0,0,0,0,0,2120140,0,0,0,0,2051201,0,0,0,0
2,231,740.772076358553,0,0,508719.359577623,508720.406654681,0,30,10,0,0,16,7,4080110,7171151,11322322,5251202,0,4080110,0,0,0,0,0,0,0,0,0,0,0,0,0,-4131101,0,3040050,0,4101110,0,0,0,3121051,0,4100161,0,2141151,0,0,0,0,0,3110051,0,0
2,232,1075.69748605601,1,0,508722.253746058,508723.300809642,0,30,10,1,1,32,7,5201140,2182211,4261110,5162171,2171020,0,0,0,0,0,0,3030120,0,1151160,0,0,1031051,0,0,0,0,0,0,0,1150040,0,0,0,3111070,0,0,0,1081161,0,0,-4081010,0,0,0,0
2,233,894.931441638619,0,0,508725.536269995,508726.583204231,0,30,10,1,0,25,7,4211340,4051131,1140080,10392303,3191190,0,0,0,0,0,1020150,0,0,0,0,0,0,0,0,0,1031091,3020040,0,0,0,0,0,0,-1140080,0,0,0,0,0,0,4191131,2060041,4141131,0,0
2,234,840.115484432317,1,0,508728.642072303,508729.689139736,0,30,10,1,1,19,3,0,6201210,3131021,2201130,0,0,0,0,0,0,0,0,0,0,0,2091110,0,0,4110100,0,0,0,-3131021,0,0,0,0,0,0,0,0,0,0,0,0,0,0,2201130,0,0
2,235,754.197256581392,1,0,508731.606820907,508732.653894115,0,30,10,0,1,8,7,6110220,4151111,2041171,12463342,0,0,3090150,0,0,0,0,-3020070,0,0,0,0,4151111,0,0,0,0,0,0,2041171,0,0,0,0,0,0,0,0,4091070,0,0,2121161,3070030,3181081,0,0
2,236,683.204407745507,0,0,508734.489219501,508735.536325045,0,30,10,1,0,1,3,3050121,2181111,8301112,0,-3050121,0,0,0,0,0,0,0,0,0,0,0,0,0,0,0,0,2181111,0,4161041,0,0,0,0,0,4140071,0,0,0,0,0,0,0,0,0,0
2,237,557.236227148678,0,0,508737.26572686,508738.312798527,0,30,10,0,0,13,7,1121030,8171112,7081341,7342310,0,0,0,0,1121030,0,0,0,0,0,0,0,-3090061,0,0,3061031,0,2020020,0,0,0,0,0,0,3060141,0,4021200,3201110,0,4141200,0,0,0,0,0,0
2,238,541.17174440762,1,0,508740.006953181,508741.054019459,0,30,10,1,1,33,7,4180040,7262281,8261230,2232111,0,4180040,0,0,0,0,0,0,0,0,1060101,2081080,0,0,4121100,0,0,0,0,4100200,0,0,0,0,0,4161030,0,0,0,1121030,0,0,-1111081,0,0,0
2,239,1396.87473198865,0,0,508742.748166028,508743.795271957,0,30,10,1,0,11,7,5210251,6372361,2051011,3332102,0,0,3190121,0,0,0,0,2020130,0,2111041,-1101160,0,0,3160160,0,0,0,0,0,0,0,2051011,0,0,0,0,0,0,2201071,0,0,0,0,1131031,0,0
2,240,624.970368982758,1,0,508746.301191525,508747.348237785,0,30,10,0,1,30,3,5211151,0,1161131,1171040,0,0,0,0,0,1120051,4091100,0,0,0,0,0,0,0,0,0,0,0,0,0,0,0,0,1161131,0,0,0,0,0,-1171040,0,0,0,0,0,0
2,241,1126.92097370746,0,0,508759.266062162,508760.313163857,0,30,11,0,0,4,3,2181101,2061150,3171190,3170121,0,0,0,-2181101,0,0,0,0,0,0,0,0,0,0,2061150,0,0,0,0,0,0,0,0,0,0,0,3171190,0,0,0,0,0,0,3170121,0,0
2,242,1159.16581288911,1,0,508762.583759347,508763.630828705,0,30,11,0,1,27,7,5121231,4060111,7301401,7261181,0,0,0,0,0,1020151,0,0,4101080,0,0,0,0,4060111,0,0,0,0,4140190,0,0,0,0,0,0,1141140,-2020071,4191120,0,0,0,0,0,3070061,0,0
2,243,664.745073590893,0,0,508765.925016619,508766.972112155,0,30,11,0,0,13,3,0,2081021,2110051,5141300,0,0,0,0,0,0,0,0,0,0,0,0,-2081021,0,0,0,0,0,0,0,0,0,0,0,0,0,2110051,3010180,0,0,0,0,0,2131120,0,0
2,244,910.79612885369,1,0,508768.677966202,508769.725037099,0,30,11,1,1,3,3,4200111,1191100,0,6390132,0,0,-4200111,0,0,0,0,0,0,0,0,0,1191100,0,0,0,0,0,0,0,0,0,0,0,0,0,0,0,0,2190061,0,0,4200071,0,0,0
2,245,1132.53834564239,0,0,508771.807432151,508772.854499199,0,30,11,0,0,30,7,7030271,8180221,5330241,8032232,0,0,0,0,4020090,0,0,0,3010181,0,0,0,0,4110111,0,0,0,4070110,0,0,0,1140150,0,0,0,0,4190091,0,0,-4021081,0,0,0,4011151,0,0
2,246,727.520899148658,1,0,508775.11335911,508776.160431547,0,30,11,1,1,22,3,3151160,4122232,1110070,0,3151160,0,0,0,0,0,0,0,0,0,2071201,0,0,0,0,0,0,2051031,0,0,0,-1110070,0,0,0,0,0,0,0,0,0,0,0,0,0,0
2,247,712.063502171077,1,0,508778.089867161,508779.13692882,0,30,11,0,1,8,7,10542393,6330320,2020150,1180181,0,2131111,2170121,0,0,0,3110091,-3131070,0,0,0,0,0,0,0,2160140,4170180,0,0,0,0,0,0,0,0,2020150,0,0,0,0,0,0,1180181,0,0,0
2,248,1234.13686372805,1,0,508780.94874224,508781.995808903,0,30,11,1,1,31,7,4132261,10412384,3080200,3050120,3081100,0,0,1051161,0,0,0,0,0,4120011,4101161,0,1041061,1150151,0,0,0,0,0,0,0,0,0,3080200,0,0,0,0,0,0,-3050120,0,0,0,0,0
2,249,514.125438057818,1,0,508784.360555813,508785.407623246,0,30,11,1,1,18,3,0,3131020,9302283,0,0,0,0,0,0,0,0,0,0,0,0,0,0,0,0,0,0,-3131020,0,0,3030031,0,0,2171101,0,0,4101151,0,0,0,0,0,0,0,0,0
2,250,1093.88657653471,1,0,508786.948827316,508787.995896674,0,30,11,0,1,26,7,9411661,5350250,1160081,3140180,0,0,0,0,0,2030190,2121170,3090200,2170101,0,0,0,4150110,1200140,0,0,0,0,0,0,0,0,0,0,0,-1160081,0,0,3140180,0,0,0,0,0,0,0
2,251,674.186662479769,0,0,508790.160648666,508791.207712249,0,30,11,1,0,32,7,5201140,2182211,4261110,5162171,2171020,0,0,0,0,0,0,3030120,0,1151160,0,0,1031051,0,0,0,0,0,0,0,1150040,0,0,0,3111070,0,0,0,1081161,0,0,-4081010,0,0,0,0
2,252,615.864082414191,0,0,508793.054803627,508794.10187106,0,30,11,0,0,20,3,0,0,6181172,7211150,0,0,0,0,0,0,0,0,0,0,0,0,0,0,0,0,0,0,0,-2140021,0,0,4041151,0,0,0,0,0,0,0,4110030,0,0,0,3101120,0
2,253,1139.33716737665,1,0,508795.831315991,508796.878391893,0,30,11,0,1,24,7,3212220,10261370,5260130,1151011,0,2091060,1121160,0,0,0,0,0,0,0,0,0,4101080,0,2140120,4020170,0,0,0,0,0,2130060,0,-3130070,0,0,0,1151011,0,0,0,0,0,0,0,0
2,254,1106.76511010388,1,0,508799.19612257,508800.243141498,0,30,11,1,1,1,3,3050121,2181111,8301112,0,-3050121,0,0,0,0,0,0,0,0,0,0,0,0,0,0,0,0,2181111,0,4161041,0,0,0,0,0,4140071,0,0,0,0,0,0,0,0,0,0
2,255,1251.10061874148,0,0,508802.419647163,508803.46672268,0,30,11,1,0,11,7,5210251,6372361,2051011,3332102,0,0,3190121,0,0,0,0,2020130,0,2111041,-1101160,0,0,3160160,0,0,0,0,0,0,0,2051011,0,0,0,0,0,0,2201071,0,0,0,0,1131031,0,0
2,256,521.173715416808,1,0,508805.784414861,508806.83147652,0,30,11,1,1,15,7,1010201,4361332,1020080,6292482,0,0,0,0,1010201,0,0,0,0,0,0,2171181,0,0,-2190151,0,0,0,0,1020080,0,0,0,0,0,0,0,0,1120190,1111061,3020120,0,1041111,0,0,0
2,257,459.197071846575,0,0,508808.384438113,508809.431512091,0,30,11,1,0,21,3,6162130,0,4140091,2100031,0,0,2111050,4051080,0,0,0,0,0,0,0,0,0,0,0,0,0,0,0,0,-4140091,0,0,0,0,0,0,0,0,0,0,0,2100031,0,0,0
2,258,1671.3471795083,0,0,508810.996253919,508812.043322122,0,30,11,1,0,25,7,4211340,4051131,1140080,10392303,3191190,0,0,0,0,0,1020150,0,0,0,0,0,0,0,0,0,1031091,3020040,0,0,0,0,0,0,-1140080,0,0,0,0,0,0,4191131,2060041,4141131,0,0
2,259,1127.04685644712,1,0,508814.878660597,508815.925726105,0,30,11,0,1,2,3,7372383,0,0,3070091,0,-3110161,2171061,2091161,0,0,0,0,0,0,0,0,0,0,0,0,0,0,0,0,0,0,0,0,0,0,0,0,0,0,0,0,0,3070091,0,0
2,260,1190.7134851208,0,0,508818.172834267,508819.219897851,0,30,11,1,0,33,7,4180040,7262281,8261230,2232111,0,4180040,0,0,0,0,0,0,0,0,1060101,2081080,0,0,4121100,0,0,0,0,4100200,0,0,0,0,0,4161030,0,0,0,1121030,0,0,-1111081,0,0,0
2,261,1014.5350380335,0,0,508821.561143574,508822.608196378,0,30,11,0,0,16,3,0,6310231,3010171,0,0,0,0,0,0,0,0,0,0,0,0,0,1100091,4010110,0,-1200030,0,0,0,0,0,0,0,3010171,0,0,0,0,0,0,0,0,0,0,0,0
2,262,602.068183303345,0,0,508824.643509753,508825.690584116,0,30,11,1,0,19,3,0,6201210,3131021,2201130,0,0,0,0,0,0,0,0,0,0,0,2091110,0,0,4110100,0,0,0,-3131021,0,0,0,0,0,0,0,0,0,0,0,0,0,0,2201130,0,0
2,263,605.953609279823,0,0,508827.337684039,508828.384743773,0,30,11,0,0,9,3,8160361,0,4181101,0,4010121,0,0,0,0,0,0,3080110,-1070130,0,0,0,0,0,0,0,0,0,0,4181101,0,0,0,0,0,0,0,0,0,0,0,0,0,0,0,0
2,264,882.474826823454,0,0,508830.114185239,508831.161256907,0,30,11,0,0,12,7,4101131,8201153,4231371,7202321,0,0,0,0,0,0,0,0,4101131,0,0,-3030031,0,4040031,0,0,0,1131091,0,0,0,2110180,0,0,0,2121191,0,3131131,0,0,0,0,0,0,4071190,0
2,265,512.250670930371,0,0,508847.785069682,508848.832120562,0,30,12,1,0,21,3,6162130,0,4140091,2100031,0,0,2111050,4051080,0,0,0,0,0,0,0,0,0,0,0,0,0,0,0,0,-4140091,0,0,0,0,0,0,0,0,0,0,0,2100031,0,0,0
2,266,427.549309388269,1,0,508850.443899412,508851.490974544,0,30,12,0,1,16,7,6342131,7312131,4352281,4020031,0,4151111,0,0,0,0,2191020,0,0,1101030,0,0,2181051,0,0,-4030050,0,0,0,0,3171141,0,1181140,0,0,0,0,0,0,0,0,0,0,4020031,0,0
2,267,567.139385966584,1,0,508853.126296927,508854.173360511,0,30,12,1,1,3,3,4200111,1191100,0,6390132,0,0,-4200111,0,0,0,0,0,0,0,0,0,1191100,0,0,0,0,0,0,0,0,0,0,0,0,0,0,0,0,2190061,0,0,4200071,0,0,0
2,268,908.043262432329,0,0,508855.879280001,508856.92634166,0,30,12,0,0,20,7,6372221,3011111,7242210,1091020,2040120,0,0,0,0,0,1131051,1071040,2130010,0,0,0,0,0,3011111,0,0,0,0,-4061060,0,0,0,0,3181150,0,0,0,0,0,0,0,0,0,0,1091020
2,269,667.310078337323,0,0,508859.044033918,508860.091101736,0,30,12,0,0,27,3,2200141,5322111,1071201,0,0,0,0,0,0,2200141,0,0,0,0,0,0,0,4151021,1171090,0,0,0,0,0,0,0,0,0,0,0,-1071201,0,0,0,0,0,0,0,0,0
2,270,1256.74609298585,1,0,508861.91470925,508862.961730102,0,30,12,1,1,25,7,4211340,4051131,1140080,10392303,3191190,0,0,0,0,0,1020150,0,0,0,0,0,0,0,0,0,1031091,3020040,0,0,0,0,0,0,-1140080,0,0,0,0,0,0,4191131,2060041,4141131,0,0
2,271,583.766298892442,0,0,508865.420650375,508866.467671998,0,30,12,1,0,15,7,1010201,4361332,1020080,6292482,0,0,0,0,1010201,0,0,0,0,0,0,2171181,0,0,-2190151,0,0,0,0,1020080,0,0,0,0,0,0,0,0,1120190,1111061,3020120,0,1041111,0,0,0
2,272,811.098170408513,1,0,508868.244185901,508869.291237551,0,30,12,0,1,2,3,3201121,4160181,3150020,3190041,0,-3201121,0,0,0,0,0,0,0,0,0,0,0,0,0,0,0,4160181,0,0,0,3150020,0,0,0,0,0,0,0,0,0,0,0,0,0,3190041
2,273,533.76891661901,1,0,508871.232500751,508872.279516214,0,30,12,0,1,8,3,2100120,5262122,0,3070161,0,0,0,0,0,0,0,-2100120,0,0,0,0,0,1191081,0,0,4071041,0,0,0,0,0,0,0,0,0,0,0,0,0,0,3070161,0,0,0,0
2,274,845.541530114133,1,0,508873.926597275,508874.973681262,0,30,12,1,1,18,3,0,3131020,9302283,0,0,0,0,0,0,0,0,0,0,0,0,0,0,0,0,0,0,-3131020,0,0,3030031,0,0,2171101,0,0,4101151,0,0,0,0,0,0,0,0,0
2,275,493.662759370636,1,0,508876.92664809,508877.973723992,0,30,12,1,1,22,3,3151160,4122232,1110070,0,3151160,0,0,0,0,0,0,0,0,0,2071201,0,0,0,0,0,0,2051031,0,0,0,-1110070,0,0,0,0,0,0,0,0,0,0,0,0,0,0
2,276,1281.26050130231,0,0,508879.667870561,508880.714948774,0,30,12,1,0,33,7,4180040,7262281,8261230,2232111,0,4180040,0,0,0,0,0,0,0,0,1060101,2081080,0,0,4121100,0,0,0,0,4100200,0,0,0,0,0,4161030,0,0,0,1121030,0,0,-1111081,0,0,0
2,277,605.861603282392,0,0,508883.138551822,508884.185588458,0,30,12,0,0,26,3,4111041,0,4030100,3151170,0,0,0,0,0,0,4111041,0,0,0,0,0,0,0,0,0,0,0,0,0,0,0,0,0,0,-4030100,0,0,0,0,0,0,1081070,2070100,0,0
2,278,996.038747543935,0,0,508885.856204968,508886.903267011,0,30,12,0,0,13,7,6182221,5201362,7370300,2161320,0,0,0,0,4151121,2031100,0,0,0,0,0,0,-2161201,0,0,0,3040161,0,4180160,0,0,0,0,0,0,3190140,0,1131180,0,1030140,0,0,0,0,0,0
2,279,1069.85876068939,0,0,508888.903312822,508889.95038141,0,30,12,0,0,24,7,7162252,4181041,5151211,4091280,0,0,0,0,4141201,0,0,3021051,0,0,0,0,0,0,4181041,0,0,0,0,0,1110080,0,0,-1020040,0,3021091,0,2010120,0,0,0,0,2081160,0,0,0
2,280,815.415524179116,0,0,508892.138645368,508893.185720115,0,30,12,1,0,32,7,5201140,2182211,4261110,5162171,2171020,0,0,0,0,0,0,3030120,0,1151160,0,0,1031051,0,0,0,0,0,0,0,1150040,0,0,0,3111070,0,0,0,1081161,0,0,-4081010,0,0,0,0
2,281,1537.12270938559,1,0,508895.079869687,508896.126939045,0,30,12,1,1,31,7,4132261,10412384,3080200,3050120,3081100,0,0,1051161,0,0,0,0,0,4120011,4101161,0,1041061,1150151,0,0,0,0,0,0,0,0,0,3080200,0,0,0,0,0,0,-3050120,0,0,0,0,0
2,282,925.100563268643,0,0,508898.821098702,508899.868162286,0,30,12,0,0,12,7,4081070,7500381,4180020,8160231,0,0,0,4081070,0,0,0,0,0,0,0,-1170121,0,2170170,0,4160090,0,0,0,0,0,0,0,0,0,0,4180020,4040051,0,1100080,0,0,0,0,3020100,0
2,283,1048.62654209137,0,0,508901.962332184,508903.009427719,0,30,12,0,0,30,3,7210260,0,0,6352152,0,0,0,3080070,0,0,0,4130190,0,0,0,0,0,0,0,0,0,0,0,0,0,0,0,0,0,0,0,0,0,-2201021,4151131,0,0,0,0,0
2,284,1931.25457293354,1,0,508905.185902202,508906.232967326,0,30,12,0,1,4,7,3141121,1020020,10193433,6313360,0,0,0,-3141121,0,0,0,0,0,0,0,1020020,0,0,0,0,0,0,2011191,4061151,0,0,0,4121091,0,0,0,0,2151150,0,0,2091150,0,2071060,0,0
2,285,826.532084669452,0,0,508909.303615248,508910.350686146,0,30,12,0,0,9,3,4331111,0,0,6201141,0,0,0,0,1200050,0,0,0,-3131061,0,0,0,0,0,0,0,0,0,0,0,0,0,0,0,0,0,0,0,0,0,0,3090080,0,3111061,0,0
2,286,1149.98984808335,0,0,508912.374240458,508913.421328679,0,30,12,1,0,11,7,5210251,6372361,2051011,3332102,0,0,3190121,0,0,0,0,2020130,0,2111041,-1101160,0,0,3160160,0,0,0,0,0,0,0,2051011,0,0,0,0,0,0,2201071,0,0,0,0,1131031,0,0
2,287,896.557907923125,1,0,508915.609588402,508916.6566593,0,30,12,1,1,19,3,0,6201210,3131021,2201130,0,0,0,0,0,0,0,0,0,0,0,2091110,0,0,4110100,0,0,0,-3131021,0,0,0,0,0,0,0,0,0,0,0,0,0,0,2201130,0,0
2,288,792.853260354605,1,0,508918.680247489,508919.727297214,0,30,12,1,1,1,3,3050121,2181111,8301112,0,-3050121,0,0,0,0,0,0,0,0,0,0,0,0,0,0,0,0,2181111,0,4161041,0,0,0,0,0,4140071,0,0,0,0,0,0,0,0,0,0
2,289,993.698175880127,1,0,508954.468996654,508955.516073711,0,30,13,1,1,32,7,5201140,2182211,4261110,5162171,2171020,0,0,0,0,0,0,3030120,0,1151160,0,0,1031051,0,0,0,0,0,0,0,1150040,0,0,0,3111070,0,0,0,1081161,0,0,-4081010,0,0,0,0
2,290,666.313795547467,0,0,508957.692579376,508958.739646039,0,30,13,1,0,18,3,0,3131020,9302283,0,0,0,0,0,0,0,0,0,0,0,0,0,0,0,0,0,0,-3131020,0,0,3030031,0,0,2171101,0,0,4101151,0,0,0,0,0,0,0,0,0
2,291,889.519639546052,1,0,508960.469090584,508961.516162252,0,30,13,0,1,2,7,10311340,0,4262251,8091122,1090070,-3100080,0,0,4090100,0,0,2031090,0,0,0,0,0,0,0,0,0,0,0,0,2131050,0,0,0,0,0,2131201,0,0,0,0,4060031,0,4031091,0,0
2,292,1051.45871080458,1,0,508963.410322988,508964.457378102,0,30,13,1,1,25,7,4211340,4051131,1140080,10392303,3191190,0,0,0,0,0,1020150,0,0,0,0,0,0,0,0,0,1031091,3020040,0,0,0,0,0,0,-1140080,0,0,0,0,0,0,4191131,2060041,4141131,0,0
2,293,649.28613678785,1,0,508966.610356403,508967.657431535,0,30,13,0,1,4,3,6230201,0,3301231,0,0,0,0,-2180080,4050121,0,0,0,0,0,0,0,0,0,0,0,0,0,0,0,0,0,2131171,1170060,0,0,0,0,0,0,0,0,0,0,0,0
2,294,504.885954433121,0,0,508969.339807877,508970.38687608,0,30,13,1,0,22,3,3151160,4122232,1110070,0,3151160,0,0,0,0,0,0,0,0,0,2071201,0,0,0,0,0,0,2051031,0,0,0,-1110070,0,0,0,0,0,0,0,0,0,0,0,0,0,0
2,295,540.630872186739,1,0,508972.034011036,508973.081036508,0,30,13,0,1,26,3,0,0,1030120,7382151,0,0,0,0,0,0,0,0,0,0,0,0,0,0,0,0,0,0,0,0,0,0,0,0,0,-1030120,0,1161040,0,0,0,0,2061091,0,0,4160020
2,296,1614.35194994556,0,0,508974.822242041,508975.869311399,0,30,13,1,0,11,7,5210251,6372361,2051011,3332102,0,0,3190121,0,0,0,0,2020130,0,2111041,-1101160,0,0,3160160,0,0,0,0,0,0,0,2051011,0,0,0,0,0,0,2201071,0,0,0,0,1131031,0,0
2,297,435.25548762409,1,0,508978.563482221,508979.610546574,0,30,13,1,1,21,3,6162130,0,4140091,2100031,0,0,2111050,4051080,0,0,0,0,0,0,0,0,0,0,0,0,0,0,0,0,-4140091,0,0,0,0,0,0,0,0,0,0,0,2100031,0,0,0
2,298,986.39967298368,0,0,508981.222340822,508982.269415185,0,30,13,0,0,16,7,6051201,10342421,1121081,1011040,0,0,0,0,0,0,3020110,3031091,0,1171190,2080200,3061011,0,0,0,-4030020,0,0,0,0,0,0,0,0,1121081,0,0,0,0,0,0,0,1011040,0,0,0
2,299,581.336800882127,0,0,508984.31650841,508985.375396115,0,30,13,0,0,27,3,0,2051181,5140380,2071011,0,0,0,0,0,0,0,0,0,0,0,0,2051181,0,0,0,0,0,0,0,0,0,0,0,0,3110190,-2030190,0,0,0,0,0,2071011,0,0,0
2,300,444.704390771221,0,0,508987.093020004,508988.140084742,0,30,13,1,0,15,7,1010201,4361332,1020080,6292482,0,0,0,0,1010201,0,0,0,0,0,0,2171181,0,0,-2190151,0,0,0,0,1020080,0,0,0,0,0,0,0,0,1120190,1111061,3020120,0,1041111,0,0,0
2,301,523.806473531295,1,0,508989.70484043,508990.751889385,0,30,13,0,1,20,7,7281291,1120060,6361411,1190091,0,3061070,0,0,2100091,2120130,0,0,0,0,0,0,0,0,0,1120060,0,0,0,-2080041,0,0,0,2121200,0,2160170,0,0,0,1190091,0,0,0,0,0,0
2,302,642.342954117339,0,0,508992.434277661,508993.481343939,0,30,13,1,0,19,3,0,6201210,3131021,2201130,0,0,0,0,0,0,0,0,0,0,0,2091110,0,0,4110100,0,0,0,-3131021,0,0,0,0,0,0,0,0,0,0,0,0,0,0,2201130,0,0
2,303,1253.43041145243,0,0,508995.199013638,508996.24608954,0,30,13,0,0,30,7,4172171,3051121,11391433,6151040,0,0,0,2061040,0,2111131,0,0,0,0,0,0,0,0,0,0,0,3051121,0,4191201,0,4140181,0,0,0,0,3060051,0,0,-4080030,0,0,0,2071010,0,0
2,304,611.808888032101,1,0,508998.622597823,508999.669711837,0,30,13,0,1,13,7,1081201,3201210,13513422,3021010,1081201,0,0,0,0,0,0,0,0,0,0,0,-1031160,0,2170050,0,0,0,3131121,0,0,4031100,0,0,2160070,4191131,0,3021010,0,0,0,0,0,0,0,0
2,305,762.080902524758,0,0,509001.328528093,509002.375592446,0,30,13,1,0,1,3,3050121,2181111,8301112,0,-3050121,0,0,0,0,0,0,0,0,0,0,0,0,0,0,0,0,2181111,0,4161041,0,0,0,0,0,4140071,0,0,0,0,0,0,0,0,0,0
2,306,556.753099255729,0,0,509004.31681946,509005.363878424,0,30,13,0,0,9,3,3131050,7082091,0,2110071,0,0,0,0,0,0,0,0,-3131050,0,0,0,0,3011060,0,0,4071031,0,0,0,0,0,0,0,0,0,0,0,2110071,0,0,0,0,0,0,0
2,307,742.142927658279,1,0,509006.940375851,509007.987437509,0,30,13,0,1,24,3,0,5171211,3010070,4081160,0,0,0,0,0,0,0,0,0,0,0,0,0,0,0,4151131,0,1020080,0,0,0,0,0,-3010070,0,0,0,0,0,0,0,0,0,0,4081160,0
2,308,794.377711601555,0,0,509009.90512484,509010.952189963,0,30,13,0,0,12,7,0,6141101,5321110,7352463,0,0,0,0,0,0,0,0,0,0,0,-2101021,0,0,0,0,4040080,0,0,0,4141030,0,0,1180080,0,0,0,0,3080161,2071091,0,0,0,1030040,1171171,0
2,309,686.462729761843,0,0,509012.811047333,509013.858123235,0,30,13,1,0,33,7,4180040,7262281,8261230,2232111,0,4180040,0,0,0,0,0,0,0,0,1060101,2081080,0,0,4121100,0,0,0,0,4100200,0,0,0,0,0,4161030,0,0,0,1121030,0,0,-1111081,0,0,0
2,310,995.620678353589,1,0,509015.575788315,509016.622868067,0,30,13,1,1,31,7,4132261,10412384,3080200,3050120,3081100,0,0,1051161,0,0,0,0,0,4120011,4101161,0,1041061,1150151,0,0,0,0,0,0,0,0,0,3080200,0,0,0,0,0,0,-3050120,0,0,0,0,0
2,311,646.157547016628,1,0,509018.811137799,509019.858205232,0,30,13,1,1,3,3,4200111,1191100,0,6390132,0,0,-4200111,0,0,0,0,0,0,0,0,0,1191100,0,0,0,0,0,0,0,0,0,0,0,0,0,0,0,0,2190061,0,0,4200071,0,0,0
2,312,564.733370731119,1,0,509021.587711757,509022.634708742,0,30,13,0,1,8,3,3101160,3342231,0,3161080,0,0,0,0,0,0,0,-3101160,0,0,0,0,1151061,0,0,2191170,0,0,0,0,0,0,0,0,0,0,0,0,0,0,0,0,0,0,3161080,0
2,313,1333.09299952816,1,0,509039.97621239,509041.023231317,0,30,14,0,1,12,7,1020031,1130081,5340180,12531483,0,0,0,0,0,0,0,0,1020031,0,0,-1130081,0,0,0,0,0,0,0,0,4150030,0,1190150,0,0,0,0,2201190,0,0,0,0,3150071,3040141,4140081,0
2,314,664.147996809334,0,0,509043.387979383,509044.435047971,0,30,14,1,0,19,3,0,6201210,3131021,2201130,0,0,0,0,0,0,0,0,0,0,0,2091110,0,0,4110100,0,0,0,-3131021,0,0,0,0,0,0,0,0,0,0,0,0,0,0,2201130,0,0
2,315,694.180456863251,0,0,509046.12919377,509047.176257353,0,30,14,0,0,16,3,7022081,3150131,0,1140180,0,0,4011050,0,0,0,0,0,3011031,0,0,0,0,0,0,-3150131,0,0,0,0,0,0,0,0,0,0,0,0,0,0,0,0,1140180,0,0,0
2,316,1075.39028604515,1,0,509048.952772411,509049.999842154,0,30,14,0,1,4,7,3031190,14584311,4011011,3111151,0,0,0,-3031190,0,0,0,0,0,0,3071080,0,0,0,3171041,4161120,0,4181070,0,0,0,0,0,4011011,0,0,0,2090080,0,0,0,0,0,0,1021071,0
2,317,431.850879744161,0,0,509052.129281541,509053.176353594,0,30,14,1,0,21,3,6162130,0,4140091,2100031,0,0,2111050,4051080,0,0,0,0,0,0,0,0,0,0,0,0,0,0,0,0,-4140091,0,0,0,0,0,0,0,0,0,0,0,2100031,0,0,0
2,318,1063.01066378364,1,0,509054.788152462,509055.835211426,0,30,14,0,1,26,3,1110070,5200231,2171011,0,0,0,0,1110070,0,0,0,0,0,0,0,3110071,0,0,0,2090160,0,0,0,0,0,0,0,0,0,-2171011,0,0,0,0,0,0,0,0,0,0
2,319,643.583688128274,1,0,509058.070554366,509059.117616409,0,30,14,1,1,33,7,4180040,7262281,8261230,2232111,0,4180040,0,0,0,0,0,0,0,0,1060101,2081080,0,0,4121100,0,0,0,0,4100200,0,0,0,0,0,4161030,0,0,0,1121030,0,0,-1111081,0,0,0
2,320,767.874202341773,1,0,509060.882356621,509061.929436373,0,30,14,0,1,13,7,4040111,9312313,13322581,0,0,0,4040111,0,0,0,0,0,0,0,0,0,-2181071,0,3101201,0,4030041,0,0,0,4050140,0,0,0,4051140,2071130,3150171,0,0,0,0,0,0,0,0,0
2,321,452.910250169225,0,0,509063.835348857,509064.882410901,0,30,14,1,0,15,7,1010201,4361332,1020080,6292482,0,0,0,0,1010201,0,0,0,0,0,0,2171181,0,0,-2190151,0,0,0,0,1020080,0,0,0,0,0,0,0,0,1120190,1111061,3020120,0,1041111,0,0,0
2,322,551.691228116397,1,0,509066.388337398,509067.435399441,0,30,14,1,1,18,3,0,3131020,9302283,0,0,0,0,0,0,0,0,0,0,0,0,0,0,0,0,0,0,-3131020,0,0,3030031,0,0,2171101,0,0,4101151,0,0,0,0,0,0,0,0,0
2,323,581.051158718765,1,0,509069.200128489,509070.247190918,0,30,14,0,1,20,3,0,1151170,8401422,0,0,0,0,0,0,0,0,0,0,0,0,0,0,0,0,1151170,0,0,4171201,-2070061,0,0,0,0,0,0,2160160,0,0,0,0,0,0,0,0,0
2,324,899.250720220152,0,0,509071.917818592,509072.964889489,0,30,14,0,0,27,7,3011191,3071072,3111262,8391181,0,0,0,0,0,0,0,0,3011191,0,0,2031011,0,0,0,1040061,0,0,1090121,0,0,0,0,0,0,0,-2021141,4081061,0,3110070,0,0,0,1200050,0,0
2,325,939.755313564092,1,0,509074.953176622,509076.000271772,0,30,14,1,1,32,7,5201140,2182211,4261110,5162171,2171020,0,0,0,0,0,0,3030120,0,1151160,0,0,1031051,0,0,0,0,0,0,0,1150040,0,0,0,3111070,0,0,0,1081161,0,0,-4081010,0,0,0,0
2,326,1216.70768910553,0,0,509077.953203569,509079.000266768,0,30,14,0,0,8,3,6311330,0,2181050,3190161,0,3130180,0,0,0,0,0,-3181150,0,0,0,0,0,0,0,0,0,0,0,0,0,0,0,2181050,0,0,0,0,0,3190161,0,0,0,0,0,0
2,327,1049.11505943164,0,0,509081.37683549,509082.423845948,0,30,14,1,0,31,7,4132261,10412384,3080200,3050120,3081100,0,0,1051161,0,0,0,0,0,4120011,4101161,0,1041061,1150151,0,0,0,0,0,0,0,0,0,3080200,0,0,0,0,0,0,-3050120,0,0,0,0,0
2,328,1224.47777102934,0,0,509084.494478088,509085.541542826,0,30,14,0,0,24,3,6282332,2171020,1020081,0,0,2201201,0,0,0,0,4081131,0,0,0,2171020,0,0,0,0,0,0,0,0,0,0,0,0,-1020081,0,0,0,0,0,0,0,0,0,0,0,0
2,329,528.332476969808,1,0,509087.894525669,509088.941599261,0,30,14,1,1,22,3,3151160,4122232,1110070,0,3151160,0,0,0,0,0,0,0,0,0,2071201,0,0,0,0,0,0,2051031,0,0,0,-1110070,0,0,0,0,0,0,0,0,0,0,0,0,0,0
2,330,579.998671426438,0,0,509090.529859986,509091.576922799,0,30,14,0,0,9,3,1190181,3320182,4120140,0,0,0,0,0,0,0,0,0,-1190181,0,1170061,0,0,0,0,2150121,0,0,0,0,0,4120140,0,0,0,0,0,0,0,0,0,0,0,0,0,0
2,331,1169.34037022293,1,0,509093.200486504,509094.247555862,0,30,14,0,1,30,7,2151111,3231433,2151110,9421321,0,2151111,0,0,0,0,0,0,0,0,0,0,1100191,1070191,0,0,0,1061051,0,0,0,0,0,0,0,0,2151110,0,0,-3080080,0,2201170,4140071,0,0,0
2,332,877.048011345323,0,0,509096.529950837,509097.57701519,0,30,14,1,0,3,3,4200111,1191100,0,6390132,0,0,-4200111,0,0,0,0,0,0,0,0,0,1191100,0,0,0,0,0,0,0,0,0,0,0,0,0,0,0,0,2190061,0,0,4200071,0,0,0
2,333,1744.20440156246,1,0,509099.647646944,509100.694714763,0,30,14,1,1,11,7,5210251,6372361,2051011,3332102,0,0,3190121,0,0,0,0,2020130,0,2111041,-1101160,0,0,3160160,0,0,0,0,0,0,0,2051011,0,0,0,0,0,0,2201071,0,0,0,0,1131031,0,0
2,334,1136.7040242767,0,0,509103.518294174,509104.565361992,0,30,14,1,0,25,7,4211340,4051131,1140080,10392303,3191190,0,0,0,0,0,1020150,0,0,0,0,0,0,0,0,0,1031091,3020040,0,0,0,0,0,0,-1140080,0,0,0,0,0,0,4191131,2060041,4141131,0,0
2,335,782.632507500239,0,0,509106.777164094,509107.824231912,0,30,14,1,0,1,3,3050121,2181111,8301112,0,-3050121,0,0,0,0,0,0,0,0,0,0,0,0,0,0,0,0,2181111,0,4161041,0,0,0,0,0,4140071,0,0,0,0,0,0,0,0,0,0
2,336,834.600127534941,0,0,509109.62426856,509110.671334838,0,30,14,0,0,2,7,11383332,1150151,4101131,1111021,0,-3121020,0,3021081,0,0,3141081,0,2100150,0,1150151,0,0,0,0,0,0,0,0,0,0,0,3011040,0,1090091,0,0,1111021,0,0,0,0,0,0,0,0
2,337,1265.74959460413,0,0,509124.0009674,509125.048025209,0,30,15,0,0,12,3,1071080,1070060,0,6221351,0,0,1071080,0,0,0,0,0,0,0,0,-1070060,0,0,0,0,0,0,0,0,0,0,0,0,0,0,0,0,0,4040181,0,2181170,0,0,0,0
2,338,875.105875777081,0,0,509127.51864603,509128.565710768,0,30,15,0,0,24,3,0,0,10431501,4110010,0,0,0,0,0,0,0,0,0,0,0,0,0,0,0,0,0,0,3051200,0,0,0,0,-4180151,3200150,0,0,0,0,0,4110010,0,0,0,0,0
2,339,905.936747905798,0,0,509130.506928543,509131.554004445,0,30,15,0,0,13,7,4202450,4060141,4130020,5262323,1010140,0,0,0,2131150,0,0,0,1061160,0,0,0,-4060141,0,0,0,0,0,0,0,4130020,0,0,0,0,0,0,0,0,0,0,0,0,2181111,1061141,2020071
2,340,491.630927601364,1,0,509133.554038322,509134.60110229,0,30,15,1,1,15,7,1010201,4361332,1020080,6292482,0,0,0,0,1010201,0,0,0,0,0,0,2171181,0,0,-2190151,0,0,0,0,1020080,0,0,0,0,0,0,0,0,1120190,1111061,3020120,0,1041111,0,0,0
2,341,540.357933787163,0,0,509136.095248551,509137.142317524,0,30,15,1,0,19,3,0,6201210,3131021,2201130,0,0,0,0,0,0,0,0,0,0,0,2091110,0,0,4110100,0,0,0,-3131021,0,0,0,0,0,0,0,0,0,0,0,0,0,0,2201130,0,0
2,342,419.615233433433,1,0,509138.801169582,509139.848241634,0,30,15,1,1,21,3,6162130,0,4140091,2100031,0,0,2111050,4051080,0,0,0,0,0,0,0,0,0,0,0,0,0,0,0,0,-4140091,0,0,0,0,0,0,0,0,0,0,0,2100031,0,0,0
2,343,746.672010805923,0,0,509141.365978394,509142.412978459,0,30,15,1,0,18,3,0,3131020,9302283,0,0,0,0,0,0,0,0,0,0,0,0,0,0,0,0,0,0,-3131020,0,0,3030031,0,0,2171101,0,0,4101151,0,0,0,0,0,0,0,0,0
2,344,913.016592210624,1,0,509144.236545552,509145.283605285,0,30,15,0,1,30,3,0,4061040,5231291,3070201,0,0,0,0,0,0,0,0,0,4061040,0,0,0,0,0,0,0,0,0,0,0,0,0,0,0,3171180,2060111,0,0,-3070201,0,0,0,0,0,0
2,345,1132.24384939531,1,0,509147.354254748,509148.401306012,0,30,15,1,1,3,3,4200111,1191100,0,6390132,0,0,-4200111,0,0,0,0,0,0,0,0,0,1191100,0,0,0,0,0,0,0,0,0,0,0,0,0,0,0,0,2190061,0,0,4200071,0,0,0
2,346,1204.24491498852,1,0,509150.554285468,509151.601355211,0,30,15,0,1,16,7,7221372,8442320,4071111,6211281,4121191,0,3100181,0,0,0,0,0,0,3171040,0,0,0,0,0,-1181190,4090090,0,0,0,0,0,0,4071111,0,0,0,0,2081090,0,0,0,4130191,0,0,0
2,347,584.634389146231,1,0,509153.930805684,509154.977873888,0,30,15,0,1,2,3,7262031,4201171,3031051,0,0,-3171020,0,0,0,0,0,4091011,0,4201171,0,0,0,0,0,0,0,0,3031051,0,0,0,0,0,0,0,0,0,0,0,0,0,0,0,0,0
2,348,847.729656612501,1,0,509156.683799152,509157.730892378,0,30,15,0,1,4,3,3101160,2170130,5110221,0,0,0,0,-3101160,0,0,0,0,0,0,0,2170130,0,0,0,0,0,0,0,2070161,0,0,0,3040060,0,0,0,0,0,0,0,0,0,0,0,0
2,349,592.152705707122,0,0,509159.601478014,509160.648532358,0,30,15,0,0,8,7,7321402,2091170,9352123,2080031,3180180,0,0,0,0,0,0,-2030041,2111181,0,2091170,0,0,0,0,0,0,0,3011011,0,0,0,3150041,0,0,3191071,0,0,0,2080031,0,0,0,0,0,0
2,350,1405.66688927356,0,0,509162.378072759,509163.42506397,0,30,15,1,0,25,7,4211340,4051131,1140080,10392303,3191190,0,0,0,0,0,1020150,0,0,0,0,0,0,0,0,0,1031091,3020040,0,0,0,0,0,0,-1140080,0,0,0,0,0,0,4191131,2060041,4141131,0,0
2,351,1597.74043556536,0,0,509165.848636991,509166.895700959,0,30,15,1,0,33,7,4180040,7262281,8261230,2232111,0,4180040,0,0,0,0,0,0,0,0,1060101,2081080,0,0,4121100,0,0,0,0,4100200,0,0,0,0,0,4161030,0,0,0,1121030,0,0,-1111081,0,0,0
2,352,1429.154987738,0,0,509169.660450025,509170.707517074,0,30,15,1,0,11,7,5210251,6372361,2051011,3332102,0,0,3190121,0,0,0,0,2020130,0,2111041,-1101160,0,0,3160160,0,0,0,0,0,0,0,2051011,0,0,0,0,0,0,2201071,0,0,0,0,1131031,0,0
2,353,528.471833385993,1,0,509173.331126589,509174.378169385,0,30,15,0,1,9,7,7091241,2011171,12514573,0,0,0,0,0,0,0,3071190,0,-4020051,2011171,0,0,0,0,0,0,0,0,0,3091101,2061170,0,1060011,3151190,3151101,0,0,0,0,0,0,0,0,0,0,0
2,354,457.615261140745,1,0,509176.048782815,509177.095849093,0,30,15,1,1,22,3,3151160,4122232,1110070,0,3151160,0,0,0,0,0,0,0,0,0,2071201,0,0,0,0,0,0,2051031,0,0,0,-1110070,0,0,0,0,0,0,0,0,0,0,0,0,0,0
2,355,518.621799419634,0,0,509178.754706925,509179.801774743,0,30,15,0,0,20,7,0,13382321,5261210,6350290,0,0,0,0,0,0,0,0,0,4121180,2181081,3010020,0,0,0,0,0,4070040,0,-3150110,0,0,0,0,0,0,2111100,0,0,0,0,4200140,0,0,0,2150150
2,356,449.92563634878,0,0,509181.472427054,509182.51946138,0,30,15,0,0,27,3,4221241,0,4061071,0,0,3041101,0,0,0,1180140,0,0,0,0,0,0,0,0,0,0,0,0,0,0,0,0,0,0,0,2010010,-2051061,0,0,0,0,0,0,0,0,0
2,357,1711.34169760626,0,0,509184.037138086,509185.084208983,0,30,15,1,0,32,7,5201140,2182211,4261110,5162171,2171020,0,0,0,0,0,0,3030120,0,1151160,0,0,1031051,0,0,0,0,0,0,0,1150040,0,0,0,3111070,0,0,0,1081161,0,0,-4081010,0,0,0,0
2,358,1145.00881906133,1,0,509187.884254871,509188.931325769,0,30,15,1,1,31,7,4132261,10412384,3080200,3050120,3081100,0,0,1051161,0,0,0,0,0,4120011,4101161,0,1041061,1150151,0,0,0,0,0,0,0,0,0,3080200,0,0,0,0,0,0,-3050120,0,0,0,0,0
2,359,906.063015572727,1,0,509191.237248108,509192.284319006,0,30,15,1,1,1,3,3050121,2181111,8301112,0,-3050121,0,0,0,0,0,0,0,0,0,0,0,0,0,0,0,0,2181111,0,4161041,0,0,0,0,0,4140071,0,0,0,0,0,0,0,0,0,0
2,360,771.487844758667,0,0,509194.366710593,509195.413773791,0,30,15,0,0,26,7,1151090,9241193,8212342,2090010,1151090,0,0,0,0,0,0,0,0,4060061,0,0,0,2050011,0,0,3131121,0,4080131,0,0,2121041,0,0,0,-2011170,0,0,0,0,0,0,0,0,2090010,0
2,361,598.695142427459,0,0,509212.543443771,509213.590519288,0,30,16,0,0,26,3,1051130,0,6130181,1181060,0,1051130,0,0,0,0,0,0,0,0,0,0,0,0,0,0,0,0,0,4010090,0,0,0,0,0,-2120091,0,0,0,0,0,0,0,1181060,0,0
2,362,664.686174364761,1,0,509215.343495432,509216.390582884,0,30,16,1,1,18,3,0,3131020,9302283,0,0,0,0,0,0,0,0,0,0,0,0,0,0,0,0,0,0,-3131020,0,0,3030031,0,0,2171101,0,0,4101151,0,0,0,0,0,0,0,0,0
2,363,459.739868936595,0,0,509218.190589505,509219.237664252,0,30,16,1,0,21,3,6162130,0,4140091,2100031,0,0,2111050,4051080,0,0,0,0,0,0,0,0,0,0,0,0,0,0,0,0,-4140091,0,0,0,0,0,0,0,0,0,0,0,2100031,0,0,0
2,364,459.737174154725,0,0,509220.896520159,509221.943588362,0,30,16,0,0,16,7,0,7323411,4060332,10362291,0,0,0,0,0,0,0,0,0,0,2081041,0,3091180,0,0,-2151190,0,0,0,0,0,0,0,0,0,1050171,3010161,0,0,4161060,3140111,0,0,0,0,3061120
2,365,485.082331462763,1,0,509223.614203332,509224.66127192,0,30,16,0,1,8,3,2160301,0,3200010,2170191,0,0,0,0,0,0,1140101,-1020200,0,0,0,0,0,0,0,0,0,0,0,0,0,0,3200010,0,0,0,0,0,0,0,0,0,0,2170191,0,0
2,366,638.531440985389,0,0,509226.249540729,509227.296609317,0,30,16,1,0,33,7,4180040,7262281,8261230,2232111,0,4180040,0,0,0,0,0,0,0,0,1060101,2081080,0,0,4121100,0,0,0,0,4100200,0,0,0,0,0,4161030,0,0,0,1121030,0,0,-1111081,0,0,0
2,367,655.440531321801,1,0,509228.990751651,509230.037826014,0,30,16,1,1,31,7,4132261,10412384,3080200,3050120,3081100,0,0,1051161,0,0,0,0,0,4120011,4101161,0,1041061,1150151,0,0,0,0,0,0,0,0,0,3080200,0,0,0,0,0,0,-3050120,0,0,0,0,0
2,368,504.821665759664,0,0,509231.76731329,509232.814339917,0,30,16,0,0,27,7,6212141,5170061,4121152,7190140,0,0,0,0,2091091,4121050,0,0,0,0,2010051,0,0,0,0,0,3160010,0,0,0,1011141,0,0,0,0,0,-3110011,0,0,0,0,0,4010070,0,0,3180070
2,369,411.432086781133,0,0,509234.35555977,509235.402611805,0,30,16,1,0,15,7,1010201,4361332,1020080,6292482,0,0,0,0,1010201,0,0,0,0,0,0,2171181,0,0,-2190151,0,0,0,0,1020080,0,0,0,0,0,0,0,0,1120190,1111061,3020120,0,1041111,0,0,0
2,370,1073.54439108167,0,0,509237.014411828,509238.061478491,0,30,16,0,0,12,3,0,4321310,0,5051071,0,0,0,0,0,0,0,0,0,0,2170160,-2151150,0,0,0,0,0,0,0,0,0,0,0,0,0,0,0,0,1040030,0,0,0,4011041,0,0,0
2,371,813.146555563435,1,0,509240.296804108,509241.343873851,0,30,16,0,1,30,7,0,6250342,2041131,13603552,0,0,0,0,0,0,0,0,0,2080181,4170161,0,0,0,0,0,0,0,0,0,0,0,0,0,0,2041131,0,1120141,0,-4101060,0,4190200,3171100,1021051,0,0
2,372,711.154220916796,1,0,509243.343968936,509244.39098132,0,30,16,0,1,4,3,2081121,3261371,0,1051200,0,0,0,-2081121,0,0,0,0,0,1091181,0,0,0,0,0,0,0,2170190,0,0,0,0,0,0,0,0,0,0,0,0,1051200,0,0,0,0,0
2,373,1477.57402400021,0,0,509246.167485599,509247.214551492,0,30,16,1,0,11,7,5210251,6372361,2051011,3332102,0,0,3190121,0,0,0,0,2020130,0,2111041,-1101160,0,0,3160160,0,0,0,0,0,0,0,2051011,0,0,0,0,0,0,2201071,0,0,0,0,1131031,0,0
2,374,923.345904506277,0,1,509249.814596302,509250.86166027,0,30,16,1,1,3,3,4200111,1191100,0,6390132,0,0,-4200111,0,0,0,0,0,0,0,0,0,1191100,0,0,0,0,0,0,0,0,0,0,0,0,0,0,0,0,2190061,0,0,4200071,0,0,0
2,375,785.897758963984,1,0,509252.944057632,509253.99117434,0,30,16,1,1,19,3,0,6201210,3131021,2201130,0,0,0,0,0,0,0,0,0,0,0,2091110,0,0,4110100,0,0,0,-3131021,0,0,0,0,0,0,0,0,0,0,0,0,0,0,2201130,0,0
2,376,524.237246543635,1,0,509255.955860965,509257.002927243,0,30,16,1,1,22,3,3151160,4122232,1110070,0,3151160,0,0,0,0,0,0,0,0,0,2071201,0,0,0,0,0,0,2051031,0,0,0,-1110070,0,0,0,0,0,0,0,0,0,0,0,0,0,0
2,377,1259.22717590583,0,0,509258.614718797,509259.661801629,0,30,16,1,0,25,7,4211340,4051131,1140080,10392303,3191190,0,0,0,0,0,1020150,0,0,0,0,0,0,0,0,0,1031091,3020040,0,0,0,0,0,0,-1140080,0,0,0,0,0,0,4191131,2060041,4141131,0,0
2,378,479.987738537602,1,0,509261.95601264,509263.003022329,0,30,16,0,1,9,3,8180210,0,2181140,2081130,0,0,4040170,0,0,0,0,0,-4140040,0,0,0,0,0,0,0,0,0,0,0,0,2181140,0,0,0,0,0,0,2081130,0,0,0,0,0,0,0
2,379,1074.33933857828,1,0,509264.579523606,509265.626587574,0,30,16,0,1,24,7,3311171,1160051,1040080,11632251,0,1120041,0,0,0,0,0,0,2191130,0,0,0,0,0,0,0,1160051,0,0,0,0,0,0,-1040080,0,0,0,0,0,0,2111061,4191150,4190010,0,0,1140030
2,380,912.114625214599,1,0,509267.720746693,509268.767808351,0,30,16,1,1,32,7,5201140,2182211,4261110,5162171,2171020,0,0,0,0,0,0,3030120,0,1151160,0,0,1031051,0,0,0,0,0,0,0,1150040,0,0,0,3111070,0,0,0,1081161,0,0,-4081010,0,0,0,0
2,381,872.015397297218,0,0,509270.861963621,509271.909077249,0,30,16,0,0,2,7,10392443,5362262,5121332,0,0,-1010121,0,0,4191151,1040041,0,4151130,0,0,0,0,0,0,3171181,2191081,0,0,0,0,0,0,1091201,0,0,0,4030131,0,0,0,0,0,0,0,0,0
2,382,1207.61141151888,0,0,509273.897307793,509274.94438023,0,30,16,0,0,20,7,8313112,5081210,6191251,3180161,3121030,2181071,3011011,0,0,0,0,0,0,0,0,0,1041190,0,0,4040020,0,0,0,-4061161,0,0,0,0,0,2130090,0,0,0,0,0,0,0,3180161,0,0
2,383,889.651681645773,1,0,509277.25029718,509278.297373082,0,30,16,1,1,1,3,3050121,2181111,8301112,0,-3050121,0,0,0,0,0,0,0,0,0,0,0,0,0,0,0,0,2181111,0,4161041,0,0,0,0,0,4140071,0,0,0,0,0,0,0,0,0,0
2,384,572.800258698408,0,0,509280.27387536,509281.320943178,0,30,16,0,0,13,3,0,7111070,1101121,1081130,0,0,0,0,0,0,0,0,0,0,0,0,-4070060,0,3041010,0,0,0,0,0,0,0,1101121,0,0,0,0,1081130,0,0,0,0,0,0,0,0
2,385,515.277245664038,0,0,509297.215290235,509298.262376916,0,30,17,0,0,9,3,2030081,6372291,0,2120121,0,0,0,0,0,0,0,0,-2030081,0,0,0,0,0,0,4171121,2201170,0,0,0,0,0,0,0,0,0,0,0,0,0,0,2120121,0,0,0,0
2,386,572.607392561622,0,0,509299.933000355,509300.980064324,0,30,17,0,0,8,3,1091181,0,6271401,3051180,0,0,0,0,0,0,0,-1091181,0,0,0,0,0,0,0,0,0,0,3181200,0,0,3090201,0,0,0,0,0,0,0,3051180,0,0,0,0,0,0
2,387,705.922966299113,0,0,509302.697744802,509303.744795682,0,30,17,1,0,1,3,3050121,2181111,8301112,0,-3050121,0,0,0,0,0,0,0,0,0,0,0,0,0,0,0,0,2181111,0,4161041,0,0,0,0,0,4140071,0,0,0,0,0,0,0,0,0,0
2,388,1093.9631841029,0,0,509305.544880065,509306.591916701,0,30,17,1,0,32,7,5201140,2182211,4261110,5162171,2171020,0,0,0,0,0,0,3030120,0,1151160,0,0,1031051,0,0,0,0,0,0,0,1150040,0,0,0,3111070,0,0,0,1081161,0,0,-4081010,0,0,0,0
2,389,1381.71260122908,0,0,509308.897852514,509309.944963448,0,30,17,1,0,18,3,0,3131020,9302283,0,0,0,0,0,0,0,0,0,0,0,0,0,0,0,0,0,0,-3131020,0,0,3030031,0,0,2171101,0,0,4101151,0,0,0,0,0,0,0,0,0
2,390,565.709635498933,1,0,509312.40356692,509313.450851449,0,30,17,1,1,3,3,4200111,1191100,0,6390132,0,0,-4200111,0,0,0,0,0,0,0,0,0,1191100,0,0,0,0,0,0,0,0,0,0,0,0,0,0,0,0,2190061,0,0,4200071,0,0,0
2,391,859.782830695622,0,0,509315.097941364,509316.144999943,0,30,17,0,0,20,7,0,7352431,2252322,6372131,0,0,0,0,0,0,0,0,0,0,0,0,1111161,0,0,4131130,0,2110140,0,-1201151,0,1051171,0,0,0,0,0,3120040,2071060,0,0,0,0,0,0,1181031
2,392,1036.16030333797,1,0,509318.12150376,509319.168569268,0,30,17,0,1,2,7,9401382,1121101,6392293,0,0,-3150081,1010050,4121061,1120190,0,0,0,0,0,0,0,0,0,0,0,0,1121101,3181031,2110181,0,0,0,0,0,0,1101081,0,0,0,0,0,0,0,0,0
2,393,1171.11889674561,1,0,509321.380375989,509322.427433029,0,30,17,0,1,30,7,1121150,8241341,4212281,4221141,1121150,0,0,0,0,0,0,0,0,0,1110071,0,0,0,0,3010070,4121200,0,0,2201191,0,0,0,2011090,0,0,0,1110021,0,-3111120,0,0,0,0,0,0
2,394,2451.79424411617,1,0,509324.72159746,509325.768662583,0,30,17,0,1,4,7,11301382,2051181,5361252,5040262,0,0,3020111,-4191161,0,4090110,0,0,0,0,0,0,0,0,0,0,0,2051181,1191071,0,0,0,4170181,0,0,0,0,0,1030201,0,0,0,0,0,4010061,0
2,395,749.612353916746,1,0,509329.404021153,509330.45109128,0,30,17,0,1,12,3,1041131,6190190,4180120,0,0,0,0,0,1041131,0,0,0,0,0,0,-4160040,0,0,0,0,0,2030150,0,0,0,0,0,4180120,0,0,0,0,0,0,0,0,0,0,0,0
2,396,1193.25616204878,1,0,509332.251126004,509333.298183813,0,30,17,0,1,27,7,2051011,7453323,6242172,2121051,0,0,0,0,0,0,2051011,0,0,0,2191121,0,2151131,0,3111071,0,0,0,0,0,4191021,0,0,0,1010090,0,-1041061,0,0,0,0,0,2121051,0,0,0
2,397,684.646092006005,1,0,509335.674701335,509336.721776467,0,30,17,1,1,21,3,6162130,0,4140091,2100031,0,0,2111050,4051080,0,0,0,0,0,0,0,0,0,0,0,0,0,0,0,0,-4140091,0,0,0,0,0,0,0,0,0,0,0,2100031,0,0,0
2,398,1111.10633157659,0,0,509338.545334321,509339.592400984,0,30,17,1,0,25,7,4211340,4051131,1140080,10392303,3191190,0,0,0,0,0,1020150,0,0,0,0,0,0,0,0,0,1031091,3020040,0,0,0,0,0,0,-1140080,0,0,0,0,0,0,4191131,2060041,4141131,0,0
2,399,481.163413845934,0,0,509341.757146047,509342.804221179,0,30,17,1,0,15,7,1010201,4361332,1020080,6292482,0,0,0,0,1010201,0,0,0,0,0,0,2171181,0,0,-2190151,0,0,0,0,1020080,0,0,0,0,0,0,0,0,1120190,1111061,3020120,0,1041111,0,0,0
2,400,708.434461208526,0,0,509344.310123808,509345.357196631,0,30,17,1,0,33,7,4180040,7262281,8261230,2232111,0,4180040,0,0,0,0,0,0,0,0,1060101,2081080,0,0,4121100,0,0,0,0,4100200,0,0,0,0,0,4161030,0,0,0,1121030,0,0,-1111081,0,0,0
2,401,430.174368259031,0,0,509347.157229815,509348.204296863,0,30,17,1,0,22,3,3151160,4122232,1110070,0,3151160,0,0,0,0,0,0,0,0,0,2071201,0,0,0,0,0,0,2051031,0,0,0,-1110070,0,0,0,0,0,0,0,0,0,0,0,0,0,0
2,402,526.001144433394,0,0,509349.804327429,509350.851402176,0,30,17,0,0,13,3,3050111,1111150,1040130,4150151,0,0,0,0,3050111,0,0,0,0,0,0,0,-1111150,0,0,0,0,0,0,0,0,1040130,0,0,0,0,0,0,0,0,0,0,0,0,4150151,0
2,403,525.381354906131,1,0,509352.416127836,509353.463201044,0,30,17,0,1,16,3,2131070,6041250,2121151,0,0,2131070,0,0,0,0,0,0,0,0,0,0,0,0,3021090,-3020160,0,0,0,0,0,0,0,0,0,0,2121151,0,0,0,0,0,0,0,0,0
2,404,936.366489157081,1,0,509355.169113605,509356.216185658,0,30,17,1,1,31,7,4132261,10412384,3080200,3050120,3081100,0,0,1051161,0,0,0,0,0,4120011,4101161,0,1041061,1150151,0,0,0,0,0,0,0,0,0,3080200,0,0,0,0,0,0,-3050120,0,0,0,0,0
2,405,1230.41235207347,1,0,509358.275045261,509359.322113079,0,30,17,1,1,11,7,5210251,6372361,2051011,3332102,0,0,3190121,0,0,0,0,2020130,0,2111041,-1101160,0,0,3160160,0,0,0,0,0,0,0,2051011,0,0,0,0,0,0,2201071,0,0,0,0,1131031,0,0
2,406,518.811200861819,0,0,509361.757451322,509362.804519525,0,30,17,0,0,26,3,0,3201121,5102231,2090021,0,0,0,0,0,0,0,0,0,0,0,0,0,0,0,0,0,3201121,0,0,0,0,2071040,0,0,-3031191,0,0,0,0,0,0,0,0,0,2090021
2,407,1016.41249994282,0,0,509364.533958296,509365.581034198,0,30,17,0,0,24,7,0,6251131,6172192,10751583,0,0,0,0,0,0,0,0,0,0,2180111,0,0,0,0,0,0,4071020,0,0,0,0,0,-4111131,2061061,0,0,4200141,0,0,4170170,0,0,0,1180181,1201091
2,408,589.423321944196,1,0,509367.686948915,509368.734018658,0,30,17,1,1,19,3,0,6201210,3131021,2201130,0,0,0,0,0,0,0,0,0,0,0,2091110,0,0,4110100,0,0,0,-3131021,0,0,0,0,0,0,0,0,0,0,0,0,0,0,2201130,0,0
2,409,870.072491874453,1,0,509403.416882363,509404.46396327,0,30,18,0,1,16,3,2071121,5211111,0,2040160,2071121,0,0,0,0,0,0,0,0,0,0,0,0,0,0,-2030020,0,3181091,0,0,0,0,0,0,0,0,0,0,0,0,0,0,0,0,2040160,0
2,410,893.59177229926,1,0,509406.499294353,509407.546389888,0,30,18,0,1,4,7,6383391,4360161,6211232,3110111,0,0,2091201,-1191010,0,0,0,0,3101180,0,0,3180011,0,0,0,0,1180150,0,0,0,2030151,0,4181081,0,0,0,0,3110111,0,0,0,0,0,0,0,0
2,411,486.99174518697,1,0,509409.558236337,509410.605237557,0,30,18,1,1,3,3,4200111,1191100,0,6390132,0,0,-4200111,0,0,0,0,0,0,0,0,0,1191100,0,0,0,0,0,0,0,0,0,0,0,0,0,0,0,0,2190061,0,0,4200071,0,0,0
2,412,689.126669894904,1,0,509412.169963987,509413.217029111,0,30,18,0,1,12,3,3160040,3240191,4091071,0,0,0,0,0,3160040,0,0,0,0,0,0,-2120021,0,1120170,0,0,0,0,4091071,0,0,0,0,0,0,0,0,0,0,0,0,0,0,0,0,0
2,413,1081.76795882173,0,0,509415.064204025,509416.111196776,0,30,18,1,0,33,7,4180040,7262281,8261230,2232111,0,4180040,0,0,0,0,0,0,0,0,1060101,2081080,0,0,4121100,0,0,0,0,4100200,0,0,0,0,0,4161030,0,0,0,1121030,0,0,-1111081,0,0,0
2,414,456.863044528291,0,0,509418.370047447,509419.417126814,0,30,18,0,0,20,3,1171031,5082150,2101160,0,0,0,0,1171031,0,0,0,0,0,0,0,2031010,0,3051140,0,0,0,0,0,-2101160,0,0,0,0,0,0,0,0,0,0,0,0,0,0,0,0
2,415,621.189267898444,1,0,509420.934806984,509421.981862868,0,30,18,0,1,27,3,5180291,2170061,3150201,0,0,0,0,2170100,3010191,0,0,0,0,0,0,0,0,2170061,0,0,0,0,0,0,0,0,0,0,0,0,-3150201,0,0,0,0,0,0,0,0,0
2,416,459.658256848343,1,0,509423.664287331,509424.711320887,0,30,18,0,1,8,7,6312361,7320282,0,7443451,3131200,0,0,0,0,0,0,-3181161,0,3190101,0,0,4130181,0,0,0,0,0,0,0,0,0,0,0,0,0,0,0,1051081,0,0,2201030,2060200,2131140,0,0
2,417,383.176998351701,1,0,509426.193709241,509427.240777059,0,30,18,1,1,15,7,1010201,4361332,1020080,6292482,0,0,0,0,1010201,0,0,0,0,0,0,2171181,0,0,-2190151,0,0,0,0,1020080,0,0,0,0,0,0,0,0,1120190,1111061,3020120,0,1041111,0,0,0
2,418,1290.94307671767,1,0,509428.676130701,509429.723171571,0,30,18,1,1,31,7,4132261,10412384,3080200,3050120,3081100,0,0,1051161,0,0,0,0,0,4120011,4101161,0,1041061,1150151,0,0,0,0,0,0,0,0,0,3080200,0,0,0,0,0,0,-3050120,0,0,0,0,0
2,419,1421.18472536094,0,0,509432.052615501,509433.099680624,0,30,18,0,0,30,7,3361151,6602441,0,5321150,1180131,2181020,0,0,0,0,0,0,0,2171091,1200110,0,0,0,2141060,0,0,1090180,0,0,0,0,0,0,0,0,0,0,3170020,-2151130,0,0,0,0,0,0
2,420,694.776378688402,0,0,509435.62914411,509436.676211928,0,30,18,1,0,21,3,6162130,0,4140091,2100031,0,0,2111050,4051080,0,0,0,0,0,0,0,0,0,0,0,0,0,0,0,0,-4140091,0,0,0,0,0,0,0,0,0,0,0,2100031,0,0,0
2,421,707.582154427655,1,0,509438.523298301,509439.570366504,0,30,18,1,1,11,7,5210251,6372361,2051011,3332102,0,0,3190121,0,0,0,0,2020130,0,2111041,-1101160,0,0,3160160,0,0,0,0,0,0,0,2051011,0,0,0,0,0,0,2201071,0,0,0,0,1131031,0,0
2,422,624.647000571713,0,0,509441.429238887,509442.476300931,0,30,18,0,0,13,7,4060091,9271432,8221392,4021121,0,0,0,0,4060091,0,0,0,0,1090151,4041191,0,-4140090,0,0,0,0,0,0,0,0,4021041,0,0,0,1030200,3170151,0,0,0,0,0,0,0,4021121,0
2,423,1057.20620008651,1,0,509444.158679968,509445.205742782,0,30,18,1,1,25,7,4211340,4051131,1140080,10392303,3191190,0,0,0,0,0,1020150,0,0,0,0,0,0,0,0,0,1031091,3020040,0,0,0,0,0,0,-1140080,0,0,0,0,0,0,4191131,2060041,4141131,0,0
2,424,652.136013726704,0,0,509447.358725702,509448.40579352,0,30,18,1,0,18,3,0,3131020,9302283,0,0,0,0,0,0,0,0,0,0,0,0,0,0,0,0,0,0,-3131020,0,0,3030031,0,0,2171101,0,0,4101151,0,0,0,0,0,0,0,0,0
2,425,741.261748655234,1,1,509450.123475538,509451.170545665,0,30,18,0,0,24,7,3020070,11303312,6391152,4120111,0,0,0,0,0,3020070,0,0,0,0,4011180,0,0,3101101,0,0,4191031,0,0,0,4171020,0,0,-1160011,0,1060121,0,0,0,4120111,0,0,0,0,0,0
2,426,444.204324565362,1,0,509453.123518653,509454.170590321,0,30,18,1,1,22,3,3151160,4122232,1110070,0,3151160,0,0,0,0,0,0,0,0,0,2071201,0,0,0,0,0,0,2051031,0,0,0,-1110070,0,0,0,0,0,0,0,0,0,0,0,0,0,0
2,427,1090.34222731134,1,0,509455.629497505,509456.676509504,0,30,18,1,1,1,3,3050121,2181111,8301112,0,-3050121,0,0,0,0,0,0,0,0,0,0,0,0,0,0,0,0,2181111,0,4161041,0,0,0,0,0,4140071,0,0,0,0,0,0,0,0,0,0
2,428,847.268086683471,1,0,509458.923607272,509459.97066816,0,30,18,1,1,32,7,5201140,2182211,4261110,5162171,2171020,0,0,0,0,0,0,3030120,0,1151160,0,0,1031051,0,0,0,0,0,0,0,1150040,0,0,0,3111070,0,0,0,1081161,0,0,-4081010,0,0,0,0
2,429,530.778143380303,0,0,509461.853054435,509462.900131492,0,30,18,0,0,26,3,4030101,0,5260141,3050100,0,0,0,0,0,0,0,4030101,0,0,0,0,0,0,0,0,0,0,0,1190010,0,0,0,0,0,-4070131,0,0,0,0,0,0,0,0,0,3050100
2,430,643.271483597346,0,0,509464.594274212,509465.641347419,0,30,18,0,0,9,3,4051131,3181120,3060170,2161181,0,0,0,0,0,0,0,0,-4051131,0,0,0,0,0,0,3181120,0,0,0,0,0,0,0,0,0,0,3060170,0,0,0,2161181,0,0,0,0,0
2,431,883.972270181403,0,0,509467.370786575,509468.417653118,0,30,18,0,0,2,7,10142300,4020201,1020171,5411331,0,-4080170,3041110,0,0,0,3021020,0,0,0,0,4020201,0,0,0,0,0,0,0,0,0,1020171,0,0,0,0,0,0,1060111,0,0,1181130,0,0,0,3170090
2,432,632.167241827119,0,0,509470.335542493,509471.382611466,0,30,18,1,0,19,3,0,6201210,3131021,2201130,0,0,0,0,0,0,0,0,0,0,0,2091110,0,0,4110100,0,0,0,-3131021,0,0,0,0,0,0,0,0,0,0,0,0,0,0,2201130,0,0
2,433,833.350539440289,0,0,509485.312221084,509486.359307765,0,30,19,0,0,4,3,5262361,0,0,3020190,0,0,0,-3090161,0,1131120,1041080,0,0,0,0,0,0,0,0,0,0,0,0,0,0,0,0,0,0,0,0,0,0,3020190,0,0,0,0,0,0
2,434,568.167620687746,0,0,509488.253483514,509489.300523615,0,30,19,0,0,8,7,9100373,9311321,4160181,4031200,0,0,0,1030111,0,4030151,0,-4040111,0,1161140,0,0,0,0,4110061,4040120,0,0,0,4160181,0,0,0,0,0,0,0,0,0,0,0,0,0,0,4031200,0
2,435,497.868474107236,1,0,509490.900615005,509491.947615455,0,30,19,0,1,9,3,5301272,0,0,5271181,0,0,1171131,0,0,0,0,0,-4130141,0,0,0,0,0,0,0,0,0,0,0,0,0,0,0,0,0,0,0,0,2081150,0,0,3190031,0,0,0
2,436,493.176936754026,0,0,509493.559413553,509494.606484065,0,30,19,0,0,20,3,0,7101340,3332191,0,0,0,0,0,0,0,0,0,0,0,0,0,0,0,0,0,4030140,3071200,0,-2201021,0,0,1131170,0,0,0,0,0,0,0,0,0,0,0,0,0
2,437,774.149475095328,1,0,509496.17121858,509497.218290247,0,30,19,0,1,2,7,10511383,3261342,3081071,2102122,4121191,-2200041,0,0,0,0,0,0,4190151,0,0,0,1101141,0,0,0,2160201,0,0,3081071,0,0,0,0,0,0,0,0,1061011,1041111,0,0,0,0,0,0
2,438,638.555693614762,0,0,509499.183063874,509500.230103975,0,30,19,0,0,13,3,0,6251241,0,0,0,0,0,0,0,0,0,0,0,0,0,0,-1020030,1011010,3200081,1020120,0,0,0,0,0,0,0,0,0,0,0,0,0,0,0,0,0,0,0,0
2,439,446.539121796377,1,0,509502.041890062,509503.088968274,0,30,19,1,1,15,7,1010201,4361332,1020080,6292482,0,0,0,0,1010201,0,0,0,0,0,0,2171181,0,0,-2190151,0,0,0,0,1020080,0,0,0,0,0,0,0,0,1120190,1111061,3020120,0,1041111,0,0,0
2,440,911.059058154933,1,0,509504.665499193,509505.712539294,0,30,19,1,1,33,7,4180040,7262281,8261230,2232111,0,4180040,0,0,0,0,0,0,0,0,1060101,2081080,0,0,4121100,0,0,0,0,4100200,0,0,0,0,0,4161030,0,0,0,1121030,0,0,-1111081,0,0,0
2,441,630.181990505662,0,0,509507.63021238,509508.677278659,0,30,19,0,0,16,7,0,10633572,4140081,6300091,0,0,0,0,0,0,0,0,0,0,0,0,0,3081140,1160090,-4201020,1070141,1121181,0,0,0,0,0,0,0,0,4140081,0,0,3100081,0,0,0,0,3200010,0
2,442,464.926082931925,1,0,509510.465649405,509511.512633301,0,30,19,1,1,22,3,3151160,4122232,1110070,0,3151160,0,0,0,0,0,0,0,0,0,2071201,0,0,0,0,0,0,2051031,0,0,0,-1110070,0,0,0,0,0,0,0,0,0,0,0,0,0,0
2,443,929.537640418857,0,0,509513.053867014,509514.100888636,0,30,19,1,0,25,7,4211340,4051131,1140080,10392303,3191190,0,0,0,0,0,1020150,0,0,0,0,0,0,0,0,0,1031091,3020040,0,0,0,0,0,0,-1140080,0,0,0,0,0,0,4191131,2060041,4141131,0,0
2,444,781.990390096325,1,0,509516.17152501,509517.218595138,0,30,19,1,1,31,7,4132261,10412384,3080200,3050120,3081100,0,0,1051161,0,0,0,0,0,4120011,4101161,0,1041061,1150151,0,0,0,0,0,0,0,0,0,3080200,0,0,0,0,0,0,-3050120,0,0,0,0,0
2,445,688.342116423883,1,0,509519.148034602,509520.195099725,0,30,19,1,1,19,3,0,6201210,3131021,2201130,0,0,0,0,0,0,0,0,0,0,0,2091110,0,0,4110100,0,0,0,-3131021,0,0,0,0,0,0,0,0,0,0,0,0,0,0,2201130,0,0
2,446,656.14770737011,0,0,509521.94807202,509522.995147922,0,30,19,0,0,27,3,2110201,0,5141191,2130101,0,0,0,0,0,0,0,0,2110201,0,0,0,0,0,0,0,0,0,0,3091041,0,0,0,0,0,0,-2050150,2130101,0,0,0,0,0,0,0,0
2,447,1607.58007556433,0,0,509524.759877355,509525.806950563,0,30,19,0,0,24,7,2121061,4040091,9391401,4180261,2121061,0,0,0,0,0,0,0,0,0,0,4040091,0,0,0,0,0,0,0,0,0,2160180,0,-1070061,3030090,0,3131070,0,0,0,0,3100160,0,1080101,0,0
2,448,788.560159213375,0,0,509528.512871593,509529.55995019,0,30,19,0,0,30,7,6251301,7281500,1140120,4360292,0,0,0,0,0,0,0,2120171,4131130,0,0,1171130,0,0,3080180,3030190,0,0,1140120,0,0,0,0,0,0,0,0,0,0,-1190191,0,0,0,0,0,3170101
2,449,465.798022807576,1,0,509531.47763906,509532.524698794,0,30,19,1,1,21,3,6162130,0,4140091,2100031,0,0,2111050,4051080,0,0,0,0,0,0,0,0,0,0,0,0,0,0,0,0,-4140091,0,0,0,0,0,0,0,0,0,0,0,2100031,0,0,0
2,450,879.155680711847,1,0,509534.101192757,509535.148265579,0,30,19,1,1,18,3,0,3131020,9302283,0,0,0,0,0,0,0,0,0,0,0,0,0,0,0,0,0,0,-3131020,0,0,3030031,0,0,2171101,0,0,4101151,0,0,0,0,0,0,0,0,0
2,451,1281.64931340143,1,0,509537.136524225,509538.183605516,0,30,19,1,1,11,7,5210251,6372361,2051011,3332102,0,0,3190121,0,0,0,0,2020130,0,2111041,-1101160,0,0,3160160,0,0,0,0,0,0,0,2051011,0,0,0,0,0,0,2201071,0,0,0,0,1131031,0,0
2,452,835.628362197895,1,0,509540.489618322,509541.536596444,0,30,19,1,1,32,7,5201140,2182211,4261110,5162171,2171020,0,0,0,0,0,0,3030120,0,1151160,0,0,1031051,0,0,0,0,0,0,0,1150040,0,0,0,3111070,0,0,0,1081161,0,0,-4081010,0,0,0,0
2,453,713.659556466155,1,0,509543.395455353,509544.442520477,0,30,19,1,1,3,3,4200111,1191100,0,6390132,0,0,-4200111,0,0,0,0,0,0,0,0,0,1191100,0,0,0,0,0,0,0,0,0,0,0,0,0,0,0,0,2190061,0,0,4200071,0,0,0
2,454,1037.30248683132,0,0,509546.219023986,509547.266087569,0,30,19,1,0,1,3,3050121,2181111,8301112,0,-3050121,0,0,0,0,0,0,0,0,0,0,0,0,0,0,0,0,2181111,0,4161041,0,0,0,0,0,4140071,0,0,0,0,0,0,0,0,0,0
2,455,747.005003271624,1,0,509549.407416906,509550.454386174,0,30,19,0,1,26,3,0,2181201,4211272,2111111,0,0,0,0,0,0,0,0,0,0,0,2181201,0,0,0,0,0,0,0,3170201,0,0,0,0,0,-1041071,0,0,0,0,0,0,0,0,2111111,0
2,456,963.283063203562,0,0,509552.336792466,509553.383839881,0,30,19,0,0,12,7,4192391,7103331,7191181,4071130,0,3111190,1081201,0,0,0,0,0,0,0,3041170,-1041071,0,0,0,0,3021090,0,0,0,4120051,0,0,3071130,0,0,0,0,0,0,0,0,0,4071130,0,0
2,457,1933.42922575539,1,0,509562.84279865,509563.889869548,0,30,20,1,1,19,3,0,6201210,3131021,2201130,0,0,0,0,0,0,0,0,0,0,0,2091110,0,0,4110100,0,0,0,-3131021,0,0,0,0,0,0,0,0,0,0,0,0,0,0,2201130,0,0
2,458,634.187909774482,0,0,509566.936984717,509567.984043296,0,30,20,0,0,16,3,6251182,7372152,0,0,0,0,0,2160061,0,0,4091121,0,0,3181141,0,0,0,0,0,-4191011,0,0,0,0,0,0,0,0,0,0,0,0,0,0,0,0,0,0,0,0
2,459,822.675145929679,1,0,509569.819370991,509570.866447278,0,30,20,1,1,1,3,3050121,2181111,8301112,0,-3050121,0,0,0,0,0,0,0,0,0,0,0,0,0,0,0,0,2181111,0,4161041,0,0,0,0,0,4140071,0,0,0,0,0,0,0,0,0,0
2,460,958.87216355186,0,0,509572.878259081,509573.925370015,0,30,20,1,0,25,7,4211340,4051131,1140080,10392303,3191190,0,0,0,0,0,1020150,0,0,0,0,0,0,0,0,0,1031091,3020040,0,0,0,0,0,0,-1140080,0,0,0,0,0,0,4191131,2060041,4141131,0,0
2,461,548.383630812168,1,0,509575.960650283,509577.007719641,0,30,20,0,1,20,3,0,0,1170010,12391252,0,0,0,0,0,0,0,0,0,0,0,0,0,0,0,0,0,0,0,-1170010,0,0,0,0,0,0,0,0,0,4100041,4181070,0,0,4110141,0,0
2,462,629.120264144149,1,0,509578.654806861,509579.701874294,0,30,20,0,1,27,7,1190071,11273282,2091070,8163371,1190071,0,0,0,0,0,0,0,0,0,0,0,0,4031061,4191160,0,3051061,0,0,0,0,0,0,0,0,0,-2091070,4011141,0,0,0,0,3081110,0,0,1071120
2,463,802.016521396581,1,0,509581.348963054,509582.396032412,0,30,20,1,1,33,7,4180040,7262281,8261230,2232111,0,4180040,0,0,0,0,0,0,0,0,1060101,2081080,0,0,4121100,0,0,0,0,4100200,0,0,0,0,0,4161030,0,0,0,1121030,0,0,-1111081,0,0,0
2,464,1090.59014316881,1,0,509584.278403673,509585.325493049,0,30,20,1,1,3,3,4200111,1191100,0,6390132,0,0,-4200111,0,0,0,0,0,0,0,0,0,1191100,0,0,0,0,0,0,0,0,0,0,0,0,0,0,0,0,2190061,0,0,4200071,0,0,0
2,465,843.256777967326,0,0,509587.560802882,509588.607888793,0,30,20,0,0,4,3,7350393,0,0,4171021,3160191,0,0,-2060051,0,0,0,0,2130151,0,0,0,0,0,0,0,0,0,0,0,0,0,0,0,0,0,0,0,4171021,0,0,0,0,0,0,0
