sub_id,Trial,RT,Resp,Error,Fix_onset,Disp_onset,q1,q2,block,repeat,tid,tloc,d_setsize,quad1,quad2,quad3,quad4,loc1,loc2,loc3,loc4,loc5,loc6,loc7,loc8,loc9,loc10,loc11,loc12,loc13,loc14,loc15,loc16,loc17,loc18,loc19,loc20,loc21,loc22,loc23,loc24,loc25,loc26,loc27,loc28,loc29,loc30,loc31,loc32,loc33,loc34,loc35,loc36
21,1,698.559908894822,1,0,106293.958308218,106295.005393563,0,NumLock40,1,0,1,13,3,0,1010061,3071181,5261341,0,0,0,0,0,0,0,0,0,0,0,0,-1010061,0,0,0,0,0,3071181,0,0,0,0,0,0,0,0,0,0,0,0,0,3080200,0,0,2181141
21,2,1044.19479805802,1,0,106296.852475136,106297.899544312,0,NumLock40,1,1,1,10,3,0,4312112,0,3100161,0,0,0,0,0,0,0,0,0,-1201021,0,0,0,0,3111091,0,0,0,0,0,0,0,0,0,0,0,0,0,0,0,1010081,2090080,0,0,0,0
21,3,574.686785868835,0,0,106299.970164631,106301.017229188,0,NumLock40,1,0,0,19,3,0,2150180,7091211,0,0,0,0,0,0,0,0,0,0,0,0,0,0,0,0,0,0,2150180,-4070130,0,1011060,0,0,0,2010021,0,0,0,0,0,0,0,0,0,0,0
21,4,1214.29788290698,1,0,106302.758436872,106303.80549835,0,NumLock40,1,1,1,23,3,2091130,0,3202111,4131151,2091130,0,0,0,0,0,0,0,0,0,0,0,0,0,0,0,0,0,0,0,0,0,-2121071,0,1081040,0,0,0,0,0,0,0,0,0,0,4131151
21,5,1500.87129150052,1,0,106306.040830759,106307.087892237,0,NumLock40,1,0,1,18,7,8273191,2090201,3190150,9140411,0,0,2031150,0,2061010,0,0,4181031,0,0,0,0,0,0,0,0,0,-2090201,3190150,0,0,0,0,0,0,0,0,0,4030171,0,2060130,0,3050110,0,0,0
21,6,1087.24036281637,1,0,106309.617338286,106310.664401303,0,NumLock40,1,0,1,33,7,6221271,5211201,5381261,8211340,0,0,0,4040120,0,0,0,0,2181151,0,0,0,0,0,0,4100021,0,1111180,0,0,4190200,0,0,1191061,0,0,0,0,4120170,0,0,0,-4091170,0,0,0
21,7,1035.57090261893,0,0,106312.935023469,106313.982088027,0,NumLock40,1,0,0,12,3,0,1091151,3041150,6231151,0,0,0,0,0,0,0,0,0,0,0,-1091151,0,0,0,0,0,0,0,3041150,0,0,0,0,0,0,0,0,0,0,0,0,0,0,4200080,2031071
21,8,1418.50581418839,0,0,106316.040943938,106317.087999641,0,NumLock40,1,1,0,17,7,3220282,6262443,6330322,0,0,1020161,0,0,0,2200121,0,0,0,0,0,0,0,2020201,0,2131131,-2111111,0,0,0,0,3130091,0,0,2190131,0,1010100,0,0,0,0,0,0,0,0,0
21,9,622.502401893144,1,0,106319.535100231,106320.582171332,0,NumLock40,1,1,1,22,7,2040190,8523392,4181322,4151321,0,0,0,0,2040190,0,0,0,0,0,0,3131171,2191120,0,0,0,3201101,0,0,0,0,-1050141,0,3131181,0,0,0,0,0,0,0,0,0,2070191,2081130,0
21,10,525.501093783532,0,0,106322.299839038,106323.346905905,0,NumLock40,1,0,0,21,7,4170201,0,6461471,3201200,0,0,0,0,2070160,0,2100041,0,0,0,0,0,0,0,0,0,0,0,0,0,-1130110,1141160,3010170,1180031,0,0,0,0,0,0,2180120,0,1021080,0,0,0
21,11,1030.07712474209,0,0,106325.017521373,106326.064572457,0,NumLock40,1,1,0,34,7,4320191,1070191,6261362,4282261,1170081,0,0,0,0,0,1080070,2070040,0,0,0,1070191,0,0,0,0,0,0,0,0,0,4061201,2200161,0,0,0,0,0,0,0,3171200,0,0,-1111061,0,0
21,12,670.137086257455,0,0,106328.229325739,106329.276383752,0,NumLock40,1,0,0,28,7,0,10452442,9351243,6340200,0,0,0,0,0,0,0,0,0,0,0,4141190,2140121,4171131,0,0,0,0,0,0,4110011,0,4191191,0,0,0,1050041,-4160070,0,2180130,0,0,0,0,0,0
21,13,707.067931085476,1,0,106331.076413856,106332.123475334,0,NumLock40,1,1,1,30,3,3181161,4170081,1141190,2181010,0,0,0,0,3181161,0,0,0,0,0,0,0,0,4170081,0,0,0,0,0,0,0,0,0,0,1141190,0,0,0,0,-2181010,0,0,0,0,0,0
21,14,550.654827951803,0,0,106333.958803663,106335.005883234,0,NumLock40,1,0,0,3,3,4060172,3030161,0,4011080,0,1020061,-3040111,0,0,0,0,0,0,0,0,0,0,0,0,0,0,3030161,0,0,0,0,0,0,0,0,0,0,0,4011080,0,0,0,0,0,0
21,15,1323.38773511583,0,0,106336.641188157,106337.688255409,0,NumLock40,1,0,0,2,3,5371351,2120200,0,3150161,0,-3200150,0,0,2171201,0,0,0,0,0,0,0,0,0,0,0,2120200,0,0,0,0,0,0,0,0,0,0,0,3150161,0,0,0,0,0,0,0
21,16,544.158611737657,1,0,106340.041231504,106341.088287207,0,NumLock40,1,0,1,9,3,3131240,0,3090140,3081050,0,0,0,0,0,1030140,0,0,-2101100,0,0,0,0,0,0,0,0,0,0,0,0,0,0,0,3090140,0,0,0,0,0,0,0,0,0,3081050,0
21,17,1202.6389552484,0,0,106342.817729329,106343.864794656,0,NumLock40,1,1,0,36,7,1090140,3091100,2181201,13223493,0,1090140,0,0,0,0,0,0,0,3091100,0,0,0,0,0,0,0,0,0,0,0,0,0,0,2181201,0,0,0,4060071,3011141,0,3011050,2090201,0,0,-1051030
21,18,963.884627315565,1,0,106346.135417207,106347.182531425,0,NumLock40,1,0,1,7,7,8041350,9362282,8450502,0,0,0,4010150,0,0,0,-4031200,0,0,0,4051050,0,1121151,4190081,0,0,0,0,0,1200110,0,0,4070201,0,3180191,0,0,0,0,0,0,0,0,0,0,0
21,19,625.247173535172,0,0,106349.217801548,106350.264877654,0,NumLock40,1,1,0,24,7,1051141,4171091,6271353,8440230,0,0,0,0,0,1051141,0,0,0,4171091,0,0,0,0,0,0,0,0,0,0,3110191,0,1100051,-2061111,0,0,0,3190130,0,0,0,3110050,0,2140050,0,0
21,20,629.385118911159,0,0,106351.970780953,106353.017857059,0,NumLock40,1,1,0,11,3,0,7530181,0,1141131,0,0,0,0,0,0,0,0,0,0,-2190011,0,0,0,3190090,2150080,0,0,0,0,0,0,0,0,0,0,0,0,1141131,0,0,0,0,0,0,0
21,21,1127.70129967248,1,0,106354.841460633,106355.888463981,0,NumLock40,1,1,1,31,7,10281380,4220372,0,9222321,0,4120170,0,2060110,0,4101100,0,0,0,0,0,0,3040201,0,0,1180171,0,0,0,0,0,0,0,0,0,0,0,0,4031150,0,-4090141,0,0,0,0,1101030
21,22,968.961107500945,1,0,106358.20614955,106359.253274931,0,NumLock40,1,1,1,5,3,1031011,0,2031120,2152240,0,0,0,0,-1031011,0,0,0,0,0,0,0,0,0,0,0,0,0,0,0,0,0,0,0,2031120,0,0,0,0,0,0,0,0,0,1131180,1021060
21,23,710.282740081311,1,0,106361.41795584,106362.465015008,0,NumLock40,1,0,1,25,7,5132362,13633554,3050071,0,0,1031090,0,1040151,0,3061121,0,0,0,0,4131051,0,0,3190141,0,3121161,0,3191201,0,0,0,0,0,0,-3050071,0,0,0,0,0,0,0,0,0,0,0
21,24,805.014318350004,1,0,106364.265047422,106365.312111594,0,NumLock40,1,1,1,35,3,0,6162151,0,5230161,0,0,0,0,0,0,0,0,0,0,4091111,0,0,0,2071040,0,0,0,0,0,0,0,0,0,0,0,0,0,0,0,0,2180090,0,0,-3050071,0
21,25,516.977288178168,0,0,106389.888877814,106390.935993186,0,NumLock40,2,0,0,2,3,3221111,2121081,1051131,0,0,-1151081,2070030,0,0,0,0,0,0,0,0,0,0,2121081,0,0,0,0,0,1051131,0,0,0,0,0,0,0,0,0,0,0,0,0,0,0,0
21,26,1037.70589610212,1,0,106392.583087154,106393.630094352,0,NumLock40,2,1,1,36,7,1090140,3091100,2181201,13223493,0,1090140,0,0,0,0,0,0,0,3091100,0,0,0,0,0,0,0,0,0,0,0,0,0,0,2181201,0,0,0,4060071,3011141,0,3011050,2090201,0,0,-1051030
21,27,643.899686983787,0,0,106395.747770374,106396.794830696,0,NumLock40,2,0,0,25,7,5110041,0,11313470,11512372,0,0,0,4050021,1060020,0,0,0,0,0,0,0,0,0,0,0,0,0,0,0,0,0,3131160,4111160,-4071150,0,0,0,3121121,0,0,0,0,0,4190060,4201191
21,28,769.050110480748,1,0,106398.50074593,106399.547806637,0,NumLock40,2,0,1,19,3,3090170,3020121,5230091,0,0,0,0,0,0,3090170,0,0,0,0,0,3020121,0,0,0,0,0,0,-2050010,0,0,0,0,3180081,0,0,0,0,0,0,0,0,0,0,0,0
21,29,800.418654398527,0,0,106401.430196829,106402.477256767,0,NumLock40,2,0,0,7,7,4061242,7240211,14202473,0,0,0,0,0,0,0,-3011141,0,1050101,0,4190141,0,0,0,3050070,0,0,0,0,4031011,0,4111141,0,3020120,0,0,3040201,0,0,0,0,0,0,0,0,0
21,30,649.665247299708,0,0,106404.289042038,106405.336110445,0,NumLock40,2,1,0,31,7,10281380,4220372,0,9222321,0,4120170,0,2060110,0,4101100,0,0,0,0,0,0,3040201,0,0,1180171,0,0,0,0,0,0,0,0,0,0,0,0,4031150,0,-4090141,0,0,0,0,1101030
21,31,561.835634100134,0,0,106407.053837435,106408.100853103,0,NumLock40,2,0,0,18,3,4120150,5171180,0,1111031,0,0,0,0,0,0,4120150,0,0,0,1121150,0,0,0,0,0,0,-4050030,0,0,0,0,0,0,0,0,0,0,1111031,0,0,0,0,0,0,0
21,32,1035.13859144005,1,0,106409.665587368,106410.712639606,0,NumLock40,2,1,1,34,7,4320191,1070191,6261362,4282261,1170081,0,0,0,0,0,1080070,2070040,0,0,0,1070191,0,0,0,0,0,0,0,0,0,4061201,2200161,0,0,0,0,0,0,0,3171200,0,0,-1111061,0,0
21,33,2454.26522282651,1,0,106412.830329871,106413.877395198,0,NumLock40,2,0,1,21,7,1070060,7351112,5211160,6081251,0,0,0,0,0,1070060,0,0,0,0,0,0,0,3131061,0,1110020,0,3110031,0,0,-3120080,0,0,0,0,0,2091080,2011071,0,0,4070180,0,0,0,0,0
21,34,778.207561830641,0,0,106417.489202875,106418.536272052,0,NumLock40,2,1,0,11,3,0,7530181,0,1141131,0,0,0,0,0,0,0,0,0,0,-2190011,0,0,0,3190090,2150080,0,0,0,0,0,0,0,0,0,0,0,0,1141131,0,0,0,0,0,0,0
21,35,786.995835616835,1,0,106420.371590757,106421.418682647,0,NumLock40,2,1,1,23,3,2091130,0,3202111,4131151,2091130,0,0,0,0,0,0,0,0,0,0,0,0,0,0,0,0,0,0,0,0,0,-2121071,0,1081040,0,0,0,0,0,0,0,0,0,0,4131151
21,36,1154.88339313015,1,0,106423.324568546,106424.371642727,0,NumLock40,2,0,1,33,7,5301210,3080101,11181241,3361321,0,4161160,0,0,0,0,0,1140050,0,0,0,3080101,0,0,0,0,0,0,4051021,0,0,0,3090030,0,4040190,0,0,0,0,0,0,0,-1181190,0,2180131,0
21,37,627.808703764458,0,0,106426.630490477,106427.677555804,0,NumLock40,2,1,0,35,3,0,6162151,0,5230161,0,0,0,0,0,0,0,0,0,0,4091111,0,0,0,2071040,0,0,0,0,0,0,0,0,0,0,0,0,0,0,0,0,2180090,0,0,-3050071,0
21,38,928.254950529663,1,0,106429.50113089,106430.548180049,0,NumLock40,2,1,1,5,3,1031011,0,2031120,2152240,0,0,0,0,-1031011,0,0,0,0,0,0,0,0,0,0,0,0,0,0,0,0,0,0,0,2031120,0,0,0,0,0,0,0,0,0,1131180,1021060
21,39,551.745422344538,0,0,106432.583504452,106433.630567469,0,NumLock40,2,1,0,30,3,3181161,4170081,1141190,2181010,0,0,0,0,3181161,0,0,0,0,0,0,0,0,4170081,0,0,0,0,0,0,0,0,0,0,1141190,0,0,0,0,-2181010,0,0,0,0,0,0
21,40,1584.82280797034,0,0,106435.336532362,106436.38354187,0,NumLock40,2,0,0,9,3,5120261,0,6322171,0,0,0,0,0,0,1060171,0,0,-4060090,0,0,0,0,0,0,0,0,0,0,0,0,2161101,4161070,0,0,0,0,0,0,0,0,0,0,0,0,0
21,41,1143.92239968583,1,0,106439.1365232,106440.183618554,0,NumLock40,2,1,1,17,7,3220282,6262443,6330322,0,0,1020161,0,0,0,2200121,0,0,0,0,0,0,0,2020201,0,2131131,-2111111,0,0,0,0,3130091,0,0,2190131,0,1010100,0,0,0,0,0,0,0,0,0
21,42,642.161203286378,1,0,106442.360088894,106443.407151526,0,NumLock40,2,0,1,12,7,0,11371424,9251403,3180151,0,0,0,0,0,0,0,0,0,1120071,0,-2051041,0,0,0,4110141,4090171,0,0,0,0,0,4080171,0,1060131,0,4111101,0,0,0,0,0,0,3180151,0,0
21,43,620.98103617609,1,0,106445.195453794,106446.24248409,0,NumLock40,2,0,1,28,3,1040151,2191011,1081150,2040200,0,0,0,0,0,0,0,0,1040151,0,0,2191011,0,0,0,0,0,0,0,0,0,1081150,0,0,0,0,0,-2040200,0,0,0,0,0,0,0,0
21,44,591.609284761944,1,0,106447.936622982,106448.983686769,0,NumLock40,2,1,1,10,3,0,4312112,0,3100161,0,0,0,0,0,0,0,0,0,-1201021,0,0,0,0,3111091,0,0,0,0,0,0,0,0,0,0,0,0,0,0,0,1010081,2090080,0,0,0,0
21,45,452.609505722648,0,1,106450.642535906,106451.689606237,0,NumLock40,2,1,1,24,7,1051141,4171091,6271353,8440230,0,0,0,0,0,1051141,0,0,0,4171091,0,0,0,0,0,0,0,0,0,0,3110191,0,1100051,-2061111,0,0,0,3190130,0,0,0,3110050,0,2140050,0,0
21,46,1521.19761520589,0,0,106453.219028803,106454.26609798,0,NumLock40,2,0,0,13,7,0,10283350,4080140,10342271,0,0,0,0,0,0,0,0,0,0,0,0,-1040060,4041050,0,4061110,0,1141130,0,0,4080140,0,0,0,0,0,0,0,0,4131160,4051031,2160080,0,0,0,0
21,47,776.047930834466,0,0,106456.819084777,106457.86614279,0,NumLock40,2,0,0,3,3,4120390,2010150,2060140,0,0,0,-1080200,0,0,0,0,3040190,0,2010150,0,0,0,0,0,0,0,0,0,0,0,0,0,0,2060140,0,0,0,0,0,0,0,0,0,0,0
21,48,610.775721084792,0,0,106459.807351937,106460.854414954,0,NumLock40,2,1,0,22,7,2040190,8523392,4181322,4151321,0,0,0,0,2040190,0,0,0,0,0,0,3131171,2191120,0,0,0,3201101,0,0,0,0,-1050141,0,3131181,0,0,0,0,0,0,0,0,0,2070191,2081130,0
21,49,593.353542877594,0,0,106480.654650242,106481.701718649,0,NumLock40,3,1,0,24,7,1051141,4171091,6271353,8440230,0,0,0,0,0,1051141,0,0,0,4171091,0,0,0,0,0,0,0,0,0,0,3110191,0,1100051,-2061111,0,0,0,3190130,0,0,0,3110050,0,2140050,0,0
21,50,655.460834575933,1,0,106483.372341431,106484.419401754,0,NumLock40,3,0,1,3,3,6300191,0,2160090,1110130,0,0,-3200170,3100021,0,0,0,0,0,0,0,0,0,0,0,0,0,0,0,0,0,0,0,0,0,0,2160090,0,0,0,0,1110130,0,0,0,0
21,51,1308.89664964343,0,1,106486.090044169,106487.137084473,0,NumLock40,3,0,1,7,7,3340152,2181161,8473353,1171130,1190131,0,0,0,0,0,-2150021,0,0,0,0,0,0,1010030,1171131,0,0,0,0,0,3201161,0,3131141,2141051,0,0,0,0,0,0,1171130,0,0,0,0,0
21,52,542.639555773349,1,0,106489.525387666,106490.572413342,0,NumLock40,3,0,1,21,7,4051141,5380191,7262533,1061161,0,0,0,0,0,0,0,4051141,0,4190090,0,0,0,0,0,0,0,1190101,0,0,-1030201,0,4031010,0,1151121,0,1050201,0,0,0,0,0,0,0,1061161,0
21,53,729.820663749706,1,0,106492.301858544,106493.348915402,0,NumLock40,3,1,1,30,3,3181161,4170081,1141190,2181010,0,0,0,0,3181161,0,0,0,0,0,0,0,0,4170081,0,0,0,0,0,0,0,0,0,0,1141190,0,0,0,0,-2181010,0,0,0,0,0,0
21,54,1802.97979967145,1,0,106495.160711067,106496.20777524,0,NumLock40,3,1,1,17,7,3220282,6262443,6330322,0,0,1020161,0,0,0,2200121,0,0,0,0,0,0,0,2020201,0,2131131,-2111111,0,0,0,0,3130091,0,0,2190131,0,1010100,0,0,0,0,0,0,0,0,0
21,55,1188.59211471863,1,0,106499.1489994,106500.196055873,0,NumLock40,3,1,1,10,3,0,4312112,0,3100161,0,0,0,0,0,0,0,0,0,-1201021,0,0,0,0,3111091,0,0,0,0,0,0,0,0,0,0,0,0,0,0,0,1010081,2090080,0,0,0,0
21,56,1252.39477449213,1,0,106502.537271795,106503.584335968,0,NumLock40,3,0,1,25,7,5230462,2070201,7382301,4051121,0,0,1080191,0,0,2120160,0,2030111,0,0,0,2070201,0,0,0,0,0,0,0,0,0,3171100,0,0,-3011150,0,1200051,0,0,4051121,0,0,0,0,0,0
21,57,536.586044676369,0,0,106505.996130633,106507.04319673,0,NumLock40,3,1,0,23,3,2091130,0,3202111,4131151,2091130,0,0,0,0,0,0,0,0,0,0,0,0,0,0,0,0,0,0,0,0,0,-2121071,0,1081040,0,0,0,0,0,0,0,0,0,0,4131151
21,58,629.085619279067,0,0,106508.678513972,106509.725582764,0,NumLock40,3,0,0,28,7,0,12280391,3190011,11532494,0,0,0,0,0,0,0,0,0,4170050,0,0,4080150,4030191,0,0,0,0,0,0,0,3190011,0,0,0,0,0,-3060181,0,0,0,2150181,0,0,3171011,3151121
21,59,648.923812492285,0,0,106511.372666723,106512.419738209,0,NumLock40,3,1,0,5,3,1031011,0,2031120,2152240,0,0,0,0,-1031011,0,0,0,0,0,0,0,0,0,0,0,0,0,0,0,0,0,0,0,2031120,0,0,0,0,0,0,0,0,0,1131180,1021060
21,60,799.848142254632,0,0,106514.266877526,106515.313886649,0,NumLock40,3,1,0,31,7,10281380,4220372,0,9222321,0,4120170,0,2060110,0,4101100,0,0,0,0,0,0,3040201,0,0,1180171,0,0,0,0,0,0,0,0,0,0,0,0,4031150,0,-4090141,0,0,0,0,1101030
21,61,905.073371366598,1,0,106517.137444027,106518.184506659,0,NumLock40,3,0,1,33,3,3191100,0,1061181,5281072,0,3191100,0,0,0,0,0,0,0,0,0,0,0,0,0,0,0,0,0,0,0,0,0,1061181,0,0,0,4181021,0,0,0,0,-1100051,0,0,0
21,62,945.808785385452,0,0,106520.172828869,106521.219836452,0,NumLock40,3,0,0,18,7,10422371,5402322,1111060,4150100,4101050,3161121,3160200,0,0,0,0,0,0,0,0,1151171,0,0,0,0,3080141,-1171010,0,0,0,1111060,0,0,0,0,0,0,0,0,0,0,4150100,0,0,0
21,63,610.749158775434,1,0,106523.184570948,106524.231671306,0,NumLock40,3,1,1,35,3,0,6162151,0,5230161,0,0,0,0,0,0,0,0,0,0,4091111,0,0,0,2071040,0,0,0,0,0,0,0,0,0,0,0,0,0,0,0,0,2180090,0,0,-3050071,0
21,64,678.26438206248,1,0,106525.949307446,106526.996368923,0,NumLock40,3,0,1,9,3,4120031,3121041,6231101,0,0,0,0,0,0,0,0,0,-4120031,0,0,3121041,0,0,0,0,0,0,0,2170041,0,4061060,0,0,0,0,0,0,0,0,0,0,0,0,0,0
21,65,823.040885283262,1,0,106528.69051513,106529.737619338,0,NumLock40,3,0,1,19,3,0,3050050,8062300,0,0,0,0,0,0,0,0,0,0,0,0,0,0,0,3050050,0,0,0,-3011130,4040080,0,0,0,0,0,0,1011090,0,0,0,0,0,0,0,0,0
21,66,686.503701508627,0,0,106531.572903782,106532.619969494,0,NumLock40,3,0,0,12,3,4180121,3111150,0,4010201,0,0,0,0,0,4180121,0,0,0,0,0,-1081020,2030130,0,0,0,0,0,0,0,0,0,0,0,0,0,0,0,0,0,0,0,0,4010201,0,0
21,67,544.216355861863,0,0,106534.408232881,106535.455297823,0,NumLock40,3,1,0,11,3,0,7530181,0,1141131,0,0,0,0,0,0,0,0,0,0,-2190011,0,0,0,3190090,2150080,0,0,0,0,0,0,0,0,0,0,0,0,1141131,0,0,0,0,0,0,0
21,68,941.870249793283,0,0,106537.102384092,106538.14944634,0,NumLock40,3,1,0,34,7,4320191,1070191,6261362,4282261,1170081,0,0,0,0,0,1080070,2070040,0,0,0,1070191,0,0,0,0,0,0,0,0,0,4061201,2200161,0,0,0,0,0,0,0,3171200,0,0,-1111061,0,0
21,69,755.068713333458,0,0,106540.267127751,106541.314191538,0,NumLock40,3,0,0,13,3,5281242,3030091,4150181,0,0,0,0,0,3191051,0,0,2090191,0,0,0,0,-3030091,0,0,0,0,0,0,0,0,0,0,4150181,0,0,0,0,0,0,0,0,0,0,0,0
21,70,443.84509952215,1,0,106543.208331508,106544.255401455,0,NumLock40,3,1,1,22,7,2040190,8523392,4181322,4151321,0,0,0,0,2040190,0,0,0,0,0,0,3131171,2191120,0,0,0,3201101,0,0,0,0,-1050141,0,3131181,0,0,0,0,0,0,0,0,0,2070191,2081130,0
21,71,956.470279212226,0,1,106545.84365645,106546.890725627,0,NumLock40,3,0,1,2,7,6472532,3190131,4091172,4201141,0,-2141180,1101191,0,1090100,0,2140061,0,0,0,0,0,0,3190131,0,0,0,0,3030141,0,0,0,0,0,0,1061031,0,0,0,0,0,0,0,0,0,4201141
21,72,841.853157515288,0,0,106549.008420126,106550.055478139,0,NumLock40,3,1,0,36,7,1090140,3091100,2181201,13223493,0,1090140,0,0,0,0,0,0,0,3091100,0,0,0,0,0,0,0,0,0,0,0,0,0,0,2181201,0,0,0,4060071,3011141,0,3011050,2090201,0,0,-1051030
21,73,644.394746792386,1,0,106575.161648062,106576.208721474,0,NumLock40,4,1,1,11,3,0,7530181,0,1141131,0,0,0,0,0,0,0,0,0,0,-2190011,0,0,0,3190090,2150080,0,0,0,0,0,0,0,0,0,0,0,0,1141131,0,0,0,0,0,0,0
21,74,525.528041049256,0,0,106577.879332322,106578.926399189,0,NumLock40,4,0,0,3,7,3261121,1040091,3151141,8544543,0,0,-2180100,0,1081021,0,0,0,0,0,0,0,0,1040091,0,0,0,0,0,0,3151141,0,0,0,0,0,0,0,0,0,1011111,0,0,1171180,3201111,3161141
21,75,1527.41511969361,0,0,106580.52642629,106581.573486228,0,NumLock40,4,1,0,34,7,4320191,1070191,6261362,4282261,1170081,0,0,0,0,0,1080070,2070040,0,0,0,1070191,0,0,0,0,0,0,0,0,0,4061201,2200161,0,0,0,0,0,0,0,3171200,0,0,-1111061,0,0
21,76,1338.30035281426,0,0,106584.126485343,106585.173528343,0,NumLock40,4,0,0,33,7,6041160,2132291,3081150,9301201,0,4010140,2031020,0,0,0,0,0,0,1051200,0,0,0,0,1081091,0,0,0,0,0,3081150,0,0,0,0,0,0,0,3190101,0,0,0,-3051070,0,0,3060030
21,77,474.631967430469,1,0,106587.550043645,106588.597145929,0,NumLock40,4,1,1,35,3,0,6162151,0,5230161,0,0,0,0,0,0,0,0,0,0,4091111,0,0,0,2071040,0,0,0,0,0,0,0,0,0,0,0,0,0,0,0,0,2180090,0,0,-3050071,0
21,78,524.910563675803,0,0,106590.150057273,106591.197125295,0,NumLock40,4,0,0,28,3,0,2090141,3070030,3331221,0,0,0,0,0,0,0,0,0,0,2090141,0,0,0,0,0,0,0,0,0,0,0,0,0,0,0,3070030,-2161200,0,0,0,1170021,0,0,0,0
21,79,1061.41448681592,1,0,106592.891276506,106593.938342603,0,NumLock40,4,0,1,25,3,3081071,4212290,2151060,0,0,0,0,3081071,0,0,0,0,0,0,0,1091120,0,0,0,0,3121170,0,0,0,0,0,0,0,-2151060,0,0,0,0,0,0,0,0,0,0,0
21,80,514.904273411958,1,0,106596.020722709,106597.067783031,0,NumLock40,4,1,1,10,3,0,4312112,0,3100161,0,0,0,0,0,0,0,0,0,-1201021,0,0,0,0,3111091,0,0,0,0,0,0,0,0,0,0,0,0,0,0,0,1010081,2090080,0,0,0,0
21,81,616.235622394015,1,0,106598.785464211,106599.832524534,0,NumLock40,4,1,1,22,7,2040190,8523392,4181322,4151321,0,0,0,0,2040190,0,0,0,0,0,0,3131171,2191120,0,0,0,3201101,0,0,0,0,-1050141,0,3131181,0,0,0,0,0,0,0,0,0,2070191,2081130,0
21,82,397.162423614645,0,0,106601.632551173,106602.67961419,0,NumLock40,4,1,0,23,3,2091130,0,3202111,4131151,2091130,0,0,0,0,0,0,0,0,0,0,0,0,0,0,0,0,0,0,0,0,0,-2121071,0,1081040,0,0,0,0,0,0,0,0,0,0,4131151
21,83,648.301715569687,0,0,106604.091404236,106605.138461094,0,NumLock40,4,0,0,18,3,5222271,1030110,0,3170090,0,0,4021161,0,0,0,0,0,1201110,0,0,0,0,0,0,0,0,-1030110,0,0,0,0,0,0,0,0,0,0,0,0,3170090,0,0,0,0,0
21,84,482.933265593601,0,0,106606.820854827,106607.867922079,0,NumLock40,4,0,0,21,3,0,2141140,2181100,6222342,0,0,0,0,0,0,0,0,0,0,0,0,0,0,0,2141140,0,0,0,0,-2181100,0,0,0,0,0,0,3161171,0,0,3061171,0,0,0,0,0
21,85,654.193543086876,1,0,106609.55029079,106610.597361122,0,NumLock40,4,1,1,24,7,1051141,4171091,6271353,8440230,0,0,0,0,0,1051141,0,0,0,4171091,0,0,0,0,0,0,0,0,0,0,3110191,0,1100051,-2061111,0,0,0,3190130,0,0,0,3110050,0,2140050,0,0
21,86,973.869359761011,0,0,106612.373862027,106613.42092004,0,NumLock40,4,0,0,19,7,4090041,5271181,7082353,2170161,4090041,0,0,0,0,0,0,0,0,0,0,1030060,0,0,2191020,0,0,2050101,-4031081,0,2011131,0,1040141,0,0,0,0,0,0,2170161,0,0,0,0,0,0
21,87,642.451848820201,0,0,106615.562130649,106616.609192127,0,NumLock40,4,1,0,31,7,10281380,4220372,0,9222321,0,4120170,0,2060110,0,4101100,0,0,0,0,0,0,3040201,0,0,1180171,0,0,0,0,0,0,0,0,0,0,0,0,4031150,0,-4090141,0,0,0,0,1101030
21,88,632.183785099187,0,0,106618.409224926,106619.456289483,0,NumLock40,4,1,0,36,7,1090140,3091100,2181201,13223493,0,1090140,0,0,0,0,0,0,0,3091100,0,0,0,0,0,0,0,0,0,0,0,0,0,0,2181201,0,0,0,4060071,3011141,0,3011050,2090201,0,0,-1051030
21,89,2004.91723119922,0,0,106621.244541706,106622.291610498,0,NumLock40,4,0,0,2,7,14350671,0,8213260,2090071,4150101,-3020180,0,3090200,4090190,0,0,0,0,0,0,0,0,0,0,0,0,0,4031150,0,0,0,0,1131070,0,3051040,0,0,0,0,0,0,2090071,0,0,0
21,90,508.321056011482,0,0,106625.36224506,106626.409310772,0,NumLock40,4,1,0,17,7,3220282,6262443,6330322,0,0,1020161,0,0,0,2200121,0,0,0,0,0,0,0,2020201,0,2131131,-2111111,0,0,0,0,3130091,0,0,2190131,0,1010100,0,0,0,0,0,0,0,0,0
21,91,1605.00823597249,1,0,106628.056394731,106629.103453514,0,NumLock40,4,0,1,12,7,1060020,4482380,3291182,5211280,0,0,0,0,0,0,0,0,1060020,0,0,-2180050,1121170,0,1181160,0,0,0,0,1120081,0,0,0,2171101,0,0,0,3041160,0,0,0,0,0,0,0,2170120
21,92,639.841043564957,1,0,106631.856440619,106632.90350941,0,NumLock40,4,0,1,9,3,2161110,3180040,0,6221221,0,0,0,0,0,0,0,0,-2161110,3180040,0,0,0,0,0,0,0,0,0,0,0,0,0,0,0,0,0,3061031,0,0,0,0,0,3160190,0,0
21,93,1240.69773570227,1,0,106634.5505926,106635.597692958,0,NumLock40,4,0,1,13,3,2040110,4191131,6262351,0,0,2040110,0,0,0,0,0,0,0,0,0,0,-4191131,0,0,0,0,0,0,0,4081171,0,0,0,0,2181180,0,0,0,0,0,0,0,0,0,0
21,94,545.097146561602,1,0,106637.974152826,106639.021225083,0,NumLock40,4,1,1,5,3,1031011,0,2031120,2152240,0,0,0,0,-1031011,0,0,0,0,0,0,0,0,0,0,0,0,0,0,0,0,0,0,0,2031120,0,0,0,0,0,0,0,0,0,1131180,1021060
21,95,987.165526399622,1,0,106640.680073064,106641.727138391,0,NumLock40,4,0,1,7,7,6211071,5212182,7373212,4090030,0,0,0,2160020,0,0,-4051051,0,0,1091151,0,4121031,0,0,0,0,0,0,0,1191020,2151061,0,0,0,0,0,4031131,0,0,0,0,4090030,0,0,0,0
21,96,631.233701453311,1,0,106643.727165723,106644.774224891,0,NumLock40,4,1,1,30,3,3181161,4170081,1141190,2181010,0,0,0,0,3181161,0,0,0,0,0,0,0,0,4170081,0,0,0,0,0,0,0,0,0,0,1141190,0,0,0,0,-2181010,0,0,0,0,0,0
21,97,493.731420545373,1,0,106659.774448553,106660.821472305,0,NumLock40,5,0,1,13,3,3281141,2200150,0,1141051,0,0,0,0,1170090,0,0,2111051,0,0,0,0,-2200150,0,0,0,0,0,0,0,0,0,0,0,0,0,0,0,1141051,0,0,0,0,0,0,0
21,98,448.296403104905,0,0,106662.362678141,106663.409745393,0,NumLock40,5,0,0,18,7,6322221,5271212,11380423,4060200,0,0,0,0,4131101,0,0,0,2191120,4181091,0,0,0,0,0,0,0,-1090121,0,0,4080061,0,0,0,4170161,3130201,0,0,4060200,0,0,0,0,0,0,0
21,99,1013.54728602746,0,0,106664.915654929,106665.962709862,0,NumLock40,5,1,0,34,7,4320191,1070191,6261362,4282261,1170081,0,0,0,0,0,1080070,2070040,0,0,0,1070191,0,0,0,0,0,0,0,0,0,4061201,2200161,0,0,0,0,0,0,0,3171200,0,0,-1111061,0,0
21,100,460.561644300469,0,0,106668.021570393,106669.068636105,0,NumLock40,5,1,0,5,3,1031011,0,2031120,2152240,0,0,0,0,-1031011,0,0,0,0,0,0,0,0,0,0,0,0,0,0,0,0,0,0,0,2031120,0,0,0,0,0,0,0,0,0,1131180,1021060
21,101,525.061083419132,0,0,106670.65688956,106671.703951807,0,NumLock40,5,1,0,23,3,2091130,0,3202111,4131151,2091130,0,0,0,0,0,0,0,0,0,0,0,0,0,0,0,0,0,0,0,0,0,-2121071,0,1081040,0,0,0,0,0,0,0,0,0,0,4131151
21,102,1282.15957105567,1,0,106673.25692667,106674.303984298,0,NumLock40,5,0,1,2,7,7542142,1150010,6060191,4030160,1180020,-2131060,1120041,0,0,0,0,3111021,0,0,0,0,1150010,0,0,0,0,0,0,2050170,0,0,0,0,0,0,4010021,0,0,0,0,0,4030160,0,0,0
21,103,1003.04478108592,1,0,106676.715787817,106677.762853914,0,NumLock40,5,1,1,30,3,3181161,4170081,1141190,2181010,0,0,0,0,3181161,0,0,0,0,0,0,0,0,4170081,0,0,0,0,0,0,0,0,0,0,1141190,0,0,0,0,-2181010,0,0,0,0,0,0
21,104,941.091088810936,1,0,106679.809946958,106680.857000352,0,NumLock40,5,0,1,7,3,1140191,3200151,4061131,4110130,0,0,0,0,0,0,-1140191,0,0,0,0,3200151,0,0,0,0,0,0,0,0,4061131,0,0,0,0,0,0,0,0,0,0,0,4110130,0,0,0
21,105,1980.72089494963,1,0,106682.904101865,106683.951206843,0,NumLock40,5,0,1,3,7,5361312,4051140,2241161,7180201,0,3150091,-1101171,0,0,0,0,1110050,0,4051140,0,0,0,0,0,0,0,0,0,0,0,1161090,0,0,1080071,0,0,0,3050061,0,0,0,0,4130140,0,0
21,106,447.444099540007,1,0,106686.998314516,106688.045326719,0,NumLock40,5,1,1,22,7,2040190,8523392,4181322,4151321,0,0,0,0,2040190,0,0,0,0,0,0,3131171,2191120,0,0,0,3201101,0,0,0,0,-1050141,0,3131181,0,0,0,0,0,0,0,0,0,2070191,2081130,0
21,107,811.411599599523,0,0,106689.598288878,106690.645355745,0,NumLock40,5,1,0,31,7,10281380,4220372,0,9222321,0,4120170,0,2060110,0,4101100,0,0,0,0,0,0,3040201,0,0,1180171,0,0,0,0,0,0,0,0,0,0,0,0,4031150,0,-4090141,0,0,0,0,1101030
21,108,764.733928182977,0,0,106692.657151333,106693.70421974,0,NumLock40,5,1,0,35,3,0,6162151,0,5230161,0,0,0,0,0,0,0,0,0,0,4091111,0,0,0,2071040,0,0,0,0,0,0,0,0,0,0,0,0,0,0,0,0,2180090,0,0,-3050071,0
21,109,728.082180037745,0,0,106695.527775193,106696.574831666,0,NumLock40,5,1,0,11,3,0,7530181,0,1141131,0,0,0,0,0,0,0,0,0,0,-2190011,0,0,0,3190090,2150080,0,0,0,0,0,0,0,0,0,0,0,0,1141131,0,0,0,0,0,0,0
21,110,661.762260555406,0,0,106698.363105448,106699.410160766,0,NumLock40,5,0,0,25,3,2071170,0,5101190,2180131,0,0,0,0,0,0,2071170,0,0,0,0,0,0,0,0,0,0,0,1041120,0,0,0,0,0,-4060070,0,0,0,0,0,0,0,2180131,0,0,0
21,111,557.571806508349,0,0,106701.257252347,106702.304312285,0,NumLock40,5,0,0,12,7,4100161,3192110,8272262,8191131,4100161,0,0,0,0,0,0,0,0,0,0,-2021010,1171100,0,0,0,0,0,0,0,0,2151040,0,4080051,0,0,2041171,0,0,0,4181031,0,0,0,4010100,0
21,112,821.599976392463,1,0,106704.069049938,106705.116117575,0,NumLock40,5,1,1,24,7,1051141,4171091,6271353,8440230,0,0,0,0,0,1051141,0,0,0,4171091,0,0,0,0,0,0,0,0,0,0,3110191,0,1100051,-2061111,0,0,0,3190130,0,0,0,3110050,0,2140050,0,0
21,113,747.752145311097,1,0,106706.974988577,106708.022028496,0,NumLock40,5,0,1,28,7,6310282,0,17735612,3141081,0,0,0,2190121,4120161,0,0,0,0,0,0,0,0,0,0,0,0,0,0,0,0,2151170,0,3171101,4181061,4091090,4141190,-3141081,0,0,0,0,0,0,0,0
21,114,540.057237652945,0,0,106709.892640807,106710.939711139,0,NumLock40,5,0,0,19,7,7252331,4131040,5211311,5232321,3111130,0,2090150,0,2051051,0,0,0,0,0,0,0,0,4131040,0,0,0,0,-4171130,0,0,0,0,1040181,0,0,0,0,0,0,0,0,1041171,4191150,0,0
21,115,479.838949395344,1,0,106712.492671373,106713.539789825,0,NumLock40,5,1,1,36,7,1090140,3091100,2181201,13223493,0,1090140,0,0,0,0,0,0,0,3091100,0,0,0,0,0,0,0,0,0,0,0,0,0,0,2181201,0,0,0,4060071,3011141,0,3011050,2090201,0,0,-1051030
21,116,553.134746456635,1,0,106715.057418727,106716.10448213,0,NumLock40,5,0,1,21,3,2071040,1201050,2171060,3151170,0,2071040,0,0,0,0,0,0,0,0,0,0,0,0,0,0,1201050,0,0,0,-2171060,0,0,0,0,0,0,3151170,0,0,0,0,0,0,0,0
21,117,529.891958503868,0,1,106717.798621792,106718.845737934,0,NumLock40,5,0,1,33,3,8321081,2051071,0,4180050,0,0,4171021,0,0,0,0,4150060,0,0,0,2051071,0,0,0,0,0,0,0,0,0,0,0,0,0,0,0,0,0,0,0,0,-4180050,0,0,0
21,118,631.200594798429,0,0,106720.410420229,106721.457484017,0,NumLock40,5,1,0,17,7,3220282,6262443,6330322,0,0,1020161,0,0,0,2200121,0,0,0,0,0,0,0,2020201,0,2131131,-2111111,0,0,0,0,3130091,0,0,2190131,0,1010100,0,0,0,0,0,0,0,0,0
21,119,632.809346658178,1,0,106723.292804262,106724.339873824,0,NumLock40,5,0,1,9,3,3150180,3180030,3181131,3051101,0,0,0,0,0,0,0,0,-3150180,0,0,0,0,0,3180030,0,0,0,0,0,3181131,0,0,0,0,0,0,0,0,0,0,0,0,0,0,3051101
21,120,517.703709527268,0,0,106726.045779048,106727.09284553,0,NumLock40,5,1,0,10,3,0,4312112,0,3100161,0,0,0,0,0,0,0,0,0,-1201021,0,0,0,0,3111091,0,0,0,0,0,0,0,0,0,0,0,0,0,0,0,1010081,2090080,0,0,0,0
21,121,1048.56102527992,0,0,106754.96376273,106756.010826902,0,NumLock40,6,0,0,12,3,0,7312121,0,8111041,0,0,0,0,0,0,0,0,0,0,4191091,-3121030,0,0,0,0,0,0,0,0,0,0,0,0,0,0,0,4050010,0,0,0,0,0,0,4061031,0
21,122,607.634824613342,0,0,106758.234391825,106759.281469086,0,NumLock40,6,0,0,33,3,0,2041141,4041040,3312390,0,0,0,0,0,0,0,0,0,0,0,0,0,0,2041141,0,0,0,0,0,4041040,0,0,0,0,0,0,0,0,0,0,2111190,-1201200,0,0,0
21,123,553.22521229391,0,0,106760.905006908,106761.952069926,0,NumLock40,6,1,0,34,7,4320191,1070191,6261362,4282261,1170081,0,0,0,0,0,1080070,2070040,0,0,0,1070191,0,0,0,0,0,0,0,0,0,4061201,2200161,0,0,0,0,0,0,0,3171200,0,0,-1111061,0,0
21,124,377.69302300876,1,0,106763.587431824,106764.634465584,0,NumLock40,6,1,1,22,7,2040190,8523392,4181322,4151321,0,0,0,0,2040190,0,0,0,0,0,0,3131171,2191120,0,0,0,3201101,0,0,0,0,-1050141,0,3131181,0,0,0,0,0,0,0,0,0,2070191,2081130,0
21,125,535.87617665471,0,1,106766.10507035,106767.152139142,0,NumLock40,6,0,1,3,3,3201060,4071031,3021031,3081111,0,0,-3201060,0,0,0,0,0,0,0,4071031,0,0,0,0,0,0,0,0,0,3021031,0,0,0,0,0,0,0,0,0,0,0,3081111,0,0,0
21,126,588.072648417437,0,0,106768.716867633,106769.763937964,0,NumLock40,6,1,0,11,3,0,7530181,0,1141131,0,0,0,0,0,0,0,0,0,0,-2190011,0,0,0,3190090,2150080,0,0,0,0,0,0,0,0,0,0,0,0,1141131,0,0,0,0,0,0,0
21,127,771.233994018985,1,0,106771.528662913,106772.575728241,0,NumLock40,6,0,1,2,3,4332451,0,0,4170120,0,-1071190,0,0,0,0,0,1141161,2120100,0,0,0,0,0,0,0,0,0,0,0,0,0,0,0,0,0,0,0,0,4170120,0,0,0,0,0,0
21,128,651.376013818663,0,0,106774.387523136,106775.434590003,0,NumLock40,6,1,0,17,7,3220282,6262443,6330322,0,0,1020161,0,0,0,2200121,0,0,0,0,0,0,0,2020201,0,2131131,-2111111,0,0,0,0,3130091,0,0,2190131,0,1010100,0,0,0,0,0,0,0,0,0
21,129,1053.84384455101,1,0,106777.164025966,106778.211090138,0,NumLock40,6,1,1,36,7,1090140,3091100,2181201,13223493,0,1090140,0,0,0,0,0,0,0,3091100,0,0,0,0,0,0,0,0,0,0,0,0,0,0,2181201,0,0,0,4060071,3011141,0,3011050,2090201,0,0,-1051030
21,130,703.579799839645,0,0,106780.340535571,106781.387602823,0,NumLock40,6,1,0,24,7,1051141,4171091,6271353,8440230,0,0,0,0,0,1051141,0,0,0,4171091,0,0,0,0,0,0,0,0,0,0,3110191,0,1100051,-2061111,0,0,0,3190130,0,0,0,3110050,0,2140050,0,0
21,131,652.479311931529,1,0,106783.152329697,106784.19939233,0,NumLock40,6,1,1,30,3,3181161,4170081,1141190,2181010,0,0,0,0,3181161,0,0,0,0,0,0,0,0,4170081,0,0,0,0,0,0,0,0,0,0,1141190,0,0,0,0,-2181010,0,0,0,0,0,0
21,132,404.432411363814,1,0,106785.893536997,106786.940605788,0,NumLock40,6,1,1,5,3,1031011,0,2031120,2152240,0,0,0,0,-1031011,0,0,0,0,0,0,0,0,0,0,0,0,0,0,0,0,0,0,0,2031120,0,0,0,0,0,0,0,0,0,1131180,1021060
21,133,1637.84656084317,1,0,106788.364154466,106789.411222103,0,NumLock40,6,0,1,19,7,0,8354501,3190041,6391312,0,0,0,0,0,0,0,0,0,0,3041201,0,2101170,0,0,1171120,0,2041010,-3190041,0,0,0,0,0,0,0,0,0,0,0,0,2130060,2171151,0,0,2090101
21,134,868.500925163971,0,0,106792.164201508,106793.211262216,0,NumLock40,6,0,0,18,7,6222162,4221182,6332432,0,0,0,0,2031010,1110031,3081121,0,0,0,0,0,0,0,0,0,0,3150061,-1071121,1141101,0,0,3091170,0,0,2100161,0,0,0,0,0,0,0,0,0,0,0
21,135,1044.61325063312,1,0,106795.223062424,106796.270122747,0,NumLock40,6,0,1,25,7,2070121,6310201,8271353,5382081,0,0,0,0,0,0,0,0,2070121,0,2180051,0,4130150,0,0,0,0,0,0,0,0,0,2060151,2121191,-4090011,0,0,1201051,4181030,0,0,0,0,0,0,0
21,136,489.310528879287,1,0,106798.352510167,106799.399578574,0,NumLock40,6,1,1,35,3,0,6162151,0,5230161,0,0,0,0,0,0,0,0,0,0,4091111,0,0,0,2071040,0,0,0,0,0,0,0,0,0,0,0,0,0,0,0,0,2180090,0,0,-3050071,0
21,137,650.879799140967,0,0,106800.987828949,106802.034930463,0,NumLock40,6,0,0,13,3,2110190,6180180,2061151,0,0,2110190,0,0,0,0,0,0,0,4100040,0,0,-2080140,0,0,0,0,0,2061151,0,0,0,0,0,0,0,0,0,0,0,0,0,0,0,0,0
21,138,527.803545308416,1,1,106803.787908328,106804.834940164,0,NumLock40,6,0,0,21,7,5122290,3262250,4331290,1150180,0,2101200,0,0,0,0,0,3021090,0,0,0,0,0,0,1121060,2141190,0,0,1131080,2060020,-1140190,0,0,0,0,0,0,0,0,0,0,0,0,0,0,1150180
21,139,613.172872996074,1,0,106806.399663265,106807.446726283,0,NumLock40,6,1,1,23,3,2091130,0,3202111,4131151,2091130,0,0,0,0,0,0,0,0,0,0,0,0,0,0,0,0,0,0,0,0,0,-2121071,0,1081040,0,0,0,0,0,0,0,0,0,0,4131151
21,140,1209.75534357422,1,0,106809.093852203,106810.140871719,0,NumLock40,6,0,1,9,7,6171490,3171151,3191200,5141212,0,0,3050170,0,0,0,0,1090180,-2031140,0,0,0,0,0,2110061,0,1061090,0,0,0,0,3191200,0,0,0,0,0,1120101,4021111,0,0,0,0,0,0,0
21,141,684.685530897696,0,0,106812.493858593,106813.540915066,0,NumLock40,6,0,0,28,7,6160241,0,1140060,11361512,0,4030150,0,0,0,0,0,0,2130091,0,0,0,0,0,0,0,0,0,0,0,0,0,0,0,0,0,1140060,-1020190,3130051,3011111,0,0,2090120,0,0,2110040
21,142,733.806164571433,0,0,106815.293917184,106816.340946325,0,NumLock40,6,1,0,10,3,0,4312112,0,3100161,0,0,0,0,0,0,0,0,0,-1201021,0,0,0,0,3111091,0,0,0,0,0,0,0,0,0,0,0,0,0,0,0,1010081,2090080,0,0,0,0
21,143,1642.76251231786,1,0,106818.093921496,106819.140975274,0,NumLock40,6,1,1,31,7,10281380,4220372,0,9222321,0,4120170,0,2060110,0,4101100,0,0,0,0,0,0,3040201,0,0,1180171,0,0,0,0,0,0,0,0,0,0,0,0,4031150,0,-4090141,0,0,0,0,1101030
21,144,831.916930168518,1,0,106821.96455498,106823.011612223,0,NumLock40,6,0,1,7,3,3200041,4141180,4080041,3130031,0,0,0,0,0,0,-3200041,0,0,0,0,0,0,0,0,4141180,0,0,0,4080041,0,0,0,0,0,0,0,0,0,0,0,3130031,0,0,0,0
21,145,769.027782735066,1,0,106856.847307035,106857.894374287,0,NumLock40,7,1,1,35,3,0,6162151,0,5230161,0,0,0,0,0,0,0,0,0,0,4091111,0,0,0,2071040,0,0,0,0,0,0,0,0,0,0,0,0,0,0,0,0,2180090,0,0,-3050071,0
21,146,556.158229839639,0,0,106859.7179282,106860.765001226,0,NumLock40,7,1,0,5,3,1031011,0,2031120,2152240,0,0,0,0,-1031011,0,0,0,0,0,0,0,0,0,0,0,0,0,0,0,0,0,0,0,2031120,0,0,0,0,0,0,0,0,0,1131180,1021060
21,147,763.529385338188,1,0,106862.482669703,106863.529741189,0,NumLock40,7,0,1,13,3,5331222,2081171,0,4181130,0,3131141,0,2200081,0,0,0,0,0,0,0,0,-2081171,0,0,0,0,0,0,0,0,0,0,0,0,0,0,0,0,0,4181130,0,0,0,0,0
21,148,544.453106864239,0,0,106865.329758589,106866.376832386,0,NumLock40,7,0,0,19,3,2080030,1070040,1110130,3020170,0,0,2080030,0,0,0,0,0,0,0,0,0,0,0,0,1070040,0,0,-1110130,0,0,0,0,0,0,0,0,0,0,0,0,0,0,0,0,3020170
21,149,613.020043485449,1,1,106868.118025441,106869.165130804,0,NumLock40,7,1,0,17,7,3220282,6262443,6330322,0,0,1020161,0,0,0,2200121,0,0,0,0,0,0,0,2020201,0,2131131,-2111111,0,0,0,0,3130091,0,0,2190131,0,1010100,0,0,0,0,0,0,0,0,0
21,150,829.793100536335,1,0,106870.812230932,106871.859246984,0,NumLock40,7,1,1,34,7,4320191,1070191,6261362,4282261,1170081,0,0,0,0,0,1080070,2070040,0,0,0,1070191,0,0,0,0,0,0,0,0,0,4061201,2200161,0,0,0,0,0,0,0,3171200,0,0,-1111061,0,0
21,151,632.509077113355,0,0,106873.741621392,106874.788694419,0,NumLock40,7,0,0,9,3,7211172,3071070,0,1171030,0,0,0,0,0,0,0,3111021,-4100151,0,0,0,0,3071070,0,0,0,0,0,0,0,0,0,0,0,0,0,0,0,0,0,0,0,1171030,0,0
21,152,393.887945683673,1,0,106876.471068134,106877.518175037,0,NumLock40,7,1,1,10,3,0,4312112,0,3100161,0,0,0,0,0,0,0,0,0,-1201021,0,0,0,0,3111091,0,0,0,0,0,0,0,0,0,0,0,0,0,0,0,1010081,2090080,0,0,0,0
21,153,1127.41950823693,0,0,106879.094629439,106880.141691686,0,NumLock40,7,1,0,24,7,1051141,4171091,6271353,8440230,0,0,0,0,0,1051141,0,0,0,4171091,0,0,0,0,0,0,0,0,0,0,3110191,0,1100051,-2061111,0,0,0,3190130,0,0,0,3110050,0,2140050,0,0
21,154,964.34388574562,0,0,106882.341723946,106883.388786193,0,NumLock40,7,1,0,30,3,3181161,4170081,1141190,2181010,0,0,0,0,3181161,0,0,0,0,0,0,0,0,4170081,0,0,0,0,0,0,0,0,0,0,1141190,0,0,0,0,-2181010,0,0,0,0,0,0
21,155,1313.34256377886,1,0,106885.44764172,106886.494709357,0,NumLock40,7,0,1,7,7,6481413,4161301,4232052,4041080,0,0,0,0,2090051,0,-2200181,0,2191181,0,0,3050131,0,1111170,0,0,0,0,0,1031011,0,0,3201041,0,0,0,0,0,0,4041080,0,0,0,0,0,0
21,156,446.804679391789,0,0,106888.871216575,106889.918276513,0,NumLock40,7,1,0,22,7,2040190,8523392,4181322,4151321,0,0,0,0,2040190,0,0,0,0,0,0,3131171,2191120,0,0,0,3201101,0,0,0,0,-1050141,0,3131181,0,0,0,0,0,0,0,0,0,2070191,2081130,0
21,157,524.55447477405,1,0,106891.565355467,106892.612432728,0,NumLock40,7,0,1,3,7,6292341,8252291,0,6121181,1021020,0,-2110121,0,0,0,3161200,0,0,0,0,0,1081071,3161150,4010070,0,0,0,0,0,0,0,0,0,0,0,0,0,0,0,2111160,0,0,4010021,0,0
21,158,441.897966971737,0,0,106894.294803749,106895.341865227,0,NumLock40,7,1,0,23,3,2091130,0,3202111,4131151,2091130,0,0,0,0,0,0,0,0,0,0,0,0,0,0,0,0,0,0,0,0,0,-2121071,0,1081040,0,0,0,0,0,0,0,0,0,0,4131151
21,159,545.971777857631,1,1,106896.988972668,106898.036021057,0,NumLock40,7,0,0,33,7,4311311,7271351,0,6441380,0,0,0,0,0,0,2151130,0,2160181,0,1041120,3120050,0,0,0,3110181,0,0,0,0,0,0,0,0,0,0,0,0,0,3140140,0,2130050,-1171190,0,0,0
21,160,692.879424954299,1,0,106899.647809486,106900.694929092,0,NumLock40,7,0,1,18,7,4101021,2091041,2150050,10554744,0,0,0,0,4101021,0,0,0,0,0,0,0,0,0,0,0,0,-2091041,0,0,0,0,2150050,0,0,0,0,0,3071200,0,0,1171171,1150161,2131081,3031131,0
21,161,1250.27902906004,1,0,106902.412549449,106903.459613236,0,NumLock40,7,0,1,25,7,7150351,8282212,6142431,0,0,3040181,3020110,0,0,1090060,0,0,0,4141111,0,0,0,0,0,0,4141101,0,1021060,1040170,0,0,0,0,-4081201,0,0,0,0,0,0,0,0,0,0,0
21,162,842.564565391513,1,0,106905.742023677,106906.789059747,0,NumLock40,7,0,1,28,3,2131170,0,2211220,4161040,0,0,0,0,0,0,0,0,2131170,0,0,0,0,0,0,0,0,0,0,0,0,1190060,0,1021160,0,0,0,-4161040,0,0,0,0,0,0,0,0
21,163,1427.03770396474,1,0,106908.659683222,106909.706744314,0,NumLock40,7,1,1,31,7,10281380,4220372,0,9222321,0,4120170,0,2060110,0,4101100,0,0,0,0,0,0,3040201,0,0,1180171,0,0,0,0,0,0,0,0,0,0,0,0,4031150,0,-4090141,0,0,0,0,1101030
21,164,579.031840228708,0,0,106912.271483584,106913.318550451,0,NumLock40,7,0,0,2,7,4101070,10321263,5211070,7282231,0,-4101070,0,0,0,0,0,0,0,2070111,0,0,0,0,0,0,4181071,4070081,0,0,0,0,0,2130040,0,0,3081030,0,0,0,0,0,3111140,0,0,4171091
21,165,890.229276701575,1,0,106915.071517153,106916.11857555,0,NumLock40,7,1,1,11,3,0,7530181,0,1141131,0,0,0,0,0,0,0,0,0,0,-2190011,0,0,0,3190090,2150080,0,0,0,0,0,0,0,0,0,0,0,0,1141131,0,0,0,0,0,0,0
21,166,1317.13673903141,1,0,106918.177432232,106919.224503718,0,NumLock40,7,0,1,21,3,0,5122230,2021130,4031040,0,0,0,0,0,0,0,0,0,0,0,0,2091150,0,3031080,0,0,0,0,0,-2021130,0,0,0,0,0,0,0,4031040,0,0,0,0,0,0,0
21,167,747.828752544592,0,0,106921.659865693,106922.706895604,0,NumLock40,7,1,0,36,7,1090140,3091100,2181201,13223493,0,1090140,0,0,0,0,0,0,0,3091100,0,0,0,0,0,0,0,0,0,0,0,0,0,0,2181201,0,0,0,4060071,3011141,0,3011050,2090201,0,0,-1051030
21,168,703.55785706488,0,0,106924.601041349,106925.648102826,0,NumLock40,7,0,0,12,3,4040161,5513380,0,0,0,0,0,0,0,0,4040161,0,0,0,0,-2161070,0,1161190,0,0,0,2191120,0,0,0,0,0,0,0,0,0,0,0,0,0,0,0,0,0,0
21,169,1027.30964038346,1,0,106948.860142018,106949.907206575,0,NumLock40,8,0,1,12,3,4201321,4080101,4201040,0,0,0,0,0,0,1070120,3131201,0,0,0,0,-4080101,0,0,0,0,0,0,0,0,0,0,4201040,0,0,0,0,0,0,0,0,0,0,0,0,0
21,170,581.185311850277,0,0,106951.966060177,106953.013129739,0,NumLock40,8,0,0,19,7,5241120,4181110,13453533,0,0,0,3111040,0,2130080,0,0,0,0,0,0,0,0,0,4181110,0,0,0,-1111111,3071121,3120091,0,3071170,3080040,0,0,0,0,0,0,0,0,0,0,0,0
21,171,706.689514467143,1,0,106954.789626794,106955.836693661,0,NumLock40,8,0,1,25,7,2050120,2191030,11354692,0,0,0,0,0,0,0,0,2050120,0,0,0,0,0,2191030,0,0,0,0,1171101,2041150,3020170,2031140,0,0,-2080100,0,1011031,0,0,0,0,0,0,0,0,0
21,172,443.618357516243,0,0,106957.695538486,106958.742610357,0,NumLock40,8,1,0,35,3,0,6162151,0,5230161,0,0,0,0,0,0,0,0,0,0,4091111,0,0,0,2071040,0,0,0,0,0,0,0,0,0,0,0,0,0,0,0,0,2180090,0,0,-3050071,0
21,173,416.26688123506,1,0,106960.37792606,106961.424990617,0,NumLock40,8,0,1,33,3,2050051,0,2030120,5281221,0,0,2050051,0,0,0,0,0,0,0,0,0,0,0,0,0,0,0,0,0,0,2030120,0,0,0,0,0,4170080,0,0,0,0,-1111141,0,0,0
21,174,647.56951983145,0,0,106962.954422422,106964.001495064,0,NumLock40,8,1,0,5,3,1031011,0,2031120,2152240,0,0,0,0,-1031011,0,0,0,0,0,0,0,0,0,0,0,0,0,0,0,0,0,0,0,2031120,0,0,0,0,0,0,0,0,0,1131180,1021060
21,175,573.756720186793,0,0,106965.754460225,106966.801521703,0,NumLock40,8,1,0,24,7,1051141,4171091,6271353,8440230,0,0,0,0,0,1051141,0,0,0,4171091,0,0,0,0,0,0,0,0,0,0,3110191,0,1100051,-2061111,0,0,0,3190130,0,0,0,3110050,0,2140050,0,0
21,176,742.27607564535,0,0,106968.483900808,106969.530964595,0,NumLock40,8,1,0,34,7,4320191,1070191,6261362,4282261,1170081,0,0,0,0,0,1080070,2070040,0,0,0,1070191,0,0,0,0,0,0,0,0,0,4061201,2200161,0,0,0,0,0,0,0,3171200,0,0,-1111061,0,0
21,177,846.447281626752,0,0,106971.354524283,106972.401594229,0,NumLock40,8,0,0,3,3,1131160,8351321,0,0,0,0,-1131160,0,0,0,0,0,0,0,0,3160040,0,0,0,1011130,0,4180151,0,0,0,0,0,0,0,0,0,0,0,0,0,0,0,0,0,0
21,178,500.21300825756,0,0,106974.295739974,106975.342796832,0,NumLock40,8,1,0,30,3,3181161,4170081,1141190,2181010,0,0,0,0,3181161,0,0,0,0,0,0,0,0,4170081,0,0,0,0,0,0,0,0,0,0,1141190,0,0,0,0,-2181010,0,0,0,0,0,0
21,179,350.008170527872,1,0,106976.942818159,106977.989893495,0,NumLock40,8,1,1,10,3,0,4312112,0,3100161,0,0,0,0,0,0,0,0,0,-1201021,0,0,0,0,3111091,0,0,0,0,0,0,0,0,0,0,0,0,0,0,0,1010081,2090080,0,0,0,0
21,180,881.712785354466,0,0,106979.472265748,106980.51933223,0,NumLock40,8,0,0,28,7,4011010,7180261,6282231,7382350,0,0,0,0,0,4011010,0,0,0,0,0,0,0,0,4120091,0,3060170,0,0,0,0,2191040,0,0,0,0,4091191,-2011040,0,0,0,0,4181200,0,0,1190110
21,181,2149.61520237557,0,0,106982.519366876,106983.566432973,0,NumLock40,8,0,0,9,7,8432370,5300201,2130011,4131192,0,2161200,0,0,0,0,0,3170010,-3101160,2100171,0,0,0,0,3200030,0,0,0,0,0,0,0,0,0,2130011,0,0,0,0,0,0,1010161,0,0,3121031,0
21,182,546.04992493114,1,0,106986.789996742,106987.837083626,0,NumLock40,8,0,1,7,3,6220140,4011041,0,3050090,2070130,0,0,0,0,0,-4150010,0,0,0,0,4011041,0,0,0,0,0,0,0,0,0,0,0,0,0,0,0,0,0,0,0,0,0,3050090,0,0
21,183,821.091827936471,1,0,106989.554735549,106990.601794717,0,NumLock40,8,1,1,17,7,3220282,6262443,6330322,0,0,1020161,0,0,0,2200121,0,0,0,0,0,0,0,2020201,0,2131131,-2111111,0,0,0,0,3130091,0,0,2190131,0,1010100,0,0,0,0,0,0,0,0,0
21,184,1221.78460368013,1,0,106992.590071501,106993.637129514,0,NumLock40,8,0,1,2,7,3051130,0,9303402,8312313,0,-3051130,0,0,0,0,0,0,0,0,0,0,0,0,0,0,0,0,3121101,0,0,1031091,1011060,0,4140150,0,0,4090101,0,0,0,3121171,0,0,0,1101041
21,185,627.100375611917,0,0,106995.954810463,106997.001875405,0,NumLock40,8,0,0,21,3,4090051,3111190,2060060,4030140,4090051,0,0,0,0,0,0,0,0,0,0,0,0,0,0,0,3111190,0,0,0,-2060060,0,0,0,0,0,0,0,0,0,0,0,4030140,0,0,0
21,186,546.525736688636,1,0,106998.68425605,106999.731318682,0,NumLock40,8,1,1,11,3,0,7530181,0,1141131,0,0,0,0,0,0,0,0,0,0,-2190011,0,0,0,3190090,2150080,0,0,0,0,0,0,0,0,0,0,0,0,1141131,0,0,0,0,0,0,0
21,187,623.162609932479,0,1,107001.460756185,107002.507824592,0,NumLock40,8,0,1,13,7,8291341,4191172,0,5361182,0,0,0,3090050,4170160,0,0,0,1031131,0,0,0,-3100051,0,1091121,0,0,0,0,0,0,0,0,0,0,0,0,0,1190031,0,0,1101121,0,0,0,3070030
21,188,476.691123607452,1,0,107004.202008524,107005.249026116,0,NumLock40,8,1,1,23,3,2091130,0,3202111,4131151,2091130,0,0,0,0,0,0,0,0,0,0,0,0,0,0,0,0,0,0,0,0,0,-2121071,0,1081040,0,0,0,0,0,0,0,0,0,0,4131151
21,189,588.968067604583,0,0,107006.766700829,107007.813758842,0,NumLock40,8,0,0,18,3,0,6310211,4100140,4181111,0,0,0,0,0,0,0,0,0,0,0,0,0,0,0,0,3150130,-3160081,0,0,4100140,0,0,0,0,0,0,0,0,0,0,0,0,0,4181111,0
21,190,1143.42580005177,0,0,107009.543201349,107010.590271681,0,NumLock40,8,1,0,31,7,10281380,4220372,0,9222321,0,4120170,0,2060110,0,4101100,0,0,0,0,0,0,3040201,0,0,1180171,0,0,0,0,0,0,0,0,0,0,0,0,4031150,0,-4090141,0,0,0,0,1101030
21,191,671.184565027943,0,1,107012.884423816,107013.931481829,0,NumLock40,8,1,1,36,7,1090140,3091100,2181201,13223493,0,1090140,0,0,0,0,0,0,0,3091100,0,0,0,0,0,0,0,0,0,0,0,0,0,0,2181201,0,0,0,4060071,3011141,0,3011050,2090201,0,0,-1051030
21,192,585.119227922405,1,0,107015.637381278,107016.684458154,0,NumLock40,8,1,1,22,7,2040190,8523392,4181322,4151321,0,0,0,0,2040190,0,0,0,0,0,0,3131171,2191120,0,0,0,3201101,0,0,0,0,-1050141,0,3131181,0,0,0,0,0,0,0,0,0,2070191,2081130,0
21,193,739.965924905846,1,0,107045.555385748,107046.602499966,0,NumLock40,9,1,1,35,3,0,6162151,0,5230161,0,0,0,0,0,0,0,0,0,0,4091111,0,0,0,2071040,0,0,0,0,0,0,0,0,0,0,0,0,0,0,0,0,2180090,0,0,-3050071,0
21,194,330.105688844924,0,0,107048.367180259,107049.414247511,0,NumLock40,9,1,0,22,7,2040190,8523392,4181322,4151321,0,0,0,0,2040190,0,0,0,0,0,0,3131171,2191120,0,0,0,3201101,0,0,0,0,-1050141,0,3131181,0,0,0,0,0,0,0,0,0,2070191,2081130,0
21,195,835.988277292927,0,0,107050.908451924,107051.955457197,0,NumLock40,9,0,0,28,3,0,5241101,2120191,3101080,0,0,0,0,0,0,0,0,0,0,0,0,0,0,4121071,1120030,0,0,0,0,0,2120191,0,0,0,0,0,-3101080,0,0,0,0,0,0,0,0
21,196,420.810190480552,0,0,107053.814303177,107054.861368504,0,NumLock40,9,1,0,30,3,3181161,4170081,1141190,2181010,0,0,0,0,3181161,0,0,0,0,0,0,0,0,4170081,0,0,0,0,0,0,0,0,0,0,1141190,0,0,0,0,-2181010,0,0,0,0,0,0
21,197,1332.01971474045,1,0,107056.320213867,107057.36727265,0,NumLock40,9,0,1,12,7,5321190,2171241,4062091,6170202,0,0,2130150,3191040,0,0,0,0,0,0,0,-1061060,0,1110181,0,0,0,0,0,0,0,0,0,3051020,0,0,1011071,4040171,0,0,0,0,0,0,0,2130031
21,198,664.779199592886,1,0,107059.708488187,107060.755553514,0,NumLock40,9,1,1,24,7,1051141,4171091,6271353,8440230,0,0,0,0,0,1051141,0,0,0,4171091,0,0,0,0,0,0,0,0,0,0,3110191,0,1100051,-2061111,0,0,0,3190130,0,0,0,3110050,0,2140050,0,0
21,199,715.938201567042,1,1,107062.484991017,107063.532055574,0,NumLock40,9,1,0,36,7,1090140,3091100,2181201,13223493,0,1090140,0,0,0,0,0,0,0,3091100,0,0,0,0,0,0,0,0,0,0,0,0,0,0,2181201,0,0,0,4060071,3011141,0,3011050,2090201,0,0,-1051030
21,200,809.729320200859,1,0,107065.320322811,107066.367428174,0,NumLock40,9,0,1,7,3,2091011,7280301,4151130,0,0,0,0,0,0,0,-2091011,0,0,0,0,3180101,0,0,0,4100200,0,0,0,0,4151130,0,0,0,0,0,0,0,0,0,0,0,0,0,0,0
21,201,773.918711754959,0,0,107068.33211917,107069.379180262,0,NumLock40,9,1,0,31,7,10281380,4220372,0,9222321,0,4120170,0,2060110,0,4101100,0,0,0,0,0,0,3040201,0,0,1180171,0,0,0,0,0,0,0,0,0,0,0,0,4031150,0,-4090141,0,0,0,0,1101030
21,202,551.708851067815,1,0,107071.214502047,107072.261571994,0,NumLock40,9,0,1,9,7,2181342,4121332,1141160,7291322,0,0,1170141,0,0,0,0,0,-1011201,0,0,0,0,0,2011191,2110141,0,0,0,0,0,0,0,0,0,1141160,0,4120111,0,0,0,2131031,1040180,0,0,0
21,203,584.769683366176,1,0,107073.920421515,107074.967487227,0,NumLock40,9,0,1,2,3,7210262,6072092,0,0,0,-4180061,0,0,0,0,0,0,3030201,3051031,0,0,0,0,0,3021061,0,0,0,0,0,0,0,0,0,0,0,0,0,0,0,0,0,0,0,0
21,204,469.089684469509,1,0,107076.696922035,107077.743985438,0,NumLock40,9,1,1,11,3,0,7530181,0,1141131,0,0,0,0,0,0,0,0,0,0,-2190011,0,0,0,3190090,2150080,0,0,0,0,0,0,0,0,0,0,0,0,1141131,0,0,0,0,0,0,0
21,205,809.265057279845,0,1,107079.355780795,107080.402836883,0,NumLock40,9,0,1,21,7,5211050,4140080,4242281,4271252,0,3110040,0,0,0,0,2101010,0,0,0,0,0,0,4140080,0,0,0,0,0,0,-2141190,0,0,0,0,0,2101091,1060091,0,2110121,1101040,0,0,0,0,0
21,206,352.101588228834,1,0,107082.402864986,107083.449925308,0,NumLock40,9,1,1,23,3,2091130,0,3202111,4131151,2091130,0,0,0,0,0,0,0,0,0,0,0,0,0,0,0,0,0,0,0,0,0,-2121071,0,1081040,0,0,0,0,0,0,0,0,0,0,4131151
21,207,682.081269987975,0,0,107084.908784145,107085.955844083,0,NumLock40,9,0,0,13,7,6142212,7180171,3201070,9531352,0,4051141,0,0,0,0,0,0,2091071,4100010,0,0,-3080161,0,0,0,0,0,0,0,0,0,0,0,0,0,3201070,0,3190160,2181091,4160101,0,0,0,0,0
21,208,438.780938085984,1,0,107087.697051767,107088.74411055,0,NumLock40,9,1,1,10,3,0,4312112,0,3100161,0,0,0,0,0,0,0,0,0,-1201021,0,0,0,0,3111091,0,0,0,0,0,0,0,0,0,0,0,0,0,0,0,1010081,2090080,0,0,0,0
21,209,889.273803608376,1,0,107090.273550824,107091.320614997,0,NumLock40,9,0,1,19,3,0,7291203,2190121,0,0,0,0,0,0,0,0,0,0,0,0,1121051,0,0,0,2030091,0,4140061,-2190121,0,0,0,0,0,0,0,0,0,0,0,0,0,0,0,0,0
21,210,1833.1873013376,1,0,107093.273581236,107094.320651183,0,NumLock40,9,0,1,33,7,4143303,3020201,8201072,3142190,1031111,0,0,2071101,0,0,1041091,0,0,0,0,0,0,0,0,0,0,3020201,0,0,0,0,4100061,0,4101011,0,0,0,0,0,0,0,-1021030,0,0,2121160
21,211,649.606733233668,0,0,107097.344221188,107098.39128382,0,NumLock40,9,1,0,5,3,1031011,0,2031120,2152240,0,0,0,0,-1031011,0,0,0,0,0,0,0,0,0,0,0,0,0,0,0,0,0,0,0,2031120,0,0,0,0,0,0,0,0,0,1131180,1021060
21,212,706.892003945541,0,0,107100.214860061,107101.261904985,0,NumLock40,9,0,0,25,3,0,4120050,3200021,7281272,0,0,0,0,0,0,0,0,0,0,4120050,0,0,0,0,0,0,0,0,0,0,0,0,0,-3200021,0,0,0,0,0,0,3080151,4201121,0,0,0
21,213,1371.64875095186,0,0,107103.156069593,107104.203112977,0,NumLock40,9,0,0,3,3,1030180,2040181,1021081,2171051,0,0,-1030180,0,0,0,0,0,0,0,0,0,0,0,0,0,0,2040181,0,0,0,0,0,0,0,0,1021081,2171051,0,0,0,0,0,0,0,0
21,214,434.960585494991,0,0,107106.673741996,107107.720803089,0,NumLock40,9,1,0,17,7,3220282,6262443,6330322,0,0,1020161,0,0,0,2200121,0,0,0,0,0,0,0,2020201,0,2131131,-2111111,0,0,0,0,3130091,0,0,2190131,0,1010100,0,0,0,0,0,0,0,0,0
21,215,360.501051443862,1,1,107109.297284438,107110.344365548,0,NumLock40,9,0,0,18,7,8500380,4192211,1130191,3291361,2140170,3180200,0,0,0,0,0,0,3180010,0,0,0,2081170,0,0,0,0,-2111041,0,0,0,0,0,0,0,0,1130191,0,0,0,0,2191180,1100181,0,0,0
21,216,712.575952522457,0,1,107111.803208217,107112.850278933,0,NumLock40,9,1,1,34,7,4320191,1070191,6261362,4282261,1170081,0,0,0,0,0,1080070,2070040,0,0,0,1070191,0,0,0,0,0,0,0,0,0,4061201,2200161,0,0,0,0,0,0,0,3171200,0,0,-1111061,0,0
21,217,520.872323191725,1,0,107139.697698502,107140.744716863,0,NumLock40,10,0,1,33,7,0,1081021,6421494,5240182,0,0,0,0,0,0,0,0,0,0,0,0,0,0,0,0,0,1081021,0,1061081,0,0,1020191,0,2200091,0,2140131,0,0,0,2100060,2030081,-1110041,0,0,0
21,218,655.782661924604,0,0,107142.356549947,107143.403564075,0,NumLock40,10,0,0,9,3,4191050,3190170,1161040,1021120,0,0,0,0,0,0,0,0,-4191050,3190170,0,0,0,0,0,0,0,0,0,0,0,0,0,0,0,1161040,0,0,0,0,0,0,0,0,0,1021120
21,219,435.496066202177,1,0,107145.08594164,107146.133010817,0,NumLock40,10,0,1,19,3,3140291,0,2041201,3151181,2120121,0,0,1020170,0,0,0,0,0,0,0,0,0,0,0,0,0,0,-2041201,0,0,0,0,0,0,0,0,0,0,3151181,0,0,0,0,0,0
21,220,681.868771542213,1,1,107147.756626401,107148.803632059,0,NumLock40,10,1,0,24,7,1051141,4171091,6271353,8440230,0,0,0,0,0,1051141,0,0,0,4171091,0,0,0,0,0,0,0,0,0,0,3110191,0,1100051,-2061111,0,0,0,3190130,0,0,0,3110050,0,2140050,0,0
21,221,501.646602875553,1,0,107150.650718251,107151.697784348,0,NumLock40,10,0,1,25,7,4301221,8202202,7150112,3202121,0,0,0,0,0,1121030,0,0,3180191,4171081,0,0,0,0,0,0,0,4031121,0,0,3010091,0,0,0,-4140021,0,0,0,1121070,2081051,0,0,0,0,0,0
21,222,418.779521423858,1,0,107153.309568542,107154.356636564,0,NumLock40,10,0,1,21,3,4011081,2020091,4150080,4151071,0,0,4011081,0,0,0,0,0,0,2020091,0,0,0,0,0,0,0,0,0,0,-4150080,0,0,0,0,0,0,4151071,0,0,0,0,0,0,0,0
21,223,963.501206191722,1,0,107155.897830851,107156.944896948,0,NumLock40,10,0,1,3,3,6210212,0,0,7330390,0,4120131,-2090081,0,0,0,0,0,0,0,0,0,0,0,0,0,0,0,0,0,0,0,0,0,0,0,0,3180200,0,0,4150190,0,0,0,0,0
21,224,518.729245522991,0,0,107159.015513417,107160.062587598,0,NumLock40,10,1,0,35,3,0,6162151,0,5230161,0,0,0,0,0,0,0,0,0,0,4091111,0,0,0,2071040,0,0,0,0,0,0,0,0,0,0,0,0,0,0,0,0,2180090,0,0,-3050071,0
21,225,512.287308796658,1,1,107161.744957464,107162.792025101,0,NumLock40,10,1,0,36,7,1090140,3091100,2181201,13223493,0,1090140,0,0,0,0,0,0,0,3091100,0,0,0,0,0,0,0,0,0,0,0,0,0,0,2181201,0,0,0,4060071,3011141,0,3011050,2090201,0,0,-1051030
21,226,1122.55013704998,0,0,107164.509715135,107165.556767373,0,NumLock40,10,0,0,7,7,6562141,7310101,4080010,5221240,0,1201031,1181010,0,0,0,-4180100,0,0,3200070,0,0,0,0,4110031,0,0,0,0,0,0,4080010,0,0,0,0,0,0,2040040,3181200,0,0,0,0,0,0
21,227,1090.62686438847,1,0,107167.874434464,107168.921510955,0,NumLock40,10,0,1,12,3,2110130,2090101,6240081,0,0,0,0,0,0,0,2110130,0,0,0,0,-2090101,0,0,0,0,0,0,2100070,0,0,0,0,4140011,0,0,0,0,0,0,0,0,0,0,0,0
21,228,569.584898257745,0,0,107171.180398741,107172.227427882,0,NumLock40,10,1,0,22,7,2040190,8523392,4181322,4151321,0,0,0,0,2040190,0,0,0,0,0,0,3131171,2191120,0,0,0,3201101,0,0,0,0,-1050141,0,3131181,0,0,0,0,0,0,0,0,0,2070191,2081130,0
21,229,1103.8264058152,0,0,107173.980401128,107175.02746684,0,NumLock40,10,1,0,31,7,10281380,4220372,0,9222321,0,4120170,0,2060110,0,4101100,0,0,0,0,0,0,3040201,0,0,1180171,0,0,0,0,0,0,0,0,0,0,0,0,4031150,0,-4090141,0,0,0,0,1101030
21,230,1131.53666573635,1,0,107177.180433002,107178.227499869,0,NumLock40,10,1,1,17,7,3220282,6262443,6330322,0,0,1020161,0,0,0,2200121,0,0,0,0,0,0,0,2020201,0,2131131,-2111111,0,0,0,0,3130091,0,0,2190131,0,1010100,0,0,0,0,0,0,0,0,0
21,231,475.111628780724,0,0,107180.509886828,107181.55694484,0,NumLock40,10,1,0,23,3,2091130,0,3202111,4131151,2091130,0,0,0,0,0,0,0,0,0,0,0,0,0,0,0,0,0,0,0,0,0,-2121071,0,1081040,0,0,0,0,0,0,0,0,0,0,4131151
21,232,994.027455526521,1,0,107183.156973866,107184.204038039,0,NumLock40,10,0,1,2,7,13493412,3181312,0,7231302,4191071,-4131151,0,0,1080040,0,0,0,4091150,2151141,0,0,0,0,1030171,0,0,0,0,0,0,0,0,0,0,0,0,3041141,4190161,0,0,0,0,0,0,0
21,233,744.515008598682,1,0,107186.239358207,107187.286427769,0,NumLock40,10,1,1,30,3,3181161,4170081,1141190,2181010,0,0,0,0,3181161,0,0,0,0,0,0,0,0,4170081,0,0,0,0,0,0,0,0,0,0,1141190,0,0,0,0,-2181010,0,0,0,0,0,0
21,234,413.340792962117,1,0,107189.133518195,107190.180578133,0,NumLock40,10,1,1,11,3,0,7530181,0,1141131,0,0,0,0,0,0,0,0,0,0,-2190011,0,0,0,3190090,2150080,0,0,0,0,0,0,0,0,0,0,0,0,1141131,0,0,0,0,0,0,0
21,235,452.918244409375,1,0,107191.710061523,107192.75707565,0,NumLock40,10,1,1,5,3,1031011,0,2031120,2152240,0,0,0,0,-1031011,0,0,0,0,0,0,0,0,0,0,0,0,0,0,0,0,0,0,0,2031120,0,0,0,0,0,0,0,0,0,1131180,1021060
21,236,715.575183363399,0,1,107194.298275712,107195.345337959,0,NumLock40,10,0,1,13,7,5240201,7602292,4162241,0,3050051,0,0,0,0,2190150,0,0,0,3151141,1180010,0,-1130121,0,0,2141020,0,0,0,0,0,0,0,1061061,0,0,3101180,0,0,0,0,0,0,0,0,0
21,237,905.922595236916,0,0,107197.168897262,107198.216011479,0,NumLock40,10,1,0,34,7,4320191,1070191,6261362,4282261,1170081,0,0,0,0,0,1080070,2070040,0,0,0,1070191,0,0,0,0,0,0,0,0,0,4061201,2200161,0,0,0,0,0,0,0,3171200,0,0,-1111061,0,0
21,238,543.619666379527,0,0,107200.310116726,107201.357175509,0,NumLock40,10,0,0,18,7,10391410,3172331,2050041,3171200,0,0,0,4131070,0,2100180,0,0,4160160,1011150,0,0,0,0,0,0,0,-2161181,0,0,0,0,0,0,0,0,2050041,0,2120050,0,0,0,0,0,0,1051150
21,239,344.096325046849,0,0,107202.980731809,107204.027790977,0,NumLock40,10,1,0,10,3,0,4312112,0,3100161,0,0,0,0,0,0,0,0,0,-1201021,0,0,0,0,3111091,0,0,0,0,0,0,0,0,0,0,0,0,0,0,0,1010081,2090080,0,0,0,0
21,240,506.562554335687,0,0,107205.451353898,107206.498414991,0,NumLock40,10,0,0,28,3,0,0,5232212,5211190,0,0,0,0,0,0,0,0,0,0,0,0,0,0,0,0,0,0,0,0,3151121,0,0,0,2081091,0,0,-3021040,0,0,0,2190150,0,0,0,0
21,241,1471.48914613354,0,0,107211.569057637,107212.616128739,0,NumLock40,11,0,0,2,7,3252030,5171150,8102171,4191241,0,-2181010,0,0,1071020,0,0,0,0,0,0,3151110,2020040,0,0,0,0,0,0,0,0,0,4081150,0,4021021,0,0,0,1021201,0,0,0,0,3170040,0,0
21,242,1183.98875155253,0,0,107215.239696588,107216.286763839,0,NumLock40,11,0,0,3,7,8362601,9321192,4111151,4070091,0,3150200,-2161201,0,3051200,0,0,0,0,3010071,0,0,4161080,2150041,0,0,0,0,0,4111151,0,0,0,0,0,0,0,0,0,0,0,0,0,0,4070091,0
21,243,371.579073020257,1,0,107218.580912125,107219.627973602,0,NumLock40,11,0,1,9,7,4220311,3271202,1060061,9451391,0,0,0,0,0,0,3140191,0,-1080120,0,0,0,0,0,0,1110141,0,2161061,0,0,0,0,1060061,0,0,0,0,4200160,0,0,3070180,0,0,2181051,0,0
21,244,537.946496697259,1,0,107221.14564485,107222.192710177,0,NumLock40,11,0,1,25,3,1101151,1141111,1101200,3140170,0,0,0,0,1101151,0,0,0,0,0,1141111,0,0,0,0,0,0,0,0,0,0,0,0,0,-1101200,0,0,0,0,0,0,0,0,3140170,0,0
21,245,734.755863260943,1,0,107223.933912857,107224.980980109,0,NumLock40,11,1,1,23,3,2091130,0,3202111,4131151,2091130,0,0,0,0,0,0,0,0,0,0,0,0,0,0,0,0,0,0,0,0,0,-2121071,0,1081040,0,0,0,0,0,0,0,0,0,0,4131151
21,246,507.095340319211,0,0,107226.910427544,107227.957474778,0,NumLock40,11,0,0,19,3,0,6071241,4021061,4021111,0,0,0,0,0,0,0,0,0,0,4061191,0,0,0,0,2010050,0,0,-4021061,0,0,0,0,0,0,0,0,0,4021111,0,0,0,0,0,0,0
21,247,688.409258276806,0,0,107229.522216357,107230.56927745,0,NumLock40,11,0,0,12,3,0,3041191,3222061,1121080,0,0,0,0,0,0,0,0,0,0,0,-3041191,0,0,0,0,0,0,0,1041011,0,0,0,2181050,0,0,0,0,0,0,1121080,0,0,0,0,0
21,248,1103.20430890715,0,0,107232.428128819,107233.475189911,0,NumLock40,11,0,0,7,7,9492243,3122181,0,3100301,1110051,0,0,3130041,0,0,-1191021,4061130,0,0,0,0,2061080,0,0,0,1061101,0,0,0,0,0,0,0,0,0,0,2060100,0,1040201,0,0,0,0,0,0
21,249,617.318132630317,1,0,107235.722288268,107236.769346281,0,NumLock40,11,1,1,30,3,3181161,4170081,1141190,2181010,0,0,0,0,3181161,0,0,0,0,0,0,0,0,4170081,0,0,0,0,0,0,0,0,0,0,1141190,0,0,0,0,-2181010,0,0,0,0,0,0
21,250,494.691128231352,0,0,107238.557611208,107239.604716956,0,NumLock40,11,0,0,18,3,0,5391091,0,5130192,0,0,0,0,0,0,0,0,0,0,1201041,0,0,0,0,0,0,-4190050,0,0,0,0,0,0,0,0,0,0,0,0,0,0,0,0,1050181,4080011
21,251,630.565024257521,0,0,107241.251757414,107242.298823896,0,NumLock40,11,1,0,11,3,0,7530181,0,1141131,0,0,0,0,0,0,0,0,0,0,-2190011,0,0,0,3190090,2150080,0,0,0,0,0,0,0,0,0,0,0,0,1141131,0,0,0,0,0,0,0
21,252,426.99805299344,0,0,107244.075324801,107245.122385124,0,NumLock40,11,0,0,33,3,1121030,3110170,0,3262172,0,1121030,0,0,0,0,0,0,0,0,0,3110170,0,0,0,0,0,0,0,0,0,0,0,0,0,0,0,0,0,1191071,0,0,-2071101,0,0,0
21,253,430.373005729052,1,0,107246.651822319,107247.69889265,0,NumLock40,11,1,1,17,7,3220282,6262443,6330322,0,0,1020161,0,0,0,2200121,0,0,0,0,0,0,0,2020201,0,2131131,-2111111,0,0,0,0,3130091,0,0,2190131,0,1010100,0,0,0,0,0,0,0,0,0
21,254,433.788764334167,1,0,107249.275387088,107250.322472048,0,NumLock40,11,0,1,21,3,0,0,5232191,5051291,0,0,0,0,0,0,0,0,0,0,0,0,0,0,0,0,0,0,0,0,-3171071,0,0,2061120,0,0,0,0,4020181,0,0,0,0,0,1031110,0
21,255,781.283014934161,0,1,107251.945999861,107252.993070963,0,NumLock40,11,1,1,36,7,1090140,3091100,2181201,13223493,0,1090140,0,0,0,0,0,0,0,3091100,0,0,0,0,0,0,0,0,0,0,0,0,0,0,2181201,0,0,0,4060071,3011141,0,3011050,2090201,0,0,-1051030
21,256,487.272160578868,1,0,107254.946030658,107255.993099065,0,NumLock40,11,0,1,28,7,10361372,2170101,1040171,5291391,4060131,0,0,0,0,4170140,2131101,0,0,0,0,0,2170101,0,0,0,0,0,0,0,0,0,0,0,0,1040171,0,-1051181,0,0,0,1120160,0,0,0,3120050
21,257,512.371615259326,1,0,107257.651953976,107258.699018533,0,NumLock40,11,1,1,35,3,0,6162151,0,5230161,0,0,0,0,0,0,0,0,0,0,4091111,0,0,0,2071040,0,0,0,0,0,0,0,0,0,0,0,0,0,0,0,0,2180090,0,0,-3050071,0
21,258,527.35776049667,0,0,107260.404918752,107261.451986004,0,NumLock40,11,1,0,5,3,1031011,0,2031120,2152240,0,0,0,0,-1031011,0,0,0,0,0,0,0,0,0,0,0,0,0,0,0,0,0,0,0,2031120,0,0,0,0,0,0,0,0,0,1131180,1021060
21,259,585.42912149278,0,0,107263.11083437,107264.157899698,0,NumLock40,11,1,0,24,7,1051141,4171091,6271353,8440230,0,0,0,0,0,1051141,0,0,0,4171091,0,0,0,0,0,0,0,0,0,0,3110191,0,1100051,-2061111,0,0,0,3190130,0,0,0,3110050,0,2140050,0,0
21,260,775.736497409525,0,1,107265.840328847,107266.887343745,0,NumLock40,11,0,1,13,7,1161081,4171350,2020040,8481501,0,0,0,0,0,1161081,0,0,0,0,0,0,-1031190,0,0,3140160,0,0,2020040,0,0,0,0,0,0,0,0,4180101,0,2090130,0,0,1180090,0,1031180,0
21,261,673.175583113334,1,0,107268.81678502,107269.863849577,0,NumLock40,11,1,1,31,7,10281380,4220372,0,9222321,0,4120170,0,2060110,0,4101100,0,0,0,0,0,0,3040201,0,0,1180171,0,0,0,0,0,0,0,0,0,0,0,0,4031150,0,-4090141,0,0,0,0,1101030
21,262,369.349379136111,1,0,107271.616818589,107272.663881991,0,NumLock40,11,1,1,22,7,2040190,8523392,4181322,4151321,0,0,0,0,2040190,0,0,0,0,0,0,3131171,2191120,0,0,0,3201101,0,0,0,0,-1050141,0,3131181,0,0,0,0,0,0,0,0,0,2070191,2081130,0
21,263,381.562265640241,1,0,107274.134489067,107275.181559783,0,NumLock40,11,1,1,10,3,0,4312112,0,3100161,0,0,0,0,0,0,0,0,0,-1201021,0,0,0,0,3111091,0,0,0,0,0,0,0,0,0,0,0,0,0,0,0,1010081,2090080,0,0,0,0
21,264,945.32488945697,1,1,107276.628640355,107277.675710301,0,NumLock40,11,1,0,34,7,4320191,1070191,6261362,4282261,1170081,0,0,0,0,0,1080070,2070040,0,0,0,1070191,0,0,0,0,0,0,0,0,0,4061201,2200161,0,0,0,0,0,0,0,3171200,0,0,-1111061,0,0
21,265,492.443726136116,0,0,107284.59343452,107285.640504082,0,NumLock40,12,0,0,18,3,0,4172150,1201201,2070061,0,0,0,0,0,0,0,0,0,0,0,0,1101060,0,0,0,0,-3071090,0,0,0,0,0,0,1201201,0,0,0,2070061,0,0,0,0,0,0,0
21,266,455.682649073424,0,0,107287.311120319,107288.358238771,0,NumLock40,12,1,0,10,3,0,4312112,0,3100161,0,0,0,0,0,0,0,0,0,-1201021,0,0,0,0,3111091,0,0,0,0,0,0,0,0,0,0,0,0,0,0,0,1010081,2090080,0,0,0,0
21,267,549.858728685649,0,0,107289.922914907,107290.969974075,0,NumLock40,12,0,0,21,3,3292172,0,7111112,0,2121061,0,0,0,0,0,0,0,1171111,0,0,0,0,0,0,0,0,0,0,0,-4080081,0,0,0,0,3031031,0,0,0,0,0,0,0,0,0,0
21,268,776.391700972454,1,0,107292.640592238,107293.68765487,0,NumLock40,12,1,1,36,7,1090140,3091100,2181201,13223493,0,1090140,0,0,0,0,0,0,0,3091100,0,0,0,0,0,0,0,0,0,0,0,0,0,0,2181201,0,0,0,4060071,3011141,0,3011050,2090201,0,0,-1051030
21,269,556.868482817663,0,0,107295.628865942,107296.675915101,0,NumLock40,12,0,0,7,7,2222231,4092291,6231252,2011011,0,0,0,0,0,0,-1021131,1201100,0,0,0,0,0,0,0,0,2051201,2041090,3170120,0,0,0,0,0,1051121,0,2010011,0,0,2011011,0,0,0,0,0,0
21,270,424.896166136023,1,0,107298.32299598,107299.370119051,0,NumLock40,12,1,1,22,7,2040190,8523392,4181322,4151321,0,0,0,0,2040190,0,0,0,0,0,0,3131171,2191120,0,0,0,3201101,0,0,0,0,-1050141,0,3131181,0,0,0,0,0,0,0,0,0,2070191,2081130,0
21,271,579.111527156783,0,1,107300.946565754,107301.993633006,0,NumLock40,12,0,1,25,7,2010131,6291361,11461653,0,2010131,0,0,0,0,0,0,0,0,0,0,0,2070120,0,0,2070151,2151090,0,0,0,3080170,3011151,0,0,-1170131,4200201,0,0,0,0,0,0,0,0,0,0
21,272,745.461627593613,1,0,107303.60541874,107304.652490611,0,NumLock40,12,1,1,24,7,1051141,4171091,6271353,8440230,0,0,0,0,0,1051141,0,0,0,4171091,0,0,0,0,0,0,0,0,0,0,3110191,0,1100051,-2061111,0,0,0,3190130,0,0,0,3110050,0,2140050,0,0
21,273,664.118606597185,1,0,107306.546637126,107307.593700528,0,NumLock40,12,1,1,35,3,0,6162151,0,5230161,0,0,0,0,0,0,0,0,0,0,4091111,0,0,0,2071040,0,0,0,0,0,0,0,0,0,0,0,0,0,0,0,0,2180090,0,0,-3050071,0
21,274,600.09574914875,1,0,107309.346667615,107310.393727552,0,NumLock40,12,0,1,3,3,1160130,1051121,0,5151211,0,0,-1160130,0,0,0,0,0,0,0,1051121,0,0,0,0,0,0,0,0,0,0,0,0,0,0,0,0,0,0,4090161,0,0,0,1061050,0,0
21,275,417.749750849907,1,0,107312.029052109,107313.076116281,0,NumLock40,12,1,1,11,3,0,7530181,0,1141131,0,0,0,0,0,0,0,0,0,0,-2190011,0,0,0,3190090,2150080,0,0,0,0,0,0,0,0,0,0,0,0,1141131,0,0,0,0,0,0,0
21,276,785.403252113611,1,0,107314.511433601,107315.558498543,0,NumLock40,12,1,1,5,3,1031011,0,2031120,2152240,0,0,0,0,-1031011,0,0,0,0,0,0,0,0,0,0,0,0,0,0,0,0,0,0,0,2031120,0,0,0,0,0,0,0,0,0,1131180,1021060
21,277,535.224822699092,1,0,107317.511467092,107318.558533189,0,NumLock40,12,1,1,34,7,4320191,1070191,6261362,4282261,1170081,0,0,0,0,0,1080070,2070040,0,0,0,1070191,0,0,0,0,0,0,0,0,0,4061201,2200161,0,0,0,0,0,0,0,3171200,0,0,-1111061,0,0
21,278,597.731703877798,0,0,107320.193913565,107321.240914989,0,NumLock40,12,0,0,28,3,0,10362193,0,2130191,0,0,0,0,0,0,0,0,0,0,0,4181021,4120151,2061021,0,0,0,0,0,0,0,0,0,0,0,0,0,-2130191,0,0,0,0,0,0,0,0
21,279,803.186908669886,0,0,107322.876234156,107323.923301793,0,NumLock40,12,0,0,19,3,3080021,0,6271241,1030061,0,3080021,0,0,0,0,0,0,0,0,0,0,0,0,0,0,0,0,-4101051,0,2170190,0,0,0,0,0,0,0,0,0,0,0,0,0,0,1030061
21,280,436.680206112214,1,0,107325.840970192,107326.888036289,0,NumLock40,12,0,1,13,7,4170190,5203362,4030100,3231092,0,0,0,0,0,2050010,0,0,2120180,0,0,0,-2071090,0,0,2061191,1071081,0,0,0,0,0,0,0,0,0,4030100,0,0,0,1141031,0,0,0,0,2090061
21,281,434.601801884128,1,0,107328.441009997,107329.488074555,0,NumLock40,12,1,1,23,3,2091130,0,3202111,4131151,2091130,0,0,0,0,0,0,0,0,0,0,0,0,0,0,0,0,0,0,0,0,0,-2121071,0,1081040,0,0,0,0,0,0,0,0,0,0,4131151
21,282,518.27653143846,1,1,107331.088096651,107332.135155819,0,NumLock40,12,0,0,9,3,3312311,1160040,0,3101101,0,0,0,0,0,0,0,1191200,-2121111,0,0,0,1160040,0,0,0,0,0,0,0,0,0,0,0,0,0,0,0,0,0,3101101,0,0,0,0,0
21,283,858.97468123585,0,0,107333.723421208,107334.770476526,0,NumLock40,12,1,0,30,3,3181161,4170081,1141190,2181010,0,0,0,0,3181161,0,0,0,0,0,0,0,0,4170081,0,0,0,0,0,0,0,0,0,0,1141190,0,0,0,0,-2181010,0,0,0,0,0,0
21,284,1757.30572149041,0,0,107336.735220646,107337.782282124,0,NumLock40,12,0,0,2,7,2282191,7360362,4180201,4271190,0,-1161151,0,0,1121040,0,0,0,0,4190081,2010180,0,1160101,0,0,0,0,0,4180201,0,0,0,0,0,0,0,0,0,0,0,0,0,3141170,1130020,0,0
21,285,983.703957434045,1,1,107340.605850281,107341.652920612,0,NumLock40,12,0,0,12,7,6422381,1051171,7380341,3180090,0,0,0,1101101,0,1151200,0,4170080,0,0,0,-1051171,0,0,0,0,0,0,0,2170080,0,3040160,0,0,2170101,0,0,0,0,0,3180090,0,0,0,0,0
21,286,833.826721485821,1,0,107343.770591244,107344.817684674,0,NumLock40,12,1,1,17,7,3220282,6262443,6330322,0,0,1020161,0,0,0,2200121,0,0,0,0,0,0,0,2020201,0,2131131,-2111111,0,0,0,0,3130091,0,0,2190131,0,1010100,0,0,0,0,0,0,0,0,0
21,287,646.144009398995,1,0,107346.841219262,107347.888284974,0,NumLock40,12,1,1,31,7,10281380,4220372,0,9222321,0,4120170,0,2060110,0,4101100,0,0,0,0,0,0,3040201,0,0,1180171,0,0,0,0,0,0,0,0,0,0,0,0,4031150,0,-4090141,0,0,0,0,1101030
21,288,741.282491391758,0,0,107349.653013773,107350.700081025,0,NumLock40,12,0,0,33,7,1020050,4031081,4192281,7543632,0,0,0,0,0,0,0,0,1020050,0,0,0,0,0,0,4031081,0,0,0,0,0,0,0,0,3081090,0,1111191,2120200,0,0,2191181,2061191,-1171060,0,0,0
21,289,528.086106642149,0,0,107385.524014125,107386.571085996,0,NumLock40,13,0,0,28,7,2111061,9262212,2110060,7241282,0,0,0,0,0,0,0,2111061,0,0,2160161,0,3061030,0,0,0,4041021,0,0,0,0,0,0,0,0,0,2110060,-3040071,0,0,0,1150111,0,3051100,0,0
21,290,428.730377316242,0,0,107388.159340221,107389.206402854,0,NumLock40,13,0,0,19,3,0,5371301,4201160,3150181,0,0,0,0,0,0,0,0,0,0,2181170,0,3190131,0,0,0,0,0,-4201160,0,0,0,0,0,0,0,0,0,0,0,0,3150181,0,0,0,0
21,291,385.351051416365,1,0,107390.794659774,107391.841730875,0,NumLock40,13,0,1,18,3,3221120,4080131,4060011,0,0,0,2120110,0,0,1101010,0,0,0,0,0,0,0,0,0,0,0,-4080131,0,0,0,0,0,4060011,0,0,0,0,0,0,0,0,0,0,0,0
21,292,522.59579343081,0,0,107393.359400968,107394.40647361,0,NumLock40,13,1,0,30,3,3181161,4170081,1141190,2181010,0,0,0,0,3181161,0,0,0,0,0,0,0,0,4170081,0,0,0,0,0,0,0,0,0,0,1141190,0,0,0,0,-2181010,0,0,0,0,0,0
21,293,539.873996240203,0,0,107396.077085228,107397.124163644,0,NumLock40,13,0,0,13,3,0,6304462,0,0,0,0,0,0,0,0,0,0,0,0,1051011,0,-2021130,0,0,2101130,0,1131191,0,0,0,0,0,0,0,0,0,0,0,0,0,0,0,0,0,0
21,294,554.738493825425,1,0,107398.830053469,107399.877118412,0,NumLock40,13,1,1,35,3,0,6162151,0,5230161,0,0,0,0,0,0,0,0,0,0,4091111,0,0,0,2071040,0,0,0,0,0,0,0,0,0,0,0,0,0,0,0,0,2180090,0,0,-3050071,0
21,295,823.795408767182,1,0,107401.53599642,107402.5830348,0,NumLock40,13,0,1,12,3,5281291,3111171,0,2140060,0,0,0,0,2091191,0,3190100,0,0,0,0,-3111171,0,0,0,0,0,0,0,0,0,0,0,0,0,0,0,0,0,2140060,0,0,0,0,0,0
21,296,609.554624912562,1,0,107404.47717631,107405.524241252,0,NumLock40,13,0,1,7,7,7172281,1041171,5121190,9242391,0,0,0,0,0,0,-4021170,3151111,0,0,0,1041171,0,0,0,0,0,0,1030050,0,0,0,0,0,0,4091140,0,0,0,0,2031070,0,0,4151170,3060151,0
21,297,533.86052105634,1,0,107407.24193629,107408.289038574,0,NumLock40,13,1,1,17,7,3220282,6262443,6330322,0,0,1020161,0,0,0,2200121,0,0,0,0,0,0,0,2020201,0,2131131,-2111111,0,0,0,0,3130091,0,0,2190131,0,1010100,0,0,0,0,0,0,0,0,0
21,298,573.935342064942,1,1,107409.900767718,107410.94783343,0,NumLock40,13,1,0,36,7,1090140,3091100,2181201,13223493,0,1090140,0,0,0,0,0,0,0,3091100,0,0,0,0,0,0,0,0,0,0,0,0,0,0,2181201,0,0,0,4060071,3011141,0,3011050,2090201,0,0,-1051030
21,299,647.213045987883,0,0,107412.559623014,107413.606686416,0,NumLock40,13,1,0,31,7,10281380,4220372,0,9222321,0,4120170,0,2060110,0,4101100,0,0,0,0,0,0,3040201,0,0,1180171,0,0,0,0,0,0,0,0,0,0,0,0,4031150,0,-4090141,0,0,0,0,1101030
21,300,364.419569057645,1,0,107415.383171923,107416.430253418,0,NumLock40,13,1,1,10,3,0,4312112,0,3100161,0,0,0,0,0,0,0,0,0,-1201021,0,0,0,0,3111091,0,0,0,0,0,0,0,0,0,0,0,0,0,0,0,1010081,2090080,0,0,0,0
21,301,981.237127591157,0,0,107417.830272897,107418.877335915,0,NumLock40,13,0,0,3,7,5211272,10282322,4110111,5192320,0,0,-3010091,2201181,0,0,0,0,0,0,4071171,0,0,0,4100021,0,0,2111130,0,4110111,0,0,0,0,0,0,0,4161180,0,0,0,0,1031140,0,0,0
21,302,605.299651419045,0,0,107420.877370946,107421.924433963,0,NumLock40,13,1,0,24,7,1051141,4171091,6271353,8440230,0,0,0,0,0,1051141,0,0,0,4171091,0,0,0,0,0,0,0,0,0,0,3110191,0,1100051,-2061111,0,0,0,3190130,0,0,0,3110050,0,2140050,0,0
21,303,701.040597326937,1,0,107423.665638183,107424.712758174,0,NumLock40,13,0,1,33,7,4061060,8261421,10211281,3011111,0,0,0,0,0,0,0,0,4061060,0,0,4041140,0,0,0,1140131,3080150,0,3030090,0,0,0,3060011,0,0,0,4121180,0,0,0,0,0,-3011111,0,0,0
21,304,399.790937051876,0,0,107426.559787392,107427.606853874,0,NumLock40,13,0,0,9,7,1191191,4011121,9300490,9321371,0,0,0,0,0,0,0,0,-1191191,0,0,0,0,0,4011121,0,0,0,0,0,0,2110190,3070100,0,4120200,0,0,0,4190160,4071141,0,0,0,0,0,1060070
21,305,387.732034956571,1,0,107429.065730034,107430.112766489,0,NumLock40,13,1,1,5,3,1031011,0,2031120,2152240,0,0,0,0,-1031011,0,0,0,0,0,0,0,0,0,0,0,0,0,0,0,0,0,0,0,2031120,0,0,0,0,0,0,0,0,0,1131180,1021060
21,306,807.197816931875,1,0,107431.536309393,107432.583378185,0,NumLock40,13,0,1,2,7,10280312,5372301,4151180,4210362,0,-4110060,0,0,0,4140121,0,0,2030131,0,0,0,0,0,0,0,4201110,1171191,0,0,0,0,0,0,4151180,0,0,3190161,0,0,1020201,0,0,0,0,0
21,307,620.904428942595,0,1,107434.524587332,107435.571650349,0,NumLock40,13,1,1,34,7,4320191,1070191,6261362,4282261,1170081,0,0,0,0,0,1080070,2070040,0,0,0,1070191,0,0,0,0,0,0,0,0,0,4061201,2200161,0,0,0,0,0,0,0,3171200,0,0,-1111061,0,0
21,308,1455.26958597475,0,0,107437.242255038,107438.289328834,0,NumLock40,13,0,0,25,3,5211221,0,4241381,0,0,0,0,3061061,0,0,2150160,0,0,0,0,0,0,0,0,0,0,0,1070200,0,0,0,0,0,-3171181,0,0,0,0,0,0,0,0,0,0,0
21,309,714.274785248563,0,0,107440.807007781,107441.854069644,0,NumLock40,13,1,0,11,3,0,7530181,0,1141131,0,0,0,0,0,0,0,0,0,0,-2190011,0,0,0,3190090,2150080,0,0,0,0,0,0,0,0,0,0,0,0,1141131,0,0,0,0,0,0,0
21,310,562.221749947639,1,0,107443.70116161,107444.748225013,0,NumLock40,13,0,1,21,3,0,2170130,7152241,3170121,0,0,0,0,0,0,0,0,0,0,0,2170130,0,0,0,0,0,0,0,0,-4121060,0,0,0,3031181,0,0,0,0,0,0,0,3170121,0,0,0
21,311,424.160890703206,1,0,107446.407071839,107447.454136396,0,NumLock40,13,1,1,23,3,2091130,0,3202111,4131151,2091130,0,0,0,0,0,0,0,0,0,0,0,0,0,0,0,0,0,0,0,0,0,-2121071,0,1081040,0,0,0,0,0,0,0,0,0,0,4131151
21,312,398.776949892635,0,0,107449.042401785,107450.089465957,0,NumLock40,13,1,0,22,7,2040190,8523392,4181322,4151321,0,0,0,0,2040190,0,0,0,0,0,0,3131171,2191120,0,0,0,3201101,0,0,0,0,-1050141,0,3131181,0,0,0,0,0,0,0,0,0,2070191,2081130,0
21,313,864.91501382261,0,0,107476.572123851,107477.619236528,0,NumLock40,14,0,0,33,7,0,4080181,7413422,5443352,0,0,0,0,0,0,0,0,0,0,4080181,0,0,0,0,0,0,0,2081051,0,2150060,0,0,0,2041191,1141120,0,2181121,0,0,0,0,-2111120,1151111,0,0
21,314,433.630160419852,0,0,107479.65451974,107480.701583143,0,NumLock40,14,0,0,28,3,2121160,4020030,0,7331201,2121160,0,0,0,0,0,0,0,0,0,4020030,0,0,0,0,0,0,0,0,0,0,0,0,0,0,0,0,-3161081,0,0,0,0,0,4170120,0,0
21,315,371.759619709337,0,0,107482.172200227,107483.2192567,0,NumLock40,14,1,0,22,7,2040190,8523392,4181322,4151321,0,0,0,0,2040190,0,0,0,0,0,0,3131171,2191120,0,0,0,3201101,0,0,0,0,-1050141,0,3131181,0,0,0,0,0,0,0,0,0,2070191,2081130,0
21,316,778.518995241029,1,0,107484.760457147,107485.807524014,0,NumLock40,14,0,1,12,3,2071050,6311170,0,3021091,0,0,0,0,0,0,0,2071050,0,0,0,-2181100,0,4130070,0,0,0,0,0,0,0,0,0,0,0,0,0,0,0,0,3021091,0,0,0,0,0
21,317,772.40273548523,1,0,107487.713431856,107488.760497568,0,NumLock40,14,0,1,2,3,2040050,1090150,3030181,1070021,0,-2040050,0,0,0,0,0,0,0,0,0,0,0,0,1090150,0,0,0,0,3030181,0,0,0,0,0,0,0,0,0,1070021,0,0,0,0,0,0
21,318,435.757069732063,0,0,107490.737001476,107491.784110688,0,NumLock40,14,1,0,24,7,1051141,4171091,6271353,8440230,0,0,0,0,0,1051141,0,0,0,4171091,0,0,0,0,0,0,0,0,0,0,3110191,0,1100051,-2061111,0,0,0,3190130,0,0,0,3110050,0,2140050,0,0
21,319,485.341196399531,1,0,107493.301731122,107494.348791829,0,NumLock40,14,0,1,13,3,3120071,6061241,0,2171170,3120071,0,0,0,0,0,0,0,0,0,4050121,0,-2011120,0,0,0,0,0,0,0,0,0,0,0,0,0,0,2171170,0,0,0,0,0,0,0,0
21,320,536.296938982559,1,0,107495.960584877,107497.00764674,0,NumLock40,14,1,1,11,3,0,7530181,0,1141131,0,0,0,0,0,0,0,0,0,0,-2190011,0,0,0,3190090,2150080,0,0,0,0,0,0,0,0,0,0,0,0,1141131,0,0,0,0,0,0,0
21,321,718.233338819118,0,0,107498.713562358,107499.760628455,0,NumLock40,14,0,0,7,7,9443221,4140100,2050171,9421301,4141020,0,0,0,3191190,0,-2111011,0,0,4140100,0,0,0,0,0,0,0,0,0,0,2050171,0,0,0,0,0,0,4110150,1191131,0,0,0,0,0,4120020,0
21,322,599.055969592882,0,0,107501.56065009,107502.607715032,0,NumLock40,14,0,0,18,7,6171291,6322471,2031020,8211100,0,0,0,0,3161150,3010141,0,0,0,0,2151190,2050130,0,0,0,0,0,-2121151,0,2031020,0,0,0,0,0,0,0,0,0,0,0,4080070,0,0,0,4131030
21,323,542.856288797338,1,1,107504.243039204,107505.290102991,0,NumLock40,14,0,0,25,7,4382251,2130151,2331301,5283052,2181131,0,0,0,0,0,0,2201120,0,0,0,0,0,0,0,0,2130151,0,0,0,0,0,0,0,-1201190,1130111,0,1141020,0,0,3031011,0,0,0,0,1111021
21,324,531.838321126997,0,0,107506.90188911,107507.948948662,0,NumLock40,14,1,0,30,3,3181161,4170081,1141190,2181010,0,0,0,0,3181161,0,0,0,0,0,0,0,0,4170081,0,0,0,0,0,0,0,0,0,0,1141190,0,0,0,0,-2181010,0,0,0,0,0,0
21,325,980.123435540008,0,0,107509.666625993,107510.71368362,0,NumLock40,14,0,0,19,7,11402552,4161101,8371171,2131080,0,0,3150141,0,0,3040171,1141080,4071160,0,0,0,0,4161101,0,0,0,0,0,-4180020,4191151,0,0,0,0,0,0,0,0,0,0,0,0,0,0,2131080,0
21,326,459.857165740686,0,0,107512.807891267,107513.854906549,0,NumLock40,14,1,0,5,3,1031011,0,2031120,2152240,0,0,0,0,-1031011,0,0,0,0,0,0,0,0,0,0,0,0,0,0,0,0,0,0,0,2031120,0,0,0,0,0,0,0,0,0,1131180,1021060
21,327,369.93028523284,1,0,107515.466694593,107516.513751451,0,NumLock40,14,1,1,10,3,0,4312112,0,3100161,0,0,0,0,0,0,0,0,0,-1201021,0,0,0,0,3111091,0,0,0,0,0,0,0,0,0,0,0,0,0,0,0,1010081,2090080,0,0,0,0
21,328,635.913671852904,0,0,107517.960841261,107519.007951244,0,NumLock40,14,1,0,34,7,4320191,1070191,6261362,4282261,1170081,0,0,0,0,0,1080070,2070040,0,0,0,1070191,0,0,0,0,0,0,0,0,0,4061201,2200161,0,0,0,0,0,0,0,3171200,0,0,-1111061,0,0
21,329,929.400594352046,1,0,107520.690282614,107521.737349096,0,NumLock40,14,0,1,9,7,5260262,7081071,4181030,6311131,0,0,0,0,1120060,0,0,1060031,-3080171,0,4031020,0,0,0,0,0,0,3050051,0,0,4181030,0,0,0,0,0,0,0,3141050,0,0,3170081,0,0,0,0
21,330,637.706820009043,1,0,107523.713904203,107524.760909091,0,NumLock40,14,0,1,21,3,1140110,0,5220172,2160101,0,0,0,0,0,1140110,0,0,0,0,0,0,0,0,0,0,0,0,1200021,0,-4020151,0,0,0,0,0,0,0,0,0,2160101,0,0,0,0,0
21,331,1137.56707917491,1,0,107526.455055683,107527.502116006,0,NumLock40,14,1,1,31,7,10281380,4220372,0,9222321,0,4120170,0,2060110,0,4101100,0,0,0,0,0,0,3040201,0,0,1180171,0,0,0,0,0,0,0,0,0,0,0,0,4031150,0,-4090141,0,0,0,0,1101030
21,332,481.027323869057,0,0,107529.831570986,107530.878626689,0,NumLock40,14,1,0,17,7,3220282,6262443,6330322,0,0,1020161,0,0,0,2200121,0,0,0,0,0,0,0,2020201,0,2131131,-2111111,0,0,0,0,3130091,0,0,2190131,0,1010100,0,0,0,0,0,0,0,0,0
21,333,660.780995065579,1,0,107532.419827135,107533.466897082,0,NumLock40,14,1,1,35,3,0,6162151,0,5230161,0,0,0,0,0,0,0,0,0,0,4091111,0,0,0,2071040,0,0,0,0,0,0,0,0,0,0,0,0,0,0,0,0,2180090,0,0,-3050071,0
21,334,388.673264504178,1,0,107535.325752301,107536.372807619,0,NumLock40,14,1,1,23,3,2091130,0,3202111,4131151,2091130,0,0,0,0,0,0,0,0,0,0,0,0,0,0,0,0,0,0,0,0,0,-2121071,0,1081040,0,0,0,0,0,0,0,0,0,0,4131151
21,335,667.000424335129,0,1,107537.843425088,107538.890478482,0,NumLock40,14,0,1,3,3,1121061,0,2151031,7220231,0,0,-1121061,0,0,0,0,0,0,0,0,0,0,0,0,0,0,0,2151031,0,0,0,0,0,0,0,0,0,0,0,0,0,3040180,4180051,0,0
21,336,1188.17058247805,1,0,107540.608162356,107541.655229993,0,NumLock40,14,1,1,36,7,1090140,3091100,2181201,13223493,0,1090140,0,0,0,0,0,0,0,3091100,0,0,0,0,0,0,0,0,0,0,0,0,0,0,2181201,0,0,0,4060071,3011141,0,3011050,2090201,0,0,-1051030
21,337,487.417290874873,0,0,107552.584762889,107553.631831681,0,NumLock40,15,0,0,18,3,0,7102122,0,5170180,0,0,0,0,0,0,0,0,0,0,3041081,0,0,0,0,0,0,-4061041,0,0,0,0,0,0,0,0,0,0,0,0,0,4110110,1060070,0,0,0
21,338,412.732554643299,1,0,107555.196571336,107556.243623189,0,NumLock40,15,1,1,22,7,2040190,8523392,4181322,4151321,0,0,0,0,2040190,0,0,0,0,0,0,3131171,2191120,0,0,0,3201101,0,0,0,0,-1050141,0,3131181,0,0,0,0,0,0,0,0,0,2070191,2081130,0
21,339,357.628472760553,0,0,107557.702480487,107558.749566602,0,NumLock40,15,1,0,17,7,3220282,6262443,6330322,0,0,1020161,0,0,0,2200121,0,0,0,0,0,0,0,2020201,0,2131131,-2111111,0,0,0,0,3130091,0,0,2190131,0,1010100,0,0,0,0,0,0,0,0,0
21,340,312.764352420345,1,0,107560.255448805,107561.302543004,0,NumLock40,15,0,1,28,3,5172161,3091191,0,3130010,0,0,1161150,0,0,0,4011011,0,0,0,0,0,3091191,0,0,0,0,0,0,0,0,0,0,0,0,0,0,-3130010,0,0,0,0,0,0,0,0
21,341,549.042226484744,1,0,107562.678999023,107563.726068585,0,NumLock40,15,0,1,9,3,3160382,3121190,1171151,0,0,0,0,0,0,1060191,0,0,-2100191,0,0,0,0,0,0,3121190,0,0,1171151,0,0,0,0,0,0,0,0,0,0,0,0,0,0,0,0,0
21,342,513.205440685852,1,1,107565.431980353,107566.479037596,0,NumLock40,15,1,0,34,7,4320191,1070191,6261362,4282261,1170081,0,0,0,0,0,1080070,2070040,0,0,0,1070191,0,0,0,0,0,0,0,0,0,4061201,2200161,0,0,0,0,0,0,0,3171200,0,0,-1111061,0,0
21,343,1479.38238568895,0,0,107568.149647289,107569.196720316,0,NumLock40,15,0,0,25,7,7190240,2342171,3081130,6201181,0,0,0,0,0,0,4090060,0,3100180,0,1161120,0,0,0,0,1181051,0,0,0,0,1051070,0,0,0,-2030060,0,0,0,2020050,0,0,0,0,0,0,4181131
21,344,1375.34206641431,0,0,107571.796758966,107572.843816979,0,NumLock40,15,0,0,33,3,2121200,0,5380180,1021021,0,0,2121200,0,0,0,0,0,0,0,0,0,0,0,0,0,0,0,0,2180010,0,0,0,3200170,0,0,0,0,0,0,0,0,-1021021,0,0,0
21,345,573.229323665146,1,0,107575.243852241,107576.290919108,0,NumLock40,15,0,1,21,7,7192180,1201100,2200070,6481283,0,0,4081120,0,0,0,0,0,3111060,0,0,0,0,0,0,0,1201100,0,0,0,-2200070,0,0,0,0,0,0,1171030,0,1130171,2020071,0,0,0,2160011,0
21,346,571.965496841585,1,0,107577.879183727,107578.926242125,0,NumLock40,15,1,1,30,3,3181161,4170081,1141190,2181010,0,0,0,0,3181161,0,0,0,0,0,0,0,0,4170081,0,0,0,0,0,0,0,0,0,0,1141190,0,0,0,0,-2181010,0,0,0,0,0,0
21,347,453.264324329211,0,0,107580.596853743,107581.6439183,0,NumLock40,15,1,0,11,3,0,7530181,0,1141131,0,0,0,0,0,0,0,0,0,0,-2190011,0,0,0,3190090,2150080,0,0,0,0,0,0,0,0,0,0,0,0,1141131,0,0,0,0,0,0,0
21,348,447.311672978685,1,0,107583.208646791,107584.255717508,0,NumLock40,15,1,1,35,3,0,6162151,0,5230161,0,0,0,0,0,0,0,0,0,0,4091111,0,0,0,2071040,0,0,0,0,0,0,0,0,0,0,0,0,0,0,0,0,2180090,0,0,-3050071,0
21,349,579.411411745241,0,1,107585.855737295,107586.902802622,0,NumLock40,15,0,1,3,7,4101080,11382423,0,8362451,0,0,-4101080,0,0,0,0,0,0,0,4041111,0,0,0,0,2071011,4140190,1130111,0,0,0,0,0,0,0,0,0,4091150,0,3070180,0,1201121,0,0,0,0
21,350,1270.62691058381,0,0,107588.585177877,107589.632251673,0,NumLock40,15,1,0,31,7,10281380,4220372,0,9222321,0,4120170,0,2060110,0,4101100,0,0,0,0,0,0,3040201,0,0,1180171,0,0,0,0,0,0,0,0,0,0,0,0,4031150,0,-4090141,0,0,0,0,1101030
21,351,504.339404797065,1,0,107592.008746188,107593.055818445,0,NumLock40,15,1,1,5,3,1031011,0,2031120,2152240,0,0,0,0,-1031011,0,0,0,0,0,0,0,0,0,0,0,0,0,0,0,0,0,0,0,2031120,0,0,0,0,0,0,0,0,0,1131180,1021060
21,352,811.875862520537,1,0,107594.749971581,107595.797021124,0,NumLock40,15,0,1,7,3,5191200,1150190,0,4131061,0,0,1110050,0,0,0,-4081150,0,0,0,0,0,0,0,1150190,0,0,0,0,0,0,0,0,0,0,0,0,0,0,0,4131061,0,0,0,0,0
21,353,542.492115724599,0,0,107597.63233752,107598.679415936,0,NumLock40,15,0,0,2,7,4131120,8172092,5311301,7171251,0,-4131120,0,0,0,0,0,0,0,3061011,0,2041020,0,3070061,0,0,0,0,0,0,0,0,0,0,0,1171121,4140180,0,4150140,0,0,0,0,0,0,3021111
21,354,445.299097074894,0,0,107600.267666696,107601.314731253,0,NumLock40,15,1,0,10,3,0,4312112,0,3100161,0,0,0,0,0,0,0,0,0,-1201021,0,0,0,0,3111091,0,0,0,0,0,0,0,0,0,0,0,0,0,0,0,1010081,2090080,0,0,0,0
21,355,424.713694636012,0,0,107602.903006266,107603.950061199,0,NumLock40,15,1,0,23,3,2091130,0,3202111,4131151,2091130,0,0,0,0,0,0,0,0,0,0,0,0,0,0,0,0,0,0,0,0,0,-2121071,0,1081040,0,0,0,0,0,0,0,0,0,0,4131151
21,356,546.244330209447,1,1,107605.420668275,107606.467736297,0,NumLock40,15,1,0,36,7,1090140,3091100,2181201,13223493,0,1090140,0,0,0,0,0,0,0,3091100,0,0,0,0,0,0,0,0,0,0,0,0,0,0,2181201,0,0,0,4060071,3011141,0,3011050,2090201,0,0,-1051030
21,357,870.571245235624,1,0,107608.138340216,107609.185411318,0,NumLock40,15,0,1,12,7,2171121,8221141,9202451,1101151,0,0,2171121,0,0,0,0,0,0,4111070,0,-4110071,0,0,0,0,0,0,2010110,0,1070120,0,0,0,4041020,2081201,0,1101151,0,0,0,0,0,0,0,0
21,358,1123.6568998138,0,0,107611.256057428,107612.303098503,0,NumLock40,15,0,0,13,7,6250372,7252281,1181060,8272462,0,0,0,2200171,0,4050201,0,0,0,3131200,0,0,-4121081,0,0,0,0,0,0,0,1181060,0,0,0,0,0,0,2190131,0,3021151,0,0,3061180,0,0,0
21,359,567.446825065417,0,0,107614.55018916,107615.597254488,0,NumLock40,15,0,0,19,3,5230311,3030061,2071150,0,4130171,0,0,0,0,0,1100140,0,0,0,0,0,0,0,3030061,0,0,0,-2071150,0,0,0,0,0,0,0,0,0,0,0,0,0,0,0,0,0
21,360,513.750930374954,1,0,107617.314987252,107618.361985981,0,NumLock40,15,1,1,24,7,1051141,4171091,6271353,8440230,0,0,0,0,0,1051141,0,0,0,4171091,0,0,0,0,0,0,0,0,0,0,3110191,0,1100051,-2061111,0,0,0,3190130,0,0,0,3110050,0,2140050,0,0
21,361,454.72448124201,0,0,107623.326753199,107624.373817756,0,NumLock40,16,1,0,17,7,3220282,6262443,6330322,0,0,1020161,0,0,0,2200121,0,0,0,0,0,0,0,2020201,0,2131131,-2111111,0,0,0,0,3130091,0,0,2190131,0,1010100,0,0,0,0,0,0,0,0,0
21,362,436.78607037873,1,0,107625.832668894,107626.879769638,0,NumLock40,16,0,1,28,3,1170191,0,4161121,6271182,0,0,0,1170191,0,0,0,0,0,0,0,0,0,0,0,0,0,0,0,0,0,4161121,0,0,0,0,0,-2090171,0,0,0,0,4181011,0,0,0
21,363,1057.67921061488,1,0,107628.479767867,107629.52686861,0,NumLock40,16,0,1,12,7,3150170,13352531,6281111,4160171,3150170,0,0,0,0,0,0,0,0,0,0,-4021100,0,3070111,0,0,2091150,4170170,3130061,0,0,3151050,0,0,0,0,0,0,0,0,0,4160171,0,0,0,0
21,364,897.967376979068,0,0,107631.738618312,107632.785709431,0,NumLock40,16,1,0,22,7,2040190,8523392,4181322,4151321,0,0,0,0,2040190,0,0,0,0,0,0,3131171,2191120,0,0,0,3201101,0,0,0,0,-1050141,0,3131181,0,0,0,0,0,0,0,0,0,2070191,2081130,0
21,365,500.847808871185,0,0,107634.832785537,107635.879837006,0,NumLock40,16,1,0,35,3,0,6162151,0,5230161,0,0,0,0,0,0,0,0,0,0,4091111,0,0,0,2071040,0,0,0,0,0,0,0,0,0,0,0,0,0,0,0,0,2180090,0,0,-3050071,0
21,366,412.561247023405,1,0,107637.52692135,107638.573991297,0,NumLock40,16,1,1,10,3,0,4312112,0,3100161,0,0,0,0,0,0,0,0,0,-1201021,0,0,0,0,3111091,0,0,0,0,0,0,0,0,0,0,0,0,0,0,0,1010081,2090080,0,0,0,0
21,367,553.560513289995,1,0,107640.032836275,107641.079904682,0,NumLock40,16,1,1,5,3,1031011,0,2031120,2152240,0,0,0,0,-1031011,0,0,0,0,0,0,0,0,0,0,0,0,0,0,0,0,0,0,0,2031120,0,0,0,0,0,0,0,0,0,1131180,1021060
21,368,907.643755708705,0,0,107642.785807596,107643.832874078,0,NumLock40,16,1,0,36,7,1090140,3091100,2181201,13223493,0,1090140,0,0,0,0,0,0,0,3091100,0,0,0,0,0,0,0,0,0,0,0,0,0,0,2181201,0,0,0,4060071,3011141,0,3011050,2090201,0,0,-1051030
21,369,389.360419809236,0,0,107645.927019361,107646.974086998,0,NumLock40,16,1,0,23,3,2091130,0,3202111,4131151,2091130,0,0,0,0,0,0,0,0,0,0,0,0,0,0,0,0,0,0,0,0,0,-2121071,0,1081040,0,0,0,0,0,0,0,0,0,0,4131151
21,370,521.991019748384,1,0,107648.409405472,107649.456471954,0,NumLock40,16,1,1,34,7,4320191,1070191,6261362,4282261,1170081,0,0,0,0,0,1080070,2070040,0,0,0,1070191,0,0,0,0,0,0,0,0,0,4061201,2200161,0,0,0,0,0,0,0,3171200,0,0,-1111061,0,0
21,371,686.775098991347,1,0,107651.056530622,107652.103554374,0,NumLock40,16,1,1,30,3,3181161,4170081,1141190,2181010,0,0,0,0,3181161,0,0,0,0,0,0,0,0,4170081,0,0,0,0,0,0,0,0,0,0,1141190,0,0,0,0,-2181010,0,0,0,0,0,0
21,372,431.867039224016,0,1,107653.856527235,107654.903617584,0,NumLock40,16,0,1,33,3,0,2090190,2181101,5100330,0,0,0,0,0,0,0,0,0,0,0,0,0,0,0,2090190,0,0,0,0,0,2181101,0,0,0,0,0,0,3040160,0,0,0,-2060170,0,0,0
21,373,1060.10369474825,1,0,107656.421261115,107657.468317203,0,NumLock40,16,0,1,18,7,10342422,6230121,1070131,1141200,2090170,0,0,3121030,3100061,2031161,0,0,0,0,0,0,0,0,0,4040111,0,-2190010,0,1070131,0,0,0,0,0,0,0,0,0,1141200,0,0,0,0,0,0
21,374,1226.72865730419,0,0,107659.609538207,107660.65659391,0,NumLock40,16,0,0,7,7,4141090,3120380,6111151,8351341,0,0,0,0,0,0,-4141090,0,0,1110200,0,2010180,0,0,0,0,0,0,0,0,0,2070101,0,0,4041050,0,0,0,0,0,0,0,4150060,3121091,0,1080190
21,375,906.874218751909,0,0,107662.974273319,107664.021392156,0,NumLock40,16,0,0,3,3,1130191,0,2061120,5111262,0,0,-1130191,0,0,0,0,0,0,0,0,0,0,0,0,0,0,0,0,0,0,0,0,0,2061120,0,0,0,0,0,0,0,0,3071111,2040151,0
21,376,409.504272029153,1,0,107665.950777997,107666.997840629,0,NumLock40,16,0,1,9,3,4210051,0,4101120,3101071,0,0,0,1150030,0,0,0,0,-3060021,0,0,0,0,0,0,0,0,0,0,0,0,0,4101120,0,0,0,0,0,3101071,0,0,0,0,0,0,0
21,377,1043.1419298402,1,0,107668.491985758,107669.539047235,0,NumLock40,16,0,1,2,3,4110140,8201240,0,1071080,0,-4110140,0,0,0,0,0,0,0,0,0,0,4180150,0,4021090,0,0,0,0,0,0,0,0,0,0,0,0,1071080,0,0,0,0,0,0,0,0
21,378,843.280207802309,0,0,107671.703787429,107672.750849292,0,NumLock40,16,0,0,19,3,0,7330251,3200090,4041051,0,0,0,0,0,0,0,0,0,0,0,0,3190181,0,0,0,4140070,0,-3200090,0,0,0,0,0,0,0,0,0,0,0,0,0,0,0,0,4041051
21,379,531.944185393513,0,0,107674.680299036,107675.727364363,0,NumLock40,16,0,0,21,7,6542771,0,2110090,3361251,2191200,1070160,1101191,1080060,1100160,0,0,0,0,0,0,0,0,0,0,0,0,0,0,0,-2110090,0,0,0,0,0,0,0,1181131,0,2180120,0,0,0,0,0
21,380,702.824506428442,1,0,107677.280453944,107678.327389925,0,NumLock40,16,1,1,11,3,0,7530181,0,1141131,0,0,0,0,0,0,0,0,0,0,-2190011,0,0,0,3190090,2150080,0,0,0,0,0,0,0,0,0,0,0,0,1141131,0,0,0,0,0,0,0
21,381,852.153557963902,0,0,107680.056825118,107681.103888135,0,NumLock40,16,0,0,13,7,6212161,4290160,1101170,9331390,0,0,0,4131080,2081081,0,0,0,0,0,0,0,-2100040,0,0,0,2190120,0,0,0,0,1101170,0,0,0,0,0,0,0,0,0,0,4170150,3031150,0,2130090
21,382,719.330477557378,0,0,107683.009797132,107684.056863614,0,NumLock40,16,1,0,24,7,1051141,4171091,6271353,8440230,0,0,0,0,0,1051141,0,0,0,4171091,0,0,0,0,0,0,0,0,0,0,3110191,0,1100051,-2061111,0,0,0,3190130,0,0,0,3110050,0,2140050,0,0
21,383,888.989317449159,1,0,107685.856889098,107686.903955195,0,NumLock40,16,0,1,25,7,3402251,2080100,9412453,2130200,0,0,0,0,1201061,0,2201190,0,0,2080100,0,0,0,0,0,0,0,0,2191200,2081021,0,0,0,3100081,-2040151,0,0,0,0,0,0,0,2130200,0,0,0
21,384,881.068745671655,0,0,107688.962814186,107690.009876434,0,NumLock40,16,1,0,31,7,10281380,4220372,0,9222321,0,4120170,0,2060110,0,4101100,0,0,0,0,0,0,3040201,0,0,1180171,0,0,0,0,0,0,0,0,0,0,0,0,4031150,0,-4090141,0,0,0,0,1101030
21,385,1362.56598203909,1,0,107705.798287261,107706.845359517,0,NumLock40,17,0,1,2,7,11433372,6221200,0,6161162,1190091,-4091200,3031021,0,0,0,3121060,0,0,0,0,2120050,0,0,4101150,0,0,0,0,0,0,0,0,0,0,0,0,2070151,0,4091011,0,0,0,0,0,0
21,386,604.756086540874,1,0,107709.315983531,107710.363070801,0,NumLock40,17,1,1,11,3,0,7530181,0,1141131,0,0,0,0,0,0,0,0,0,0,-2190011,0,0,0,3190090,2150080,0,0,0,0,0,0,0,0,0,0,0,0,1141131,0,0,0,0,0,0,0
21,387,617.132196479361,0,1,107712.139548224,107713.186610856,0,NumLock40,17,1,1,31,7,10281380,4220372,0,9222321,0,4120170,0,2060110,0,4101100,0,0,0,0,0,0,3040201,0,0,1180171,0,0,0,0,0,0,0,0,0,0,0,0,4031150,0,-4090141,0,0,0,0,1101030
21,388,645.934205662343,0,0,107714.97490658,107716.021996929,0,NumLock40,17,0,0,25,3,0,2132221,2201191,4131181,0,0,0,0,0,0,0,0,0,0,0,1081150,0,0,0,0,1051071,0,0,0,0,0,0,0,-2201191,0,0,0,0,0,0,4131181,0,0,0,0
21,389,1033.58219428628,1,0,107717.76314379,107718.810207577,0,NumLock40,17,0,1,18,7,0,8322183,5260260,8401581,0,0,0,0,0,0,0,0,0,1051061,0,0,0,0,4150101,0,0,-3121021,0,0,0,3090090,0,0,0,0,2170170,1071190,3140201,0,0,4190190,0,0,0,0
21,390,844.649128994206,0,0,107721.022006169,107722.069063796,0,NumLock40,17,1,0,36,7,1090140,3091100,2181201,13223493,0,1090140,0,0,0,0,0,0,0,3091100,0,0,0,0,0,0,0,0,0,0,0,0,0,0,2181201,0,0,0,4060071,3011141,0,3011050,2090201,0,0,-1051030
21,391,664.053933141986,0,0,107724.045560775,107725.092627642,0,NumLock40,17,0,0,13,3,3100121,6260320,0,0,0,3100121,0,0,0,0,0,0,0,4030030,0,0,-1100180,0,0,1130110,0,0,0,0,0,0,0,0,0,0,0,0,0,0,0,0,0,0,0,0
21,392,516.566534832236,0,0,107726.869130087,107727.916191179,0,NumLock40,17,1,0,22,7,2040190,8523392,4181322,4151321,0,0,0,0,2040190,0,0,0,0,0,0,3131171,2191120,0,0,0,3201101,0,0,0,0,-1050141,0,3131181,0,0,0,0,0,0,0,0,0,2070191,2081130,0
21,393,1260.72956426651,1,0,107729.633862735,107730.680934992,0,NumLock40,17,0,1,3,7,7241362,5270101,3151050,7371201,1040161,0,-2111050,0,0,4090151,0,0,0,0,0,3120010,0,0,0,0,0,2150091,0,0,0,0,0,0,0,3151050,0,0,4170160,0,0,0,0,3201041,0,0
21,394,623.440936717088,1,0,107733.069203152,107734.11626078,0,NumLock40,17,1,1,5,3,1031011,0,2031120,2152240,0,0,0,0,-1031011,0,0,0,0,0,0,0,0,0,0,0,0,0,0,0,0,0,0,0,2031120,0,0,0,0,0,0,0,0,0,1131180,1021060
21,395,455.549067613902,1,0,107735.939825857,107736.986887335,0,NumLock40,17,1,1,30,3,3181161,4170081,1141190,2181010,0,0,0,0,3181161,0,0,0,0,0,0,0,0,4170081,0,0,0,0,0,0,0,0,0,0,1141190,0,0,0,0,-2181010,0,0,0,0,0,0
21,396,499.077758388012,0,0,107738.457497875,107739.504554348,0,NumLock40,17,1,0,34,7,4320191,1070191,6261362,4282261,1170081,0,0,0,0,0,1080070,2070040,0,0,0,1070191,0,0,0,0,0,0,0,0,0,4061201,2200161,0,0,0,0,0,0,0,3171200,0,0,-1111061,0,0
21,397,1006.58988657233,0,0,107741.092823972,107742.13988391,0,NumLock40,17,1,0,23,3,2091130,0,3202111,4131151,2091130,0,0,0,0,0,0,0,0,0,0,0,0,0,0,0,0,0,0,0,0,0,-2121071,0,1081040,0,0,0,0,0,0,0,0,0,0,4131151
21,398,1350.54942563875,1,0,107744.245797064,107745.292866626,0,NumLock40,17,0,1,9,7,9202222,3151060,1051160,7323431,0,2060041,0,0,4031061,0,0,0,-3111120,0,0,0,0,0,0,3151060,0,0,0,0,1051160,0,0,0,0,0,0,0,0,0,0,2151140,2101131,0,0,3071160
21,399,526.102787771379,0,0,107747.66936268,107748.716425697,0,NumLock40,17,0,0,28,3,0,5141321,1131060,3120101,0,0,0,0,0,0,0,0,0,0,0,0,0,0,0,4130200,0,1011121,0,0,0,0,0,0,1131060,0,0,-3120101,0,0,0,0,0,0,0,0
21,400,433.259058045223,0,0,107750.38704232,107751.434112652,0,NumLock40,17,0,0,21,3,0,3191312,5291130,0,0,0,0,0,0,0,0,0,0,0,0,0,0,0,1090151,0,0,2101161,0,0,-4111100,0,1180030,0,0,0,0,0,0,0,0,0,0,0,0,0
21,401,722.57184884802,1,0,107753.057663947,107754.10472735,0,NumLock40,17,0,1,12,7,4190111,16702524,2121111,4080151,0,0,0,0,0,0,4190111,0,0,2150171,4180091,-4121090,0,2091071,4160101,0,0,0,0,0,0,0,2121111,0,0,0,0,0,0,0,0,0,4080151,0,0,0
21,402,590.171840536641,1,0,107755.987108302,107757.034171705,0,NumLock40,17,1,1,17,7,3220282,6262443,6330322,0,0,1020161,0,0,0,2200121,0,0,0,0,0,0,0,2020201,0,2131131,-2111111,0,0,0,0,3130091,0,0,2190131,0,1010100,0,0,0,0,0,0,0,0,0
21,403,1260.02508572128,1,0,107758.728319451,107759.775381699,0,NumLock40,17,0,1,19,7,3141090,4220292,8201503,6271151,0,0,0,0,0,0,0,3141090,0,1090151,0,0,0,0,0,0,0,3130141,-4070121,0,2060181,2071201,0,0,0,0,0,0,4081130,0,0,2190021,0,0,0,0
21,404,460.087372382986,0,0,107762.093063803,107763.14012374,0,NumLock40,17,1,0,35,3,0,6162151,0,5230161,0,0,0,0,0,0,0,0,0,0,4091111,0,0,0,2071040,0,0,0,0,0,0,0,0,0,0,0,0,0,0,0,0,2180090,0,0,-3050071,0
21,405,699.978490039939,1,0,107764.728397598,107765.775454456,0,NumLock40,17,1,1,10,3,0,4312112,0,3100161,0,0,0,0,0,0,0,0,0,-1201021,0,0,0,0,3111091,0,0,0,0,0,0,0,0,0,0,0,0,0,0,0,1010081,2090080,0,0,0,0
21,406,490.47465082549,0,0,107767.657836949,107768.704899581,0,NumLock40,17,1,0,24,7,1051141,4171091,6271353,8440230,0,0,0,0,0,1051141,0,0,0,4171091,0,0,0,0,0,0,0,0,0,0,3110191,0,1100051,-2061111,0,0,0,3190130,0,0,0,3110050,0,2140050,0,0
21,407,646.153248453629,0,0,107770.199042785,107771.246098103,0,NumLock40,17,0,0,33,3,0,0,6331201,6231162,0,0,0,0,0,0,0,0,0,0,0,0,0,0,0,0,0,0,0,0,0,0,4160021,2171180,0,0,0,0,0,0,0,0,-2150031,4081131,0,0
21,408,502.627483394463,1,1,107773.081424123,107774.128489065,0,NumLock40,17,0,0,7,3,3150141,1190040,0,2121312,0,0,0,0,0,0,-3150141,0,0,0,1190040,0,0,0,0,0,0,0,0,0,0,0,0,0,0,0,0,1031191,0,0,1090121,0,0,0,0,0
21,409,589.913531715865,0,0,107788.458066848,107789.505167976,0,NumLock40,18,0,0,12,3,7320251,1121021,3031111,0,0,0,4200060,0,3120191,0,0,0,0,0,0,-1121021,0,0,0,0,0,0,0,0,0,3031111,0,0,0,0,0,0,0,0,0,0,0,0,0,0
21,410,924.554705765331,1,0,107791.246338704,107792.293407496,0,NumLock40,18,1,1,30,3,3181161,4170081,1141190,2181010,0,0,0,0,3181161,0,0,0,0,0,0,0,0,4170081,0,0,0,0,0,0,0,0,0,0,1141190,0,0,0,0,-2181010,0,0,0,0,0,0
21,411,646.863501431653,0,0,107794.258136987,107795.305204624,0,NumLock40,18,0,0,28,7,10273441,5221260,2070100,3201281,4021090,0,0,0,4131170,0,0,2121181,0,0,1081110,0,0,0,4140150,0,0,0,0,0,0,0,0,0,0,0,2070100,-1121101,0,0,0,0,0,2080180,0,0
21,412,696.675909945043,0,0,107797.058211747,107798.105232419,0,NumLock40,18,1,0,34,7,4320191,1070191,6261362,4282261,1170081,0,0,0,0,0,1080070,2070040,0,0,0,1070191,0,0,0,0,0,0,0,0,0,4061201,2200161,0,0,0,0,0,0,0,3171200,0,0,-1111061,0,0
21,413,744.253235141514,0,1,107799.940557283,107800.987620686,0,NumLock40,18,0,1,13,7,4150291,5092191,2100131,11433323,0,0,0,0,0,3090110,0,0,1060181,0,0,0,-3021051,0,0,0,0,2071140,0,0,0,0,0,0,2100131,0,0,4101181,0,4181131,0,0,0,0,3151011,0
21,414,445.026929679443,1,0,107802.834704183,107803.8817672,0,NumLock40,18,1,1,17,7,3220282,6262443,6330322,0,0,1020161,0,0,0,2200121,0,0,0,0,0,0,0,2020201,0,2131131,-2111111,0,0,0,0,3130091,0,0,2190131,0,1010100,0,0,0,0,0,0,0,0,0
21,415,366.190004526288,1,0,107805.446509165,107806.493569487,0,NumLock40,18,0,1,18,3,4150101,2070121,0,6222071,0,0,0,0,0,0,0,4150101,0,0,0,0,0,0,0,0,0,-2070121,0,0,0,0,0,0,0,0,0,0,3181050,0,0,0,0,0,3041021,0
21,416,449.405475650565,0,0,107808.011243815,107809.058306832,0,NumLock40,18,1,0,23,3,2091130,0,3202111,4131151,2091130,0,0,0,0,0,0,0,0,0,0,0,0,0,0,0,0,0,0,0,0,0,-2121071,0,1081040,0,0,0,0,0,0,0,0,0,0,4131151
21,417,637.332252998021,0,1,107810.658383209,107811.705400031,0,NumLock40,18,1,1,36,7,1090140,3091100,2181201,13223493,0,1090140,0,0,0,0,0,0,0,3091100,0,0,0,0,0,0,0,0,0,0,0,0,0,0,2181201,0,0,0,4060071,3011141,0,3011050,2090201,0,0,-1051030
21,418,1007.7316807874,0,0,107813.423061193,107814.470134219,0,NumLock40,18,0,0,19,7,0,8272602,8192271,2130091,0,0,0,0,0,0,0,0,0,3140161,2011200,0,1040200,0,0,2081041,0,0,-2020090,4061030,0,0,0,0,0,0,2111151,0,0,0,0,2130091,0,0,0,0
21,419,467.550610555918,0,0,107816.576044678,107817.623113085,0,NumLock40,18,0,0,21,3,2130111,0,1041051,4240201,0,0,0,0,0,2130111,0,0,0,0,0,0,0,0,0,0,0,0,0,0,-1041051,0,0,0,0,0,0,0,0,0,2110021,0,2130180,0,0,0
21,420,2093.59298858908,1,1,107819.223131332,107820.270202819,0,NumLock40,18,1,0,31,7,10281380,4220372,0,9222321,0,4120170,0,2060110,0,4101100,0,0,0,0,0,0,3040201,0,0,1180171,0,0,0,0,0,0,0,0,0,0,0,0,4031150,0,-4090141,0,0,0,0,1101030
21,421,1848.08875518502,1,0,107823.399651332,107824.446716274,0,NumLock40,18,0,1,7,7,2030081,5232202,5311150,8341333,0,0,0,0,0,0,-2030081,0,0,0,0,0,0,0,0,0,2131041,3101161,0,0,0,1131140,0,0,4180010,0,0,0,3191181,2090071,3060081,0,0,0,0,0
21,422,643.599802409881,0,0,107827.340913218,107828.387939279,0,NumLock40,18,1,0,5,3,1031011,0,2031120,2152240,0,0,0,0,-1031011,0,0,0,0,0,0,0,0,0,0,0,0,0,0,0,0,0,0,0,2031120,0,0,0,0,0,0,0,0,0,1131180,1021060
21,423,463.195932155941,0,0,107830.223261834,107831.270324467,0,NumLock40,18,0,0,9,3,5231142,0,5201171,0,0,3030081,0,0,0,0,0,0,-2201061,0,0,0,0,0,0,0,0,0,0,0,0,0,0,0,3030030,0,2171141,0,0,0,0,0,0,0,0,0
21,424,487.157442214084,0,0,107832.870360037,107833.917410736,0,NumLock40,18,1,0,11,3,0,7530181,0,1141131,0,0,0,0,0,0,0,0,0,0,-2190011,0,0,0,3190090,2150080,0,0,0,0,0,0,0,0,0,0,0,0,1141131,0,0,0,0,0,0,0
21,425,579.226245521568,1,0,107835.529203014,107836.576264491,0,NumLock40,18,1,1,22,7,2040190,8523392,4181322,4151321,0,0,0,0,2040190,0,0,0,0,0,0,3131171,2191120,0,0,0,3201101,0,0,0,0,-1050141,0,3131181,0,0,0,0,0,0,0,0,0,2070191,2081130,0
21,426,1039.03670614818,0,0,107838.211592513,107839.258659764,0,NumLock40,18,0,0,33,7,0,10381292,7202301,5181342,0,0,0,0,0,0,0,0,0,4131191,0,0,0,2120061,0,4130040,0,0,0,0,0,1091050,0,2041070,0,0,4070181,0,0,0,0,0,-1110161,0,0,4071181
21,427,1207.17764497385,1,0,107841.470449502,107842.517508285,0,NumLock40,18,0,1,3,3,3200051,5281200,0,2051171,0,0,-3200051,0,0,0,0,0,0,0,0,0,0,0,0,0,4171070,1110130,0,0,0,0,0,0,0,0,0,0,0,0,2051171,0,0,0,0,0
21,428,833.43252146733,1,0,107844.741074363,107845.788141615,0,NumLock40,18,1,1,10,3,0,4312112,0,3100161,0,0,0,0,0,0,0,0,0,-1201021,0,0,0,0,3111091,0,0,0,0,0,0,0,0,0,0,0,0,0,0,0,1010081,2090080,0,0,0,0
21,429,1130.8006203617,0,0,107847.764697492,107848.811703535,0,NumLock40,18,0,0,2,3,2140031,8161181,0,1011130,0,-2140031,0,0,0,0,0,0,0,0,0,0,0,0,4091101,0,4070080,0,0,0,0,0,0,0,0,0,0,1011130,0,0,0,0,0,0,0,0
21,430,609.320953619317,0,0,107850.988206211,107852.035273078,0,NumLock40,18,0,0,25,7,3020090,10381713,7181190,3010131,0,0,0,0,0,0,0,0,3020090,2051171,4120191,0,0,2180160,0,2030191,0,0,0,0,0,3040150,0,0,-4141040,0,0,0,0,0,0,0,0,0,0,3010131
21,431,1371.72420331626,1,0,107853.764712121,107854.811776293,0,NumLock40,18,1,1,35,3,0,6162151,0,5230161,0,0,0,0,0,0,0,0,0,0,4091111,0,0,0,2071040,0,0,0,0,0,0,0,0,0,0,0,0,0,0,0,0,2180090,0,0,-3050071,0
21,432,1343.98776605667,1,0,107857.329491811,107858.376520952,0,NumLock40,18,1,1,24,7,1051141,4171091,6271353,8440230,0,0,0,0,0,1051141,0,0,0,4171091,0,0,0,0,0,0,0,0,0,0,3110191,0,1100051,-2061111,0,0,0,3190130,0,0,0,3110050,0,2140050,0,0
21,433,725.896371703129,0,0,107872.741385796,107873.788464212,0,NumLock40,19,0,0,33,3,4191200,0,0,3201141,0,0,0,0,0,0,1060090,3131110,0,0,0,0,0,0,0,0,0,0,0,0,0,0,0,0,0,0,0,1020100,0,0,0,0,-2181041,0,0,0
21,434,1169.1862326843,1,0,107875.67084709,107876.717913572,0,NumLock40,19,1,1,31,7,10281380,4220372,0,9222321,0,4120170,0,2060110,0,4101100,0,0,0,0,0,0,3040201,0,0,1180171,0,0,0,0,0,0,0,0,0,0,0,0,4031150,0,-4090141,0,0,0,0,1101030
21,435,629.898271872662,0,1,107879.012054158,107880.05911602,0,NumLock40,19,1,1,36,7,1090140,3091100,2181201,13223493,0,1090140,0,0,0,0,0,0,0,3091100,0,0,0,0,0,0,0,0,0,0,0,0,0,0,2181201,0,0,0,4060071,3011141,0,3011050,2090201,0,0,-1051030
21,436,562.090863226331,0,0,107881.870913996,107882.917982403,0,NumLock40,19,0,0,18,7,0,10251201,10561303,2100011,0,0,0,0,0,0,0,0,0,4030110,0,0,0,0,2200081,0,0,-4021010,2160041,0,4090130,3151031,0,0,1160101,0,0,2100011,0,0,0,0,0,0,0,0
21,437,581.782771259896,1,0,107884.600361892,107885.647424525,0,NumLock40,19,0,1,13,7,3172211,6321302,7021231,1181181,0,0,0,0,2081031,0,0,0,1091180,0,1090061,0,-3031191,0,0,0,0,2200050,0,0,4010191,0,3011040,0,0,0,0,0,0,0,0,0,0,1181181,0,0
21,438,831.787583287223,1,0,107887.353333984,107888.400395846,0,NumLock40,19,1,1,30,3,3181161,4170081,1141190,2181010,0,0,0,0,3181161,0,0,0,0,0,0,0,0,4170081,0,0,0,0,0,0,0,0,0,0,1141190,0,0,0,0,-2181010,0,0,0,0,0,0
21,439,541.833832496195,1,0,107890.31806925,107891.3651519,0,NumLock40,19,0,1,19,7,5261211,0,13341423,5341211,0,3141041,0,0,0,2120170,0,0,0,0,0,0,0,0,0,0,0,0,-2161131,4130161,0,4040091,0,0,0,0,3010040,4171180,0,0,0,0,0,1170031,0,0
21,440,900.376847639563,1,0,107893.000458749,107894.047521381,0,NumLock40,19,0,1,2,7,6441250,1140160,3021120,5512340,2150120,-1181050,0,0,0,0,3110080,0,0,0,0,0,0,0,0,0,0,1140160,0,0,3021120,0,0,0,0,0,0,0,3110090,1201080,0,0,0,1201170,0,0
21,441,508.049658528762,0,0,107896.082845399,107897.129906491,0,NumLock40,19,1,0,11,3,0,7530181,0,1141131,0,0,0,0,0,0,0,0,0,0,-2190011,0,0,0,3190090,2150080,0,0,0,0,0,0,0,0,0,0,0,0,1141131,0,0,0,0,0,0,0
21,442,577.82537258754,0,0,107898.718178425,107899.765232588,0,NumLock40,19,0,0,21,7,4473380,2121351,7292081,1051180,0,0,0,2131150,0,1161090,0,0,1181140,0,1030160,0,0,1091191,0,0,0,0,0,0,-3121011,0,0,4171070,0,0,0,0,0,1051180,0,0,0,0,0,0
21,443,668.049442960182,0,1,107901.541733878,107902.588791891,0,NumLock40,19,0,1,25,7,7220190,0,7292321,6422231,0,4120100,0,0,0,0,0,0,3100090,0,0,0,0,0,0,0,0,0,0,0,0,0,0,0,-3091160,1021010,3180151,3171040,0,0,0,1130030,0,2121161,0,0
21,444,492.547665591701,0,0,107904.412358893,107905.459416136,0,NumLock40,19,1,0,23,3,2091130,0,3202111,4131151,2091130,0,0,0,0,0,0,0,0,0,0,0,0,0,0,0,0,0,0,0,0,0,-2121071,0,1081040,0,0,0,0,0,0,0,0,0,0,4131151
21,445,616.410779650323,0,0,107907.012383684,107908.059445547,0,NumLock40,19,0,0,9,3,9222170,0,0,2171030,0,0,0,4150070,4051020,0,0,0,-1021080,0,0,0,0,0,0,0,0,0,0,0,0,0,0,0,0,0,0,0,2171030,0,0,0,0,0,0,0
21,446,407.450505299494,1,0,107909.859466412,107910.906534433,0,NumLock40,19,0,1,3,3,2081040,3100071,5182261,0,0,0,-2081040,0,0,0,0,0,0,3100071,0,0,0,0,0,0,0,0,0,0,0,0,4141140,0,0,0,1041121,0,0,0,0,0,0,0,0,0
21,447,357.972242883989,1,0,107912.447739115,107913.494798283,0,NumLock40,19,1,1,10,3,0,4312112,0,3100161,0,0,0,0,0,0,0,0,0,-1201021,0,0,0,0,3111091,0,0,0,0,0,0,0,0,0,0,0,0,0,0,0,1010081,2090080,0,0,0,0
21,448,334.635524472105,1,0,107914.988949956,107916.036037611,0,NumLock40,19,1,1,5,3,1031011,0,2031120,2152240,0,0,0,0,-1031011,0,0,0,0,0,0,0,0,0,0,0,0,0,0,0,0,0,0,0,2031120,0,0,0,0,0,0,0,0,0,1131180,1021060
21,449,831.242478554486,0,0,107917.518383686,107918.565447473,0,NumLock40,19,0,0,7,3,4261180,0,3020071,1171050,0,0,0,2151060,0,0,-2110120,0,0,0,0,0,0,0,0,0,0,0,0,0,0,0,0,0,0,3020071,0,1171050,0,0,0,0,0,0,0,0
21,450,1182.37653505639,1,1,107920.518422952,107921.565481735,0,NumLock40,19,1,0,34,7,4320191,1070191,6261362,4282261,1170081,0,0,0,0,0,1080070,2070040,0,0,0,1070191,0,0,0,0,0,0,0,0,0,4061201,2200161,0,0,0,0,0,0,0,3171200,0,0,-1111061,0,0
