sub_id,Trial,RT,Resp,Error,Fix_onset,Disp_onset,q1,q2,block,repeat,tid,tloc,d_setsize,quad1,quad2,quad3,quad4,loc1,loc2,loc3,loc4,loc5,loc6,loc7,loc8,loc9,loc10,loc11,loc12,loc13,loc14,loc15,loc16,loc17,loc18,loc19,loc20,loc21,loc22,loc23,loc24,loc25,loc26,loc27,loc28,loc29,loc30,loc31,loc32,loc33,loc34,loc35,loc36
3,1,1371.95751193212,1,0,512024.735207948,512025.782281156,0,4,1,0,1,6,7,3230072,6250190,5351161,4130371,0,0,2050031,0,0,-1180041,0,0,0,4110160,0,0,0,0,2140030,0,0,0,0,0,0,2200041,0,3151120,0,0,0,0,0,0,3010180,1120191,0,0,0,0
3,2,711.50208596373,1,0,512028.217615934,512029.264698766,0,4,1,1,1,34,3,4080030,0,3191190,6121202,0,0,0,0,4080030,0,0,0,0,0,0,0,0,0,0,0,0,0,3191190,0,0,0,0,0,0,0,0,0,0,0,0,3021101,0,-3100101,0,0
3,3,690.333386184648,0,0,512031.158866046,512032.205921545,0,4,1,0,0,4,3,5201381,2161120,1140021,0,0,0,2020190,-3181191,0,0,0,0,0,0,0,0,2161120,0,0,0,0,0,0,1140021,0,0,0,0,0,0,0,0,0,0,0,0,0,0,0,0
3,4,1157.76171389734,0,0,512033.935404202,512034.98242159,0,4,1,0,0,35,7,5261351,6381141,1191101,7291211,0,1041061,2130140,0,0,0,0,0,2090150,0,3201010,0,0,0,0,0,0,3180131,0,0,0,0,0,1191101,0,0,0,3170180,0,0,0,0,0,0,-4121031,0
3,5,933.932615676895,1,0,512037.194234855,512038.241299979,0,4,1,1,1,12,3,2181070,2161031,0,2171202,2181070,0,0,0,0,0,0,0,0,0,0,-2161031,0,0,0,0,0,0,0,0,0,0,0,0,0,0,0,0,0,1040181,0,0,0,1131021,0,0
3,6,761.245008034166,1,0,512040.300160351,512041.34722586,0,4,1,0,1,13,3,0,7191222,3200201,0,0,0,0,0,0,0,0,0,0,0,0,0,-3151041,4040181,0,0,0,0,0,1130061,0,0,0,0,0,2070140,0,0,0,0,0,0,0,0,0,0
3,7,1062.97318148427,0,0,512043.300195768,512044.347264741,0,4,1,1,0,36,3,0,8233372,0,4171041,0,0,0,0,0,0,0,0,0,0,0,0,1091081,3021101,0,4121190,0,0,0,0,0,0,0,0,0,0,0,0,0,0,0,0,0,0,0,-4171041
3,8,643.926933582406,0,0,512046.500238807,512047.547338192,0,4,1,0,0,29,7,0,1140091,8382553,9492121,0,0,0,0,0,0,0,0,0,0,0,0,0,0,0,0,0,1140091,1091161,1140160,0,0,0,3021091,0,0,3130141,0,-4110020,0,0,2191040,3191061,0,0,0
3,9,707.302145718131,1,0,512049.276765414,512050.323839391,0,4,1,0,1,10,3,3172320,2130201,4100131,0,0,0,2021120,0,0,0,1151200,0,0,-2130201,0,0,0,0,0,0,0,0,0,0,0,4100131,0,0,0,0,0,0,0,0,0,0,0,0,0,0
3,10,577.787691145204,0,0,512052.194459288,512053.241529031,0,4,1,0,0,23,7,3041020,8352441,1060121,6381262,0,0,0,0,3041020,0,0,0,0,2170180,0,0,0,4051200,0,0,0,2131061,0,0,0,0,-1060121,0,0,0,0,0,0,3130011,0,0,0,0,2110071,1141180
3,11,1483.3587136236,0,0,512054.876854879,512055.923923082,0,4,1,1,0,27,7,6190232,2140171,8321121,5301201,0,3130181,0,0,0,0,3060051,0,0,0,0,2140171,0,0,0,0,0,0,0,0,0,3041021,2150030,0,0,0,-3130070,0,3140100,0,0,0,0,0,2161101,0
3,12,820.980400254484,1,0,512058.524017552,512059.571036865,0,4,1,1,1,2,7,8262392,4523342,2170130,0,1081030,-2030140,0,0,0,2140191,3011031,0,0,1141060,0,2181121,1201161,0,0,0,0,0,0,0,0,2170130,0,0,0,0,0,0,0,0,0,0,0,0,0,0
3,13,1204.54042515485,1,0,512061.453414285,512062.500490572,0,4,1,1,1,25,7,6381512,9202432,2031181,0,1150151,0,0,0,1030130,0,2061031,2140200,0,0,0,4011050,4130191,0,0,0,1061191,0,0,0,0,0,0,0,-2031181,0,0,0,0,0,0,0,0,0,0,0
3,14,544.909588759765,0,0,512064.818217785,512065.865252881,0,4,1,1,0,17,3,3212050,2160070,0,3201121,0,2111030,0,0,0,0,0,1101020,0,0,0,0,0,0,0,0,-2160070,0,0,0,0,0,0,0,0,0,0,0,3201121,0,0,0,0,0,0,0
3,15,550.885360746179,1,0,512067.571157743,512068.618235955,0,4,1,0,1,9,3,7280322,4180200,0,0,0,3050030,0,0,1150141,0,0,0,-3080151,0,0,0,0,4180200,0,0,0,0,0,0,0,0,0,0,0,0,0,0,0,0,0,0,0,0,0,0
3,16,1261.9883705047,1,0,512070.182963155,512071.230026738,0,4,1,1,1,18,7,7281241,5321281,8121390,0,0,0,0,0,1080200,3060021,0,0,3141020,0,0,0,3120191,0,0,0,0,-2201090,0,0,0,2020070,0,0,0,3040140,3061180,0,0,0,0,0,0,0,0,0
3,17,816.553332202602,0,0,512073.618318722,512074.66538346,0,4,1,0,0,14,3,7231181,3090110,2190021,0,0,0,0,0,4140060,0,0,3091121,0,0,0,0,0,-3090110,0,0,0,0,0,0,0,0,0,2190021,0,0,0,0,0,0,0,0,0,0,0,0
3,18,970.921731961425,0,0,512076.536000663,512077.58307464,0,4,1,0,0,5,7,7130182,6111251,7201151,3141162,3060021,0,0,0,-4070161,0,0,0,0,2051081,0,0,0,0,0,4060170,0,0,0,0,3161091,0,4040060,0,0,0,0,0,1101041,0,2040121,0,0,0,0,0
3,19,662.156830076128,1,0,512079.700750345,512080.747824707,0,4,1,1,1,24,7,5151220,3110272,5201160,3210172,4090180,0,1061040,0,0,0,0,0,0,0,0,0,0,1090091,2020181,0,0,0,0,0,0,0,2061110,-3140050,0,0,0,0,0,0,0,2150121,1060051,0,0,0
3,20,861.479604209308,0,0,512082.57139103,512083.618446914,0,4,1,1,0,19,3,0,6282171,4311181,0,0,0,0,0,0,0,0,0,0,0,0,0,0,0,2171101,4111070,0,0,-3161020,0,1150161,0,0,0,0,0,0,0,0,0,0,0,0,0,0,0
3,21,783.606321492698,0,0,512085.630256792,512086.67732615,0,4,1,1,0,32,7,6512402,2212241,2091290,4110140,0,0,1191101,1151180,0,4170121,0,0,0,0,0,1121091,0,0,1091150,0,0,0,0,0,1081150,0,0,0,0,1010140,0,0,0,0,0,-4110140,0,0,0,0
3,22,527.580889349338,1,0,512088.630304142,512089.67737427,0,4,1,0,1,26,3,0,5121150,6242192,0,0,0,0,0,0,0,0,0,0,1081030,4040120,0,0,0,0,0,0,0,0,0,0,0,0,0,2151101,-4091091,0,0,0,0,0,0,0,0,0,0
3,23,667.716072755866,0,0,512091.289198546,512092.336240186,0,4,1,1,0,20,3,3040091,0,7221160,0,2030020,0,0,1010071,0,0,0,0,0,0,0,0,0,0,0,0,0,0,0,-3110020,0,0,4111140,0,0,0,0,0,0,0,0,0,0,0,0,0
3,24,1947.5487372838,1,0,512094.030390605,512095.077458038,0,4,1,0,1,7,7,6261301,2141171,7282142,7312372,0,0,4111100,0,0,0,-2150201,0,0,0,0,2141171,0,0,0,0,0,0,0,0,4101031,3181111,0,0,0,0,0,0,1060160,2101021,0,4151191,0,0,0,0
3,25,662.817810603883,1,0,512109.618856514,512110.665957054,0,4,2,0,1,10,3,1171160,6382351,0,0,0,0,0,0,0,0,0,0,1171160,-1061160,4181061,0,0,0,0,1140130,0,0,0,0,0,0,0,0,0,0,0,0,0,0,0,0,0,0,0,0
3,26,843.217370857019,1,0,512112.395425082,512113.442439775,0,4,2,1,1,2,7,8262392,4523342,2170130,0,1081030,-2030140,0,0,0,2140191,3011031,0,0,1141060,0,2181121,1201161,0,0,0,0,0,0,0,0,2170130,0,0,0,0,0,0,0,0,0,0,0,0,0,0
3,27,1219.2521499237,1,0,512115.442475192,512116.48954455,0,4,2,1,1,32,7,6512402,2212241,2091290,4110140,0,0,1191101,1151180,0,4170121,0,0,0,0,0,1121091,0,0,1091150,0,0,0,0,0,1081150,0,0,0,0,1010140,0,0,0,0,0,-4110140,0,0,0,0
3,28,574.88006982021,1,0,512118.783699742,512119.83077141,0,4,2,1,1,20,3,3040091,0,7221160,0,2030020,0,0,1010071,0,0,0,0,0,0,0,0,0,0,0,0,0,0,0,-3110020,0,0,4111140,0,0,0,0,0,0,0,0,0,0,0,0,0
3,29,1013.47856019856,1,0,512121.466085324,512122.513161611,0,4,2,0,1,6,3,3011131,4201020,0,5281351,0,0,0,0,0,-3011131,0,0,0,0,0,4201020,0,0,0,0,0,0,0,0,0,0,0,0,0,0,0,3180180,0,0,0,0,0,0,2101171,0
3,30,560.216850368306,0,0,512124.548493849,512125.595564362,0,4,2,1,0,27,7,6190232,2140171,8321121,5301201,0,3130181,0,0,0,0,3060051,0,0,0,0,2140171,0,0,0,0,0,0,0,0,0,3041021,2150030,0,0,0,-3130070,0,3140100,0,0,0,0,0,2161101,0
3,31,509.553868090734,0,0,512127.266224757,512128.313265628,0,4,2,0,0,9,3,1180011,0,3180041,4151292,0,0,0,0,0,0,0,0,-1180011,0,0,0,0,0,0,0,0,0,0,0,0,0,0,3180041,0,0,0,3040121,0,1111171,0,0,0,0,0,0
3,32,1126.79379509063,0,0,512129.877983589,512130.925062956,0,4,2,0,0,7,7,5150181,6372183,1091111,7171331,0,1030160,0,0,0,0,-4120021,0,0,0,0,0,0,0,0,3091011,2160131,1121041,0,0,0,0,0,0,0,0,1091111,0,4141201,0,0,0,3030130,0,0,0
3,33,1048.12210029922,0,0,512133.254508425,512134.301575858,0,4,2,1,0,36,3,0,8233372,0,4171041,0,0,0,0,0,0,0,0,0,0,0,0,1091081,3021101,0,4121190,0,0,0,0,0,0,0,0,0,0,0,0,0,0,0,0,0,0,0,-4171041
3,34,482.493703020737,1,0,512136.525142797,512137.572217929,0,4,2,1,1,19,3,0,6282171,4311181,0,0,0,0,0,0,0,0,0,0,0,0,0,0,0,2171101,4111070,0,0,-3161020,0,1150161,0,0,0,0,0,0,0,0,0,0,0,0,0,0,0
3,35,1218.22584001347,0,0,512139.219368668,512140.266378357,0,4,2,0,0,35,3,0,4011061,0,9453231,0,0,0,0,0,0,0,0,0,0,0,0,0,0,4011061,0,0,0,0,0,0,0,0,0,0,0,0,0,3201050,0,0,0,0,4121060,-2131121,0
3,36,1134.40296275076,0,0,512142.525226334,512143.572307626,0,4,2,1,0,12,3,2181070,2161031,0,2171202,2181070,0,0,0,0,0,0,0,0,0,0,-2161031,0,0,0,0,0,0,0,0,0,0,0,0,0,0,0,0,0,1040181,0,0,0,1131021,0,0
3,37,720.71269742446,0,0,512145.795880724,512146.842960091,0,4,2,1,0,24,7,5151220,3110272,5201160,3210172,4090180,0,1061040,0,0,0,0,0,0,0,0,0,0,1090091,2020181,0,0,0,0,0,0,0,2061110,-3140050,0,0,0,0,0,0,0,2150121,1060051,0,0,0
3,38,562.743358896114,0,0,512148.760622014,512149.807720244,0,4,2,0,0,23,7,9171271,0,8281260,6242321,0,0,0,0,1091090,4040161,0,0,4040020,0,0,0,0,0,0,0,0,0,0,0,0,0,-4121100,0,0,0,4160160,3081081,0,0,2071150,0,0,0,1090090,0
3,39,1020.47063299688,0,0,512151.443047631,512152.490091197,0,4,2,0,0,13,7,8231122,5361212,8342261,1161091,0,0,0,0,0,4180101,4051021,0,0,0,0,0,-2151050,0,0,0,2160101,1050061,0,0,0,0,4141200,4201061,0,0,0,0,0,0,0,0,0,0,1161091,0
3,40,676.902046601754,1,0,512154.619532893,512155.666663845,0,4,2,1,1,18,7,7281241,5321281,8121390,0,0,0,0,0,1080200,3060021,0,0,3141020,0,0,0,3120191,0,0,0,0,-2201090,0,0,0,2020070,0,0,0,3040140,3061180,0,0,0,0,0,0,0,0,0
3,41,1019.88664502278,0,0,512157.466659688,512158.513711337,0,4,2,0,0,5,3,3070161,4040190,2190020,4050020,0,0,0,0,-3070161,0,0,0,0,0,0,4040190,0,0,0,0,0,0,0,0,0,0,0,0,0,0,2190020,0,0,0,4050020,0,0,0,0,0
3,42,490.149451128673,1,0,512160.631388197,512161.67845409,0,4,2,1,1,17,3,3212050,2160070,0,3201121,0,2111030,0,0,0,0,0,1101020,0,0,0,0,0,0,0,0,-2160070,0,0,0,0,0,0,0,0,0,0,0,3201121,0,0,0,0,0,0,0
3,43,952.352683641948,0,1,512163.302017795,512164.349082148,0,4,2,1,1,25,7,6381512,9202432,2031181,0,1150151,0,0,0,1030130,0,2061031,2140200,0,0,0,4011050,4130191,0,0,0,1061191,0,0,0,0,0,0,0,-2031181,0,0,0,0,0,0,0,0,0,0,0
3,44,780.611698632129,1,0,512166.360971329,512167.40795561,0,4,2,0,1,29,7,9563541,5171380,1200091,1151071,1121150,0,0,0,0,0,2170110,4141121,2131160,0,0,0,2101190,0,0,3070190,0,0,0,0,0,0,0,1200091,0,0,0,0,-1151071,0,0,0,0,0,0,0
3,45,781.192222028039,0,0,512169.290345349,512170.337417401,0,4,2,1,0,34,3,4080030,0,3191190,6121202,0,0,0,0,4080030,0,0,0,0,0,0,0,0,0,0,0,0,0,3191190,0,0,0,0,0,0,0,0,0,0,0,0,3021101,0,-3100101,0,0
3,46,1879.359569808,0,0,512172.255100882,512173.302168315,0,4,2,0,0,14,7,9150152,1151151,4260111,7352101,0,0,0,0,4100111,4030011,0,1020030,0,0,0,0,0,-1151151,0,0,0,0,0,2060080,0,0,0,0,2200031,0,0,0,0,3181010,0,0,0,4171091,0,0
3,47,1075.64422022551,1,0,512176.372794295,512177.419877897,0,4,2,0,1,4,7,7112262,3151251,5170222,2151051,0,0,0,-3030090,1061101,0,0,0,3021071,0,0,1101091,0,0,2050160,0,0,0,0,0,0,0,3050021,0,2120201,0,0,0,0,0,0,0,0,0,2151051,0
3,48,558.161535882391,1,0,512179.549320748,512180.596386256,0,4,2,0,1,26,3,4031050,4100091,6180272,0,0,0,0,0,4031050,0,0,0,0,0,0,0,4100091,0,0,0,0,0,0,0,0,0,0,3130201,0,-3050071,0,0,0,0,0,0,0,0,0,0
3,49,899.1227716906,0,0,512198.820197261,512199.867268929,0,4,3,1,0,18,7,7281241,5321281,8121390,0,0,0,0,0,1080200,3060021,0,0,3141020,0,0,0,3120191,0,0,0,0,-2201090,0,0,0,2020070,0,0,0,3040140,3061180,0,0,0,0,0,0,0,0,0
3,50,557.138690666761,0,0,512201.773189882,512202.820251156,0,4,3,1,0,24,7,5151220,3110272,5201160,3210172,4090180,0,1061040,0,0,0,0,0,0,0,0,0,0,1090091,2020181,0,0,0,0,0,0,0,2061110,-3140050,0,0,0,0,0,0,0,2150121,1060051,0,0,0
3,51,443.641753401607,1,0,512204.514407734,512205.561475552,0,4,3,0,1,35,3,4232040,2021201,0,4121100,0,3161010,0,0,1071030,0,0,0,0,0,2021201,0,0,0,0,0,0,0,0,0,0,0,0,0,0,0,0,0,0,0,0,0,0,0,-4121100,0
3,52,1083.37388117798,0,0,512207.102679237,512208.149753985,0,4,3,1,0,20,3,3040091,0,7221160,0,2030020,0,0,1010071,0,0,0,0,0,0,0,0,0,0,0,0,0,0,0,-3110020,0,0,4111140,0,0,0,0,0,0,0,0,0,0,0,0,0
3,53,630.801254184917,1,0,512210.32625426,512211.373341712,0,4,3,0,1,13,3,0,10390502,3111110,0,0,0,0,0,0,0,0,0,0,0,0,0,-2190171,0,4120161,4080170,0,0,0,0,0,0,0,0,3111110,0,0,0,0,0,0,0,0,0,0,0
3,54,576.945008360781,1,0,512213.173357572,512214.220427315,0,4,3,1,1,19,3,0,6282171,4311181,0,0,0,0,0,0,0,0,0,0,0,0,0,0,0,2171101,4111070,0,0,-3161020,0,1150161,0,0,0,0,0,0,0,0,0,0,0,0,0,0,0
3,55,604.05598836951,0,0,512215.996933134,512217.043998257,0,4,3,1,0,36,3,0,8233372,0,4171041,0,0,0,0,0,0,0,0,0,0,0,0,1091081,3021101,0,4121190,0,0,0,0,0,0,0,0,0,0,0,0,0,0,0,0,0,0,0,-4171041
3,56,671.517576905899,1,0,512218.667555418,512219.714628241,0,4,3,0,1,7,7,10392423,1041040,13551601,0,4181171,0,2060071,0,0,0,-4151181,0,0,0,0,0,0,0,0,0,0,1041040,0,0,0,2170190,4021050,4160171,0,3200190,0,0,0,0,0,0,0,0,0,0
3,57,867.708681442309,0,0,512221.526427417,512222.57349331,0,4,3,1,0,2,7,8262392,4523342,2170130,0,1081030,-2030140,0,0,0,2140191,3011031,0,0,1141060,0,2181121,1201161,0,0,0,0,0,0,0,0,2170130,0,0,0,0,0,0,0,0,0,0,0,0,0,0
3,58,758.830523584038,0,0,512224.491178331,512225.53823537,0,4,3,0,0,4,7,12652471,4332271,2180100,1181191,0,0,3190200,-3191020,0,0,3111091,3160160,0,0,0,0,0,2171181,0,0,0,2161090,0,0,0,0,0,0,0,0,2180100,0,0,0,0,0,0,0,1181191,0
3,59,903.566008200869,0,0,512227.385374483,512228.432405729,0,4,3,0,0,14,3,0,6362261,1141100,3161031,0,0,0,0,0,0,0,0,0,0,0,0,0,-3181071,3181190,0,0,0,0,0,0,0,0,0,0,1141100,0,0,0,0,3161031,0,0,0,0,0
3,60,1017.33665372012,0,0,512230.361846348,512231.408915321,0,4,3,0,0,5,7,9262301,2030140,6402331,3070100,0,0,0,4041081,-4111070,0,0,0,1110150,0,0,0,0,0,2030140,0,0,0,0,0,2091100,0,0,2130181,0,0,2181050,0,0,0,0,0,0,0,0,3070100
3,61,485.753565037157,1,0,512233.550191533,512234.597208921,0,4,3,0,1,10,3,0,2110031,4201342,2190101,0,0,0,0,0,0,0,0,0,-2110031,0,0,0,0,0,0,0,0,0,0,0,0,1051201,0,0,3150141,0,0,0,0,0,0,2190101,0,0,0
3,62,843.324390414637,0,0,512236.279586803,512237.326658086,0,4,3,0,0,26,7,4271110,6140311,8173322,3190011,3140100,1131010,0,0,0,0,0,0,0,0,0,4110180,0,0,0,0,0,2030131,0,0,0,0,0,2121121,0,-4041060,2011141,0,0,0,3190011,0,0,0,0,0
3,63,1004.33955178596,1,0,512239.326696582,512240.37376517,0,4,3,1,1,25,7,6381512,9202432,2031181,0,1150151,0,0,0,1030130,0,2061031,2140200,0,0,0,4011050,4130191,0,0,0,1061191,0,0,0,0,0,0,0,-2031181,0,0,0,0,0,0,0,0,0,0,0
3,64,551.490136713255,1,0,512242.538504843,512243.585577666,0,4,3,1,1,17,3,3212050,2160070,0,3201121,0,2111030,0,0,0,0,0,1101020,0,0,0,0,0,0,0,0,-2160070,0,0,0,0,0,0,0,0,0,0,0,3201121,0,0,0,0,0,0,0
3,65,1063.81509435596,1,0,512245.315010278,512246.362087335,0,4,3,1,1,32,7,6512402,2212241,2091290,4110140,0,0,1191101,1151180,0,4170121,0,0,0,0,0,1121091,0,0,1091150,0,0,0,0,0,1081150,0,0,0,0,1010140,0,0,0,0,0,-4110140,0,0,0,0
3,66,1154.6516023227,1,0,512248.562124599,512249.609200886,0,4,3,1,1,34,3,4080030,0,3191190,6121202,0,0,0,0,4080030,0,0,0,0,0,0,0,0,0,0,0,0,0,3191190,0,0,0,0,0,0,0,0,0,0,0,0,3021101,0,-3100101,0,0
3,67,705.892413272522,0,0,512251.820994904,512252.868090054,0,4,3,1,0,12,3,2181070,2161031,0,2171202,2181070,0,0,0,0,0,0,0,0,0,0,-2161031,0,0,0,0,0,0,0,0,0,0,0,0,0,0,0,0,0,1040181,0,0,0,1131021,0,0
3,68,589.356967422646,0,0,512254.703386952,512255.750462855,0,4,3,0,0,29,3,3051090,0,4090270,2110170,0,0,0,0,0,3051090,0,0,0,0,0,0,0,0,0,0,0,0,0,0,0,1020070,0,0,0,0,3070200,0,-2110170,0,0,0,0,0,0,0
3,69,632.687570119742,1,0,512257.421078209,512258.468149107,0,4,3,0,1,23,7,3280042,1140070,3081071,8423394,0,0,2180031,0,0,0,0,1100011,0,0,0,0,0,1140070,0,0,0,0,0,0,0,0,-3081071,0,0,0,0,0,2021101,0,3110191,0,0,1101051,2191051,0
3,70,853.79960341379,0,0,512260.279952133,512261.327048053,0,4,3,0,0,9,7,10412390,2020130,7101291,4051201,0,2080040,0,4131050,0,0,0,2050160,-2151140,0,2020130,0,0,0,0,0,0,0,0,0,0,3081111,0,0,0,0,4020180,0,0,0,0,0,0,0,4051201,0
3,71,772.124431678094,1,0,512263.197636768,512264.244708821,0,4,3,0,1,6,3,5192190,5061151,0,0,0,0,1051120,0,0,-4141070,0,0,0,0,1041061,0,0,0,0,0,4020090,0,0,0,0,0,0,0,0,0,0,0,0,0,0,0,0,0,0,0
3,72,907.45451382827,1,0,512266.221216873,512267.268280841,0,4,3,1,1,27,7,6190232,2140171,8321121,5301201,0,3130181,0,0,0,0,3060051,0,0,0,0,2140171,0,0,0,0,0,0,0,0,0,3041021,2150030,0,0,0,-3130070,0,3140100,0,0,0,0,0,2161101,0
3,73,570.959997305181,1,0,512287.456820048,512288.503889405,0,4,4,0,1,14,7,4110131,8250241,6222221,7251171,0,0,0,0,0,4110131,0,0,0,2070121,0,4160010,0,-2020110,0,0,0,0,3121070,0,0,0,0,3101151,0,0,0,0,3101150,0,0,0,0,0,4150021,0
3,74,464.135229063686,0,0,512290.28039561,512291.327468047,0,4,4,1,0,19,3,0,6282171,4311181,0,0,0,0,0,0,0,0,0,0,0,0,0,0,0,2171101,4111070,0,0,-3161020,0,1150161,0,0,0,0,0,0,0,0,0,0,0,0,0,0,0
3,75,841.831121128052,1,0,512292.868673657,512293.915753024,0,4,4,0,1,4,3,8091231,3010021,0,4160011,0,0,0,-4061160,0,0,0,4030071,0,0,0,0,0,0,0,3010021,0,0,0,0,0,0,0,0,0,0,0,0,4160011,0,0,0,0,0,0,0
3,76,460.998170136008,1,0,512295.821653574,512296.868723317,0,4,4,1,1,17,3,3212050,2160070,0,3201121,0,2111030,0,0,0,0,0,1101020,0,0,0,0,0,0,0,0,-2160070,0,0,0,0,0,0,0,0,0,0,0,3201121,0,0,0,0,0,0,0
3,77,933.43870883109,0,0,512298.39816717,512299.445231523,0,4,4,1,0,12,3,2181070,2161031,0,2171202,2181070,0,0,0,0,0,0,0,0,0,0,-2161031,0,0,0,0,0,0,0,0,0,0,0,0,0,0,0,0,0,1040181,0,0,0,1131021,0,0
3,78,992.439592722803,0,0,512301.504083811,512302.551167028,0,4,4,1,0,32,7,6512402,2212241,2091290,4110140,0,0,1191101,1151180,0,4170121,0,0,0,0,0,1121091,0,0,1091150,0,0,0,0,0,1081150,0,0,0,0,1010140,0,0,0,0,0,-4110140,0,0,0,0
3,79,647.081315866672,1,0,512304.692377027,512305.739451774,0,4,4,0,1,26,3,2221202,3091091,1130011,0,1080121,0,0,0,0,0,0,0,1141081,0,3091091,0,0,0,0,0,0,0,0,0,0,0,0,0,0,-1130011,0,0,0,0,0,0,0,0,0,0
3,80,979.587236593943,0,0,512307.515942195,512308.563018482,0,4,4,1,0,18,7,7281241,5321281,8121390,0,0,0,0,0,1080200,3060021,0,0,3141020,0,0,0,3120191,0,0,0,0,-2201090,0,0,0,2020070,0,0,0,3040140,3061180,0,0,0,0,0,0,0,0,0
3,81,673.872007173486,0,0,512310.633646386,512311.680746156,0,4,4,0,0,5,3,6371041,4191131,0,0,0,0,0,0,-4170010,0,2201031,0,0,0,0,0,0,2161070,0,0,2030061,0,0,0,0,0,0,0,0,0,0,0,0,0,0,0,0,0,0,0
3,82,1282.18927473063,0,0,512313.551331407,512314.59839499,0,4,4,1,0,27,7,6190232,2140171,8321121,5301201,0,3130181,0,0,0,0,3060051,0,0,0,0,2140171,0,0,0,0,0,0,0,0,0,3041021,2150030,0,0,0,-3130070,0,3140100,0,0,0,0,0,2161101,0
3,83,434.491581108887,0,0,512316.916089481,512317.96315422,0,4,4,1,0,20,3,3040091,0,7221160,0,2030020,0,0,1010071,0,0,0,0,0,0,0,0,0,0,0,0,0,0,0,-3110020,0,0,4111140,0,0,0,0,0,0,0,0,0,0,0,0,0
3,84,940.11665234575,1,0,512319.610272622,512320.657311183,0,4,4,1,1,25,7,6381512,9202432,2031181,0,1150151,0,0,0,1030130,0,2061031,2140200,0,0,0,4011050,4130191,0,0,0,1061191,0,0,0,0,0,0,0,-2031181,0,0,0,0,0,0,0,0,0,0,0
3,85,1482.58416919271,1,0,512322.63381885,512323.680894367,0,4,4,0,1,7,7,6321072,1151020,5201362,9252301,0,0,0,0,0,0,-2181041,4140031,0,0,0,0,0,0,0,0,0,1151020,3011191,0,0,2190171,0,0,0,0,0,0,2011070,0,4051201,0,0,3190030,0,0
3,86,644.953628419898,1,0,512326.198618423,512327.245651594,0,4,4,1,1,2,7,8262392,4523342,2170130,0,1081030,-2030140,0,0,0,2140191,3011031,0,0,1141060,0,2181121,1201161,0,0,0,0,0,0,0,0,2170130,0,0,0,0,0,0,0,0,0,0,0,0,0,0
3,87,998.035791737493,0,0,512328.963323603,512330.010397581,0,4,4,0,0,6,3,4131110,1031131,0,3111100,0,0,0,0,0,-4131110,0,0,0,0,0,0,0,0,0,0,0,1031131,0,0,0,0,0,0,0,0,0,2071070,0,1040030,0,0,0,0,0,0
3,88,974.812162457965,1,0,512332.151709594,512333.198728137,0,4,4,0,1,29,7,7291261,2031181,5091151,6352293,0,0,0,0,0,4160081,3131180,0,0,0,0,0,0,2031181,0,0,0,0,0,0,0,0,1010060,0,0,0,4081091,0,-3111111,0,2180031,1061151,0,0,0,0
3,89,722.730285546277,0,0,512335.304605898,512336.351672176,0,4,4,1,0,24,7,5151220,3110272,5201160,3210172,4090180,0,1061040,0,0,0,0,0,0,0,0,0,0,1090091,2020181,0,0,0,0,0,0,0,2061110,-3140050,0,0,0,0,0,0,0,2150121,1060051,0,0,0
3,90,597.845389333088,0,0,512338.163481746,512339.210568427,0,4,4,0,0,23,3,3030130,0,4110151,3160130,0,0,0,0,0,3030130,0,0,0,0,0,0,0,0,0,0,0,0,2050071,0,0,0,-2060080,0,0,0,0,0,0,0,3160130,0,0,0,0,0
3,91,517.694668786135,1,0,512340.857631779,512341.904696133,0,4,4,0,1,9,7,9150171,4212172,4120110,3132102,0,0,0,0,0,3030050,2080050,0,-4040071,0,2181121,0,0,0,0,0,0,2031051,0,0,0,0,0,0,4120110,0,0,0,0,0,0,0,2081011,0,0,1051091
3,92,769.407366693486,0,0,512343.598851171,512344.645923224,0,4,4,0,0,35,3,3170110,0,2151170,8102320,0,0,0,3170110,0,0,0,0,0,0,0,0,0,0,0,0,0,0,0,0,0,2151170,0,0,0,0,0,0,0,0,0,0,0,0,-4011120,4091200
3,93,636.294668191113,0,0,512346.540083574,512347.587133684,0,4,4,1,0,34,3,4080030,0,3191190,6121202,0,0,0,0,4080030,0,0,0,0,0,0,0,0,0,0,0,0,0,3191190,0,0,0,0,0,0,0,0,0,0,0,0,3021101,0,-3100101,0,0
3,94,802.811327797826,1,0,512349.316632509,512350.363699557,0,4,4,0,1,10,7,6021161,9281221,1051090,4261101,3011020,0,3010141,0,0,0,0,0,0,-3050021,0,0,0,3170040,0,0,3061160,0,1051090,0,0,0,0,0,0,0,0,2121061,2140040,0,0,0,0,0,0,0
3,95,998.704471508972,1,0,512352.175437524,512353.222506112,0,4,4,1,1,36,3,0,8233372,0,4171041,0,0,0,0,0,0,0,0,0,0,0,0,1091081,3021101,0,4121190,0,0,0,0,0,0,0,0,0,0,0,0,0,0,0,0,0,0,0,-4171041
3,96,1041.23011772754,1,0,512355.351962822,512356.399027946,0,4,4,0,1,13,7,9393302,4140190,4280281,4231230,0,1171010,4201091,0,4021201,0,0,0,0,0,0,0,-4140190,0,0,0,0,0,0,0,0,3100181,0,0,0,1180100,0,0,0,0,1151160,0,0,0,3080070,0
3,97,570.033007650636,0,0,512379.069957045,512380.117030637,0,4,5,1,0,36,3,0,8233372,0,4171041,0,0,0,0,0,0,0,0,0,0,0,0,1091081,3021101,0,4121190,0,0,0,0,0,0,0,0,0,0,0,0,0,0,0,0,0,0,0,-4171041
3,98,607.051381201018,0,0,512381.775917341,512382.822974765,0,4,5,0,0,23,3,2041171,1081171,3311081,0,0,0,0,0,0,2041171,0,0,0,0,0,0,0,0,0,1081171,0,0,0,0,0,0,-2131010,0,1180071,0,0,0,0,0,0,0,0,0,0,0
3,99,957.751781854313,0,0,512384.458295224,512385.505341484,0,4,5,0,0,4,7,4370111,3111041,5151133,4221141,0,0,0,-1200071,0,0,0,0,3170040,3111041,0,0,0,0,0,0,0,0,0,1081011,0,0,0,1060031,0,3010091,0,1120131,0,0,0,3101010,0,0,0,0
3,100,793.627278821077,0,0,512387.646553407,512388.693634314,0,4,5,0,0,9,7,1190010,4031090,11372521,4221462,0,0,0,0,0,0,0,0,-1190010,0,0,0,0,0,4031090,0,0,0,0,4121171,0,3061160,0,0,0,0,4190190,0,1091201,0,0,1090150,0,0,0,2040111
3,101,616.404043743387,0,0,512390.587764253,512391.634849779,0,4,5,1,0,19,3,0,6282171,4311181,0,0,0,0,0,0,0,0,0,0,0,0,0,0,0,2171101,4111070,0,0,-3161020,0,1150161,0,0,0,0,0,0,0,0,0,0,0,0,0,0,0
3,102,666.033401910681,0,0,512393.434883733,512394.481973109,0,4,5,1,0,24,7,5151220,3110272,5201160,3210172,4090180,0,1061040,0,0,0,0,0,0,0,0,0,0,1090091,2020181,0,0,0,0,0,0,0,2061110,-3140050,0,0,0,0,0,0,0,2150121,1060051,0,0,0
3,103,1351.26847535139,0,0,512396.293753036,512397.340822009,0,4,5,0,0,26,7,2071180,2041031,8441242,11380342,0,2071180,0,0,0,0,0,0,0,0,0,0,0,0,0,0,0,2041031,0,0,2181141,0,0,0,0,-2120011,4140090,3140190,0,4200041,0,0,0,0,4040111,0
3,104,564.918781630695,0,0,512399.823217677,512400.870320526,0,4,5,0,0,29,3,0,4160192,0,3230191,0,0,0,0,0,0,0,0,0,3020111,1140081,0,0,0,0,0,0,0,0,0,0,0,0,0,0,0,0,2180120,-1050071,0,0,0,0,0,0,0
3,105,778.506339062005,1,0,512402.505610188,512403.552678391,0,4,5,0,1,7,3,3030070,1171151,3030130,2060010,0,0,0,0,0,0,-3030070,0,0,0,0,0,0,0,0,0,1171151,0,0,0,0,0,0,0,3030130,0,0,2060010,0,0,0,0,0,0,0,0
3,106,668.4856126667,1,0,512405.364475642,512406.411536145,0,4,5,1,1,2,7,8262392,4523342,2170130,0,1081030,-2030140,0,0,0,2140191,3011031,0,0,1141060,0,2181121,1201161,0,0,0,0,0,0,0,0,2170130,0,0,0,0,0,0,0,0,0,0,0,0,0,0
3,107,581.298933597282,0,1,512408.211577798,512409.258646386,0,4,5,0,1,10,3,0,5360111,6151360,0,0,0,0,0,0,0,0,0,0,-1170050,0,4190061,0,0,0,0,0,0,0,2101160,0,0,0,4050200,0,0,0,0,0,0,0,0,0,0,0,0
3,108,677.834810514469,1,0,512410.893968384,512411.941035048,0,4,5,1,1,17,3,3212050,2160070,0,3201121,0,2111030,0,0,0,0,0,1101020,0,0,0,0,0,0,0,0,-2160070,0,0,0,0,0,0,0,0,0,0,0,3201121,0,0,0,0,0,0,0
3,109,998.653656453826,1,0,512413.776360048,512414.823430946,0,4,5,1,1,12,3,2181070,2161031,0,2171202,2181070,0,0,0,0,0,0,0,0,0,0,-2161031,0,0,0,0,0,0,0,0,0,0,0,0,0,0,0,0,0,1040181,0,0,0,1131021,0,0
3,110,1176.30073521286,0,0,512416.870523402,512417.917596994,0,4,5,0,0,13,7,9152432,12302600,0,0,0,4030120,1011161,4111151,0,0,0,0,0,4011140,0,0,-1090060,0,3070120,3021190,1110090,0,0,0,0,0,0,0,0,0,0,0,0,0,0,0,0,0,0,0
3,111,808.476435136981,1,0,512420.282339285,512421.329410568,0,4,5,1,1,20,3,3040091,0,7221160,0,2030020,0,0,1010071,0,0,0,0,0,0,0,0,0,0,0,0,0,0,0,-3110020,0,0,4111140,0,0,0,0,0,0,0,0,0,0,0,0,0
3,112,1118.03435970796,1,0,512423.211828024,512424.258877364,0,4,5,1,1,25,7,6381512,9202432,2031181,0,1150151,0,0,0,1030130,0,2061031,2140200,0,0,0,4011050,4130191,0,0,0,1061191,0,0,0,0,0,0,0,-2031181,0,0,0,0,0,0,0,0,0,0,0
3,113,562.896958901547,0,0,512426.400078123,512427.447145556,0,4,5,1,0,34,3,4080030,0,3191190,6121202,0,0,0,0,4080030,0,0,0,0,0,0,0,0,0,0,0,0,0,3191190,0,0,0,0,0,0,0,0,0,0,0,0,3021101,0,-3100101,0,0
3,114,1894.34692764189,0,0,512429.176594721,512430.223663694,0,4,5,0,0,6,3,4141140,8300272,2180040,0,0,0,0,0,0,-4141140,0,0,0,0,0,0,0,4100131,0,4200141,0,0,0,0,2180040,0,0,0,0,0,0,0,0,0,0,0,0,0,0,0
3,115,2080.48666286049,1,0,512433.294303148,512434.341374815,0,4,5,0,1,14,7,4031150,3330182,3141262,8232380,4031150,0,0,0,0,0,0,0,0,0,2160151,0,0,-1170031,0,0,0,0,0,2011081,1130181,0,0,0,0,0,0,0,0,0,4141170,0,3041090,0,0,1050120
3,116,790.190719126258,1,0,512437.588484132,512438.635557725,0,4,5,0,1,35,7,2021160,4021030,6361271,9503361,0,0,0,0,0,0,0,0,2021160,0,0,4021030,0,0,0,0,0,0,0,0,2200071,0,0,0,0,4161200,0,0,4061020,0,0,1140080,0,1121071,-3181190,0
3,117,1376.2456086115,1,0,512440.541465589,512441.588538797,0,4,5,1,1,32,7,6512402,2212241,2091290,4110140,0,0,1191101,1151180,0,4170121,0,0,0,0,0,1121091,0,0,1091150,0,0,0,0,0,1081150,0,0,0,0,1010140,0,0,0,0,0,-4110140,0,0,0,0
3,118,891.140190477017,1,0,512444.035624554,512445.082706616,0,4,5,0,1,5,3,3191180,0,3130011,5182322,0,0,0,0,-3191180,0,0,0,0,0,0,0,0,0,0,0,0,0,0,0,0,0,0,0,0,0,3130011,0,0,0,0,0,3041191,2141131,0,0
3,119,741.459863318596,1,0,512447.106267087,512448.15333991,0,4,5,1,1,27,7,6190232,2140171,8321121,5301201,0,3130181,0,0,0,0,3060051,0,0,0,0,2140171,0,0,0,0,0,0,0,0,0,3041021,2150030,0,0,0,-3130070,0,3140100,0,0,0,0,0,2161101,0
3,120,686.72859785147,1,0,512449.965135621,512451.012207674,0,4,5,1,1,18,7,7281241,5321281,8121390,0,0,0,0,0,1080200,3060021,0,0,3141020,0,0,0,3120191,0,0,0,0,-2201090,0,0,0,2020070,0,0,0,3040140,3061180,0,0,0,0,0,0,0,0,0
3,121,480.580824660137,1,0,512468.330110429,512469.377190951,0,4,6,1,1,17,3,3212050,2160070,0,3201121,0,2111030,0,0,0,0,0,1101020,0,0,0,0,0,0,0,0,-2160070,0,0,0,0,0,0,0,0,0,0,0,3201121,0,0,0,0,0,0,0
3,122,919.663597713225,0,0,512471.047804766,512472.094871044,0,4,6,0,0,29,7,0,6222353,8171380,8330201,0,0,0,0,0,0,0,0,0,0,2061121,0,0,0,2050081,0,2111151,0,4021190,0,0,0,0,0,4150190,0,0,0,-2030020,0,0,0,3200110,3100071,0,0
3,123,507.970902486704,1,0,512474.059616954,512475.106680152,0,4,6,1,1,20,3,3040091,0,7221160,0,2030020,0,0,1010071,0,0,0,0,0,0,0,0,0,0,0,0,0,0,0,-3110020,0,0,4111140,0,0,0,0,0,0,0,0,0,0,0,0,0
3,124,416.863380931318,1,0,512476.812595793,512477.85972405,0,4,6,0,1,23,3,3201020,4110041,4192240,0,3201020,0,0,0,0,0,0,0,0,0,0,0,0,4110041,0,0,0,0,0,0,0,0,-2141160,0,0,0,2051080,0,0,0,0,0,0,0,0,0
3,125,896.225159347523,1,0,512479.436162193,512480.483230396,0,4,6,0,1,26,7,3101141,2231132,4360342,7312281,0,0,3101141,0,0,0,0,0,0,0,0,0,0,1181021,0,0,1050111,0,0,0,0,2170171,0,0,0,-2190171,0,0,4100090,0,0,0,2021031,0,1191160,0
3,126,864.694425545167,0,0,512482.400913492,512483.447984005,0,4,6,1,0,32,7,6512402,2212241,2091290,4110140,0,0,1191101,1151180,0,4170121,0,0,0,0,0,1121091,0,0,1091150,0,0,0,0,0,1081150,0,0,0,0,1010140,0,0,0,0,0,-4110140,0,0,0,0
3,127,545.090521103702,0,0,512485.424488977,512486.471560259,0,4,6,1,0,19,3,0,6282171,4311181,0,0,0,0,0,0,0,0,0,0,0,0,0,0,0,2171101,4111070,0,0,-3161020,0,1150161,0,0,0,0,0,0,0,0,0,0,0,0,0,0,0
3,128,784.465942590032,0,0,512488.106878023,512489.15395046,0,4,6,1,0,25,7,6381512,9202432,2031181,0,1150151,0,0,0,1030130,0,2061031,2140200,0,0,0,4011050,4130191,0,0,0,1061191,0,0,0,0,0,0,0,-2031181,0,0,0,0,0,0,0,0,0,0,0
3,129,621.963286364917,1,0,512491.036337505,512492.083404168,0,4,6,1,1,27,7,6190232,2140171,8321121,5301201,0,3130181,0,0,0,0,3060051,0,0,0,0,2140171,0,0,0,0,0,0,0,0,0,3041021,2150030,0,0,0,-3130070,0,3140100,0,0,0,0,0,2161101,0
3,130,699.625994602684,1,0,512493.765793984,512494.812862572,0,4,6,1,1,2,7,8262392,4523342,2170130,0,1081030,-2030140,0,0,0,2140191,3011031,0,0,1141060,0,2181121,1201161,0,0,0,0,0,0,0,0,2170130,0,0,0,0,0,0,0,0,0,0,0,0,0,0
3,131,962.695854483172,0,0,512496.577627807,512497.624723342,0,4,6,1,0,24,7,5151220,3110272,5201160,3210172,4090180,0,1061040,0,0,0,0,0,0,0,0,0,0,1090091,2020181,0,0,0,0,0,0,0,2061110,-3140050,0,0,0,0,0,0,0,2150121,1060051,0,0,0
3,132,571.558613853995,0,0,512499.718817787,512500.765877136,0,4,6,1,0,18,7,7281241,5321281,8121390,0,0,0,0,0,1080200,3060021,0,0,3141020,0,0,0,3120191,0,0,0,0,-2201090,0,0,0,2020070,0,0,0,3040140,3061180,0,0,0,0,0,0,0,0,0
3,133,746.578323887661,1,0,512502.37771758,512503.424749596,0,4,6,0,1,35,3,0,8103231,0,3131070,0,0,0,0,0,0,0,0,0,0,0,3011140,0,0,0,0,4081051,1011040,0,0,0,0,0,0,0,0,0,0,0,0,0,0,0,0,-3131070,0
3,134,1081.83480135631,1,0,512505.330698267,512506.377738368,0,4,6,0,1,10,7,6182110,5240141,3192131,5260302,0,0,0,2061010,4121100,0,0,0,0,-1190081,0,4050060,0,0,0,0,0,0,0,0,2081030,0,0,0,0,0,1111101,4100131,0,0,0,0,0,1160171,0,0
3,135,828.700822079554,0,0,512508.530706659,512509.577785641,0,4,6,1,0,12,3,2181070,2161031,0,2171202,2181070,0,0,0,0,0,0,0,0,0,0,-2161031,0,0,0,0,0,0,0,0,0,0,0,0,0,0,0,0,0,1040181,0,0,0,1131021,0,0
3,136,807.563689246308,0,0,512511.57784454,512512.624905429,0,4,6,1,0,36,3,0,8233372,0,4171041,0,0,0,0,0,0,0,0,0,0,0,0,1091081,3021101,0,4121190,0,0,0,0,0,0,0,0,0,0,0,0,0,0,0,0,0,0,0,-4171041
3,137,596.854880976025,1,0,512514.495513008,512515.542624711,0,4,6,1,1,34,3,4080030,0,3191190,6121202,0,0,0,0,4080030,0,0,0,0,0,0,0,0,0,0,0,0,0,3191190,0,0,0,0,0,0,0,0,0,0,0,0,3021101,0,-3100101,0,0
3,138,1229.41400343552,0,0,512517.272027681,512518.319098579,0,4,6,0,0,6,7,7242182,5210132,4110050,8230341,0,0,0,4071121,0,-3171061,0,0,0,0,0,0,1070031,0,0,0,4140101,0,0,0,0,0,4110050,0,0,0,0,2030130,0,0,4010080,0,0,2190131,0,0
3,139,974.337888706941,1,0,512520.625014373,512521.672088736,0,4,6,0,1,13,3,0,5191152,2140091,3091020,0,0,0,0,0,0,0,0,0,0,0,0,-4070141,0,0,0,0,1121011,0,0,0,2140091,0,0,0,0,0,0,0,0,0,0,3091020,0,0,0
3,140,768.777183198836,1,0,512523.754473393,512524.801543136,0,4,6,0,1,14,7,0,8522552,4171351,7351382,0,0,0,0,0,0,0,0,0,1181100,2130121,0,0,-1060130,0,0,4151201,0,0,1101181,0,3070170,0,0,0,0,0,0,0,0,0,0,0,4191201,3160181,0
3,141,790.482520649675,0,0,512526.648633359,512527.695698867,0,4,6,0,0,5,3,7192262,0,3080150,4171031,0,0,4011121,0,-3181141,0,0,0,0,0,0,0,0,0,0,0,0,0,0,0,0,0,0,0,3080150,0,0,0,0,0,4171031,0,0,0,0,0
3,142,627.120628254488,0,0,512529.683972142,512530.731041499,0,4,6,0,0,9,3,4120130,2120021,0,7290262,0,0,0,0,0,0,0,0,-4120130,0,0,0,0,2120021,0,0,0,0,0,0,0,0,0,0,0,0,0,0,0,0,0,0,0,0,4150111,3140151
3,143,684.852290956769,1,0,512532.460493359,512533.507560407,0,4,6,0,1,7,7,11442291,4050131,13431462,0,4121010,0,0,0,3160150,0,-4161131,0,0,0,0,0,0,0,0,0,4050131,0,0,3130181,0,4010171,3190050,0,0,0,3101060,0,0,0,0,0,0,0,0,0
3,144,707.728684064932,1,0,512535.307586662,512536.35465217,0,4,6,0,1,4,3,6112271,6291230,0,0,0,0,0,-2051120,0,0,0,4061151,0,0,3190160,0,3101070,0,0,0,0,0,0,0,0,0,0,0,0,0,0,0,0,0,0,0,0,0,0,0
3,145,860.764343931805,1,0,512554.790262197,512555.837306917,0,4,7,1,1,32,7,6512402,2212241,2091290,4110140,0,0,1191101,1151180,0,4170121,0,0,0,0,0,1121091,0,0,1091150,0,0,0,0,0,1081150,0,0,0,0,1010140,0,0,0,0,0,-4110140,0,0,0,0
3,146,965.137671330012,1,0,512557.754980389,512558.802045512,0,4,7,1,1,18,7,7281241,5321281,8121390,0,0,0,0,0,1080200,3060021,0,0,3141020,0,0,0,3120191,0,0,0,0,-2201090,0,0,0,2020070,0,0,0,3040140,3061180,0,0,0,0,0,0,0,0,0
3,147,732.035982655361,1,0,512560.802085163,512561.849143357,0,4,7,0,1,26,7,9330471,2130180,1170030,7442222,0,0,3200161,0,4020190,0,0,0,2110120,0,2130180,0,0,0,0,0,0,0,0,0,0,0,0,0,0,-1170030,0,0,2171031,0,0,4180070,1091121,0,0,0
3,148,733.91498439014,1,0,512563.755070855,512564.802193723,0,4,7,1,1,25,7,6381512,9202432,2031181,0,1150151,0,0,0,1030130,0,2061031,2140200,0,0,0,4011050,4130191,0,0,0,1061191,0,0,0,0,0,0,0,-2031181,0,0,0,0,0,0,0,0,0,0,0
3,149,929.992140096147,0,0,512566.660993733,512567.708066171,0,4,7,0,0,4,7,6291351,6132231,2030120,5531222,0,0,4170191,-2121160,0,0,0,0,0,0,0,0,3091191,0,0,0,3041040,0,0,0,2030120,0,0,0,0,0,0,1161031,0,0,0,1180180,3190011,0,0,0
3,150,610.517967958003,0,0,512569.696334056,512570.743409188,0,4,7,1,0,36,3,0,8233372,0,4171041,0,0,0,0,0,0,0,0,0,0,0,0,1091081,3021101,0,4121190,0,0,0,0,0,0,0,0,0,0,0,0,0,0,0,0,0,0,0,-4171041
3,151,417.910478776321,1,0,512572.566968581,512573.614041019,0,4,7,0,1,23,3,4100140,4090161,4110121,3080170,0,0,0,0,0,0,0,0,4100140,0,0,0,0,0,4090161,0,0,0,0,0,0,0,-4110121,0,0,0,0,3080170,0,0,0,0,0,0,0,0
3,152,700.293134548701,0,0,512575.084657991,512576.131723499,0,4,7,1,0,20,3,3040091,0,7221160,0,2030020,0,0,1010071,0,0,0,0,0,0,0,0,0,0,0,0,0,0,0,-3110020,0,0,4111140,0,0,0,0,0,0,0,0,0,0,0,0,0
3,153,1634.20008757384,0,0,512577.978808332,512579.025873841,0,4,7,1,0,2,7,8262392,4523342,2170130,0,1081030,-2030140,0,0,0,2140191,3011031,0,0,1141060,0,2181121,1201161,0,0,0,0,0,0,0,0,2170130,0,0,0,0,0,0,0,0,0,0,0,0,0,0
3,154,519.847763760481,1,0,512581.861233488,512582.908295532,0,4,7,1,1,24,7,5151220,3110272,5201160,3210172,4090180,0,1061040,0,0,0,0,0,0,0,0,0,0,1090091,2020181,0,0,0,0,0,0,0,2061110,-3140050,0,0,0,0,0,0,0,2150121,1060051,0,0,0
3,155,1319.71772341058,0,0,512584.461260974,512585.508326868,0,4,7,0,0,6,7,2130251,3060111,0,10491692,1080130,0,0,0,0,-1050121,0,0,0,0,0,0,0,3060111,0,0,0,0,0,0,0,0,0,0,0,0,0,2020180,0,1190200,1141141,3110150,3030021,0,0,0
3,156,822.062529739924,1,0,512587.88483746,512588.931910283,0,4,7,0,1,29,3,0,0,5373311,2091121,0,0,0,0,0,0,0,0,0,0,0,0,0,0,0,0,0,0,0,0,0,0,0,1081101,3131080,1161130,0,0,-2091121,0,0,0,0,0,0,0
3,157,2166.06419888558,0,0,512590.837827001,512591.884895589,0,4,7,0,0,10,7,5302081,5172101,6191331,4110161,1131041,0,0,4171040,0,0,0,0,0,-2121021,0,0,0,0,0,0,0,3051080,0,0,0,0,3091190,0,3100141,0,0,1040081,0,0,0,0,0,0,0,3070080
3,158,485.435586015228,1,0,512595.261421581,512596.308490169,0,4,7,1,1,17,3,3212050,2160070,0,3201121,0,2111030,0,0,0,0,0,1101020,0,0,0,0,0,0,0,0,-2160070,0,0,0,0,0,0,0,0,0,0,0,3201121,0,0,0,0,0,0,0
3,159,653.433966101147,0,0,512597.920287882,512598.967363399,0,4,7,0,0,35,3,10313361,0,0,1161091,2021141,4161110,0,4131110,0,0,0,0,0,0,0,0,0,0,0,0,0,0,0,0,0,0,0,0,0,0,0,0,0,0,0,0,0,0,-1161091,0
3,160,1037.61378052877,0,0,512600.732093217,512601.779160265,0,4,7,1,0,27,7,6190232,2140171,8321121,5301201,0,3130181,0,0,0,0,3060051,0,0,0,0,2140171,0,0,0,0,0,0,0,0,0,3041021,2150030,0,0,0,-3130070,0,3140100,0,0,0,0,0,2161101,0
3,161,548.872007173486,1,0,512603.990965061,512605.038085619,0,4,7,0,1,7,3,4170061,6331322,2020050,0,0,0,0,0,0,0,-4170061,0,0,0,0,3161171,0,0,0,0,0,3170151,0,0,0,0,0,0,2020050,0,0,0,0,0,0,0,0,0,0,0
3,162,652.015764440876,1,0,512606.755714512,512607.802784255,0,4,7,0,1,9,7,5272291,3131231,4060150,3211231,0,2141041,0,0,0,0,1121190,0,-2010060,0,1051130,0,0,0,0,0,0,2080101,0,4060150,0,0,0,0,0,0,0,0,0,0,0,0,0,2181090,0,1030141
3,163,598.289636021946,0,0,512609.47339807,512610.520478592,0,4,7,1,0,19,3,0,6282171,4311181,0,0,0,0,0,0,0,0,0,0,0,0,0,0,0,2171101,4111070,0,0,-3161020,0,1150161,0,0,0,0,0,0,0,0,0,0,0,0,0,0,0
3,164,504.317223909311,0,0,512612.226379604,512613.273453967,0,4,7,0,0,13,3,4202181,3121020,2060201,0,2181040,0,0,0,2021141,0,0,0,0,0,0,0,-3121020,0,0,0,0,0,2060201,0,0,0,0,0,0,0,0,0,0,0,0,0,0,0,0,0
3,165,985.907549969852,0,0,512614.814659192,512615.861730474,0,4,7,0,0,5,3,6210161,0,0,5181351,3010041,0,0,0,-3200120,0,0,0,0,0,0,0,0,0,0,0,0,0,0,0,0,0,0,0,0,0,0,0,0,1060180,4121171,0,0,0,0,0
3,166,756.222403084394,0,0,512618.026468223,512619.0735422,0,4,7,1,0,34,3,4080030,0,3191190,6121202,0,0,0,0,4080030,0,0,0,0,0,0,0,0,0,0,0,0,0,3191190,0,0,0,0,0,0,0,0,0,0,0,0,3021101,0,-3100101,0,0
3,167,482.974906044547,1,0,512621.014753046,512622.061874758,0,4,7,0,1,14,7,3101312,8052261,4260271,3232191,0,1091151,0,0,0,0,2010161,0,0,0,0,0,4011191,-4041070,0,0,0,0,0,3200160,0,0,0,0,0,1060111,0,0,0,2091150,0,0,0,1141041,0,0
3,168,1210.36798658315,0,0,512623.68537456,512624.732443148,0,4,7,1,0,12,3,2181070,2161031,0,2171202,2181070,0,0,0,0,0,0,0,0,0,0,-2161031,0,0,0,0,0,0,0,0,0,0,0,0,0,0,0,0,0,1040181,0,0,0,1131021,0,0
3,169,883.714264957234,0,0,512639.73267451,512640.779747718,0,4,8,1,0,32,7,6512402,2212241,2091290,4110140,0,0,1191101,1151180,0,4170121,0,0,0,0,0,1121091,0,0,1091150,0,0,0,0,0,1081150,0,0,0,0,1010140,0,0,0,0,0,-4110140,0,0,0,0
3,170,596.131536527537,0,0,512642.744489393,512643.791548356,0,4,8,0,0,9,7,10611402,0,0,8312131,1110071,3170040,0,0,3010140,0,0,2181131,-1140020,0,0,0,0,0,0,0,0,0,0,0,0,0,0,0,0,0,0,0,0,0,2121080,0,4020021,2171030,0,0
3,171,1178.77450387459,0,0,512645.579816703,512646.62689068,0,4,8,0,0,23,7,4200191,9322282,9181061,0,0,0,0,0,2090121,0,2110070,0,0,0,0,3071131,0,0,0,0,4110060,2141091,0,1081020,0,0,-4060031,0,0,4040010,0,0,0,0,0,0,0,0,0,0
3,172,1182.2980651632,0,0,512648.909284885,512649.956351548,0,4,8,0,0,7,3,4190141,1091110,4030091,4021200,0,0,0,0,0,0,-4190141,0,0,0,0,0,0,0,0,0,0,1091110,0,0,4030091,0,0,0,0,0,0,0,0,0,0,0,0,0,0,4021200
3,173,635.113603435457,1,0,512652.309336316,512653.356417223,0,4,8,1,1,2,7,8262392,4523342,2170130,0,1081030,-2030140,0,0,0,2140191,3011031,0,0,1141060,0,2181121,1201161,0,0,0,0,0,0,0,0,2170130,0,0,0,0,0,0,0,0,0,0,0,0,0,0
3,174,767.678885371424,0,0,512655.144672481,512656.19177918,0,4,8,1,0,27,7,6190232,2140171,8321121,5301201,0,3130181,0,0,0,0,3060051,0,0,0,0,2140171,0,0,0,0,0,0,0,0,0,3041021,2150030,0,0,0,-3130070,0,3140100,0,0,0,0,0,2161101,0
3,175,538.328655762598,0,0,512658.027063375,512659.074133502,0,4,8,1,0,17,3,3212050,2160070,0,3201121,0,2111030,0,0,0,0,0,1101020,0,0,0,0,0,0,0,0,-2160070,0,0,0,0,0,0,0,0,0,0,0,3201121,0,0,0,0,0,0,0
3,176,651.630032050889,1,0,512660.650632854,512661.697708756,0,4,8,1,1,24,7,5151220,3110272,5201160,3210172,4090180,0,1061040,0,0,0,0,0,0,0,0,0,0,1090091,2020181,0,0,0,0,0,0,0,2061110,-3140050,0,0,0,0,0,0,0,2150121,1060051,0,0,0
3,177,681.651328224689,0,0,512663.391847626,512664.438919679,0,4,8,0,0,13,3,1020060,7312371,0,0,0,1020060,0,0,0,0,0,0,0,0,0,2041181,-4140040,0,1131150,0,0,0,0,0,0,0,0,0,0,0,0,0,0,0,0,0,0,0,0,0
3,178,873.939298617188,0,0,512666.168366919,512667.215428963,0,4,8,0,0,35,7,0,3331291,9271152,5251232,0,0,0,0,0,0,0,0,0,0,0,0,1151120,2180171,0,0,0,0,0,0,0,0,3021030,4100021,0,0,2150101,1031121,0,0,0,0,0,0,-2030010,2190101
3,179,880.124490184244,1,0,512669.180169868,512670.227245385,0,4,8,0,1,6,3,3020130,5351062,0,4151111,0,0,0,0,0,-3020130,0,0,0,3151031,0,0,0,0,0,2200031,0,0,0,0,0,0,0,0,0,0,0,0,0,0,0,0,0,0,0,4151111
3,180,522.659914393444,1,0,512672.156685619,512673.203760751,0,4,8,1,1,20,3,3040091,0,7221160,0,2030020,0,0,1010071,0,0,0,0,0,0,0,0,0,0,0,0,0,0,0,-3110020,0,0,4111140,0,0,0,0,0,0,0,0,0,0,0,0,0
3,181,1046.55953776091,1,0,512674.756729273,512675.803794782,0,4,8,0,1,29,7,0,9332272,7161241,7363220,0,0,0,0,0,0,0,0,0,4150131,0,0,0,0,0,4131080,1051061,0,0,4080101,0,0,0,0,3081140,0,0,0,-1141030,0,0,0,0,3101100,3121090,0
3,182,548.131724412087,0,0,512677.886189448,512678.933253417,0,4,8,0,0,10,3,1181050,3131212,0,1090171,0,1181050,0,0,0,0,0,0,0,-2021051,0,0,0,0,0,1110161,0,0,0,0,0,0,0,0,0,0,0,0,0,0,1090171,0,0,0,0,0
3,183,857.385528564919,1,0,512680.650916187,512681.697997478,0,4,8,0,1,26,7,3261200,6342391,8201422,1200151,1071090,0,0,0,0,2190110,0,0,0,0,0,0,0,2141200,0,0,4201191,0,3080151,0,0,0,0,0,2040080,-3081191,0,1200151,0,0,0,0,0,0,0,0
3,184,507.488929550163,1,0,512683.603912657,512684.650988559,0,4,8,1,1,34,3,4080030,0,3191190,6121202,0,0,0,0,4080030,0,0,0,0,0,0,0,0,0,0,0,0,0,3191190,0,0,0,0,0,0,0,0,0,0,0,0,3021101,0,-3100101,0,0
3,185,567.564243567176,1,0,512686.321606224,512687.368679432,0,4,8,1,1,12,3,2181070,2161031,0,2171202,2181070,0,0,0,0,0,0,0,0,0,0,-2161031,0,0,0,0,0,0,0,0,0,0,0,0,0,0,0,0,0,1040181,0,0,0,1131021,0,0
3,186,634.962313226424,0,0,512688.945171469,512689.992241982,0,4,8,0,0,14,3,0,4321391,0,1110011,0,0,0,0,0,0,0,0,0,0,0,0,0,-1071110,1130110,2120171,0,0,0,0,0,0,0,0,0,0,0,1110011,0,0,0,0,0,0,0,0
3,187,547.262094216421,1,0,512691.651084415,512692.698167247,0,4,8,1,1,18,7,7281241,5321281,8121390,0,0,0,0,0,1080200,3060021,0,0,3141020,0,0,0,3120191,0,0,0,0,-2201090,0,0,0,2020070,0,0,0,3040140,3061180,0,0,0,0,0,0,0,0,0
3,188,1284.17221631389,0,0,512694.2511273,512695.298201662,0,4,8,1,0,25,7,6381512,9202432,2031181,0,1150151,0,0,0,1030130,0,2061031,2140200,0,0,0,4011050,4130191,0,0,0,1061191,0,0,0,0,0,0,0,-2031181,0,0,0,0,0,0,0,0,0,0,0
3,189,1434.5986006665,1,0,512697.78059579,512698.827669767,0,4,8,0,1,4,7,4240381,4281232,9222381,3141081,0,0,0,-1040181,0,0,0,0,3200200,0,0,0,0,0,0,1180131,0,3101101,0,3170100,0,0,3031120,0,3021161,0,0,0,0,0,0,0,0,0,3141081,0
3,190,639.99415730359,0,0,512701.404219934,512702.4512635,0,4,8,0,0,5,3,3211352,2101121,0,0,0,0,0,0,-2110151,0,0,0,1101201,0,0,1040091,0,0,0,1061030,0,0,0,0,0,0,0,0,0,0,0,0,0,0,0,0,0,0,0,0
3,191,593.328240036499,1,0,512704.22775777,512705.274819044,0,4,8,1,1,19,3,0,6282171,4311181,0,0,0,0,0,0,0,0,0,0,0,0,0,0,0,2171101,4111070,0,0,-3161020,0,1150161,0,0,0,0,0,0,0,0,0,0,0,0,0,0,0
3,192,672.714810061734,0,0,512706.992499137,512708.039556946,0,4,8,1,0,36,3,0,8233372,0,4171041,0,0,0,0,0,0,0,0,0,0,0,0,1091081,3021101,0,4121190,0,0,0,0,0,0,0,0,0,0,0,0,0,0,0,0,0,0,0,-4171041
3,193,530.641340767033,0,0,512725.969245095,512727.016320998,0,4,9,1,0,36,3,0,8233372,0,4171041,0,0,0,0,0,0,0,0,0,0,0,0,1091081,3021101,0,4121190,0,0,0,0,0,0,0,0,0,0,0,0,0,0,0,0,0,0,0,-4171041
3,194,420.139026362449,1,1,512728.581056282,512729.628119096,0,4,9,0,0,23,3,1111130,0,4261191,4120201,0,0,0,1111130,0,0,0,0,0,0,0,0,0,0,0,0,0,0,0,0,2181130,0,-2080061,0,0,0,0,0,0,0,4120201,0,0,0,0,0
3,195,501.34069431806,0,0,512731.051685188,512732.098749926,0,4,9,1,0,17,3,3212050,2160070,0,3201121,0,2111030,0,0,0,0,0,1101020,0,0,0,0,0,0,0,0,-2160070,0,0,0,0,0,0,0,0,0,0,0,3201121,0,0,0,0,0,0,0
3,196,973.083681077696,1,0,512733.745839456,512734.792911508,0,4,9,1,1,2,7,8262392,4523342,2170130,0,1081030,-2030140,0,0,0,2140191,3011031,0,0,1141060,0,2181121,1201161,0,0,0,0,0,0,0,0,2170130,0,0,0,0,0,0,0,0,0,0,0,0,0,0
3,197,995.716008066665,0,0,512736.781179778,512737.82825414,0,4,9,1,0,32,7,6512402,2212241,2091290,4110140,0,0,1191101,1151180,0,4170121,0,0,0,0,0,1121091,0,0,1091150,0,0,0,0,0,1081150,0,0,0,0,1010140,0,0,0,0,0,-4110140,0,0,0,0
3,198,1054.02203474659,0,0,512739.94593177,512740.993004207,0,4,9,1,0,34,3,4080030,0,3191190,6121202,0,0,0,0,4080030,0,0,0,0,0,0,0,0,0,0,0,0,0,3191190,0,0,0,0,0,0,0,0,0,0,0,0,3021101,0,-3100101,0,0
3,199,668.288126878906,1,0,512743.110696465,512744.157758509,0,4,9,0,1,6,3,7301352,0,2081191,0,0,0,3060101,0,0,-1101051,3140200,0,0,0,0,0,0,0,0,0,0,0,0,0,0,0,0,0,2081191,0,0,0,0,0,0,0,0,0,0,0
3,200,1194.43169631995,0,0,512745.875432828,512746.922497566,0,4,9,0,0,26,7,1201030,3170030,10542344,4080090,0,0,0,0,0,1201030,0,0,0,0,0,0,0,3170030,0,0,0,0,0,2050130,4200021,0,0,0,1100171,-2161011,1031011,0,0,0,4080090,0,0,0,0,0
3,201,549.353595182765,1,0,512749.228427989,512750.275493883,0,4,9,0,1,9,3,3190100,5350290,2020100,0,0,0,0,0,0,0,0,0,-3190100,0,0,0,2160150,0,3190140,0,0,0,0,0,0,2020100,0,0,0,0,0,0,0,0,0,0,0,0,0,0
3,202,1472.67600585474,1,0,512751.840229937,512752.887297755,0,4,9,0,1,7,7,3400372,4100101,0,6490662,0,1130070,0,0,0,0,-1160131,0,1110171,0,0,0,4100101,0,0,0,0,0,0,0,0,0,0,0,0,0,0,1200181,0,2100110,1090201,0,0,2100170,0,0
3,203,672.390671737958,1,0,512755.475572723,512756.522640926,0,4,9,1,1,24,7,5151220,3110272,5201160,3210172,4090180,0,1061040,0,0,0,0,0,0,0,0,0,0,1090091,2020181,0,0,0,0,0,0,0,2061110,-3140050,0,0,0,0,0,0,0,2150121,1060051,0,0,0
3,204,811.410233960487,1,0,512758.240322944,512759.287379213,0,4,9,0,1,35,7,5362272,7161141,4140161,2292221,0,1061161,0,2191051,0,2110060,0,0,0,0,0,0,0,0,3040110,4121031,0,0,0,0,0,0,4140161,0,0,0,0,0,0,0,0,1191191,0,0,-1101030,0
3,205,564.003725943621,1,0,512761.122716533,512762.169782811,0,4,9,0,1,14,7,4101171,3250252,4240180,4170211,0,0,0,1081040,0,3020131,0,0,0,1180091,0,0,0,-2070161,0,0,0,0,0,0,0,0,0,2100120,0,2140060,0,0,0,0,1120050,0,3050161,0,0,0
3,206,818.254481186159,0,0,512763.934522638,512764.98159931,0,4,9,1,0,18,7,7281241,5321281,8121390,0,0,0,0,0,1080200,3060021,0,0,3141020,0,0,0,3120191,0,0,0,0,-2201090,0,0,0,2020070,0,0,0,3040140,3061180,0,0,0,0,0,0,0,0,0
3,207,937.909277738072,0,0,512766.922836333,512767.969869504,0,4,9,1,0,20,3,3040091,0,7221160,0,2030020,0,0,1010071,0,0,0,0,0,0,0,0,0,0,0,0,0,0,0,-3110020,0,0,4111140,0,0,0,0,0,0,0,0,0,0,0,0,0
3,208,976.612631755415,0,0,512770.052262631,512771.099333144,0,4,9,1,0,12,3,2181070,2161031,0,2171202,2181070,0,0,0,0,0,0,0,0,0,0,-2161031,0,0,0,0,0,0,0,0,0,0,0,0,0,0,0,0,0,1040181,0,0,0,1131021,0,0
3,209,676.060903642792,0,0,512773.134664612,512774.18172935,0,4,9,0,0,5,3,4101131,3101100,3110140,0,1041111,0,0,0,-3060020,0,0,0,0,0,0,3101100,0,0,0,0,0,0,0,3110140,0,0,0,0,0,0,0,0,0,0,0,0,0,0,0,0
3,210,1441.7346494738,0,0,512776.017053581,512777.064125249,0,4,9,0,0,29,7,8372291,5301191,1181030,3130221,3131061,0,0,0,0,0,2161150,0,3080080,0,1180170,0,0,0,4121021,0,0,0,0,0,0,0,1181030,0,0,0,0,0,-1030040,0,0,0,0,0,2100181,0
3,211,615.599472250324,1,0,512779.523002791,512780.570064064,0,4,9,0,1,10,3,2170201,4050191,2060180,4141200,0,0,0,0,0,0,2170201,0,0,-4050191,0,0,0,0,0,0,0,0,0,0,0,2060180,0,0,0,0,0,0,0,0,4141200,0,0,0,0,0
3,212,691.798938205466,1,0,512782.381906741,512783.428927209,0,4,9,0,1,13,7,2140131,15462633,3321131,0,0,0,0,0,0,0,0,2140131,0,3131180,0,2020120,-4041201,0,0,2130081,4140051,0,0,0,0,0,0,0,1150111,0,2171020,0,0,0,0,0,0,0,0,0
3,213,708.297273667995,1,0,512785.252486602,512786.29955442,0,4,9,1,1,27,7,6190232,2140171,8321121,5301201,0,3130181,0,0,0,0,3060051,0,0,0,0,2140171,0,0,0,0,0,0,0,0,0,3041021,2150030,0,0,0,-3130070,0,3140100,0,0,0,0,0,2161101,0
3,214,657.19504916342,1,0,512788.111353211,512789.158426419,0,4,9,0,1,4,3,2020071,4191141,4071120,2130151,0,0,0,-2020071,0,0,0,0,0,4191141,0,0,0,0,0,0,0,0,0,0,0,0,0,4071120,0,0,0,0,2130151,0,0,0,0,0,0,0
3,215,529.542657954153,0,0,512790.981986197,512792.029043621,0,4,9,1,0,19,3,0,6282171,4311181,0,0,0,0,0,0,0,0,0,0,0,0,0,0,0,2171101,4111070,0,0,-3161020,0,1150161,0,0,0,0,0,0,0,0,0,0,0,0,0,0,0
3,216,1098.55410520686,1,0,512793.676142775,512794.723217138,0,4,9,1,1,25,7,6381512,9202432,2031181,0,1150151,0,0,0,1030130,0,2061031,2140200,0,0,0,4011050,4130191,0,0,0,1061191,0,0,0,0,0,0,0,-2031181,0,0,0,0,0,0,0,0,0,0,0
3,217,585.492714424618,1,0,512818.005913538,512819.0529879,0,4,10,0,1,29,7,0,4321231,12181441,8390360,0,0,0,0,0,0,0,0,0,0,0,0,0,0,0,3201110,0,1120121,4051200,0,4040171,0,4090070,0,0,0,0,0,-2170110,0,2040100,0,0,4180150,0,0
3,218,520.982248068322,1,0,512820.782433601,512821.829492565,0,4,10,0,1,10,3,1171140,2171071,0,4141152,0,0,1171140,0,0,0,0,0,0,-2171071,0,0,0,0,0,0,0,0,0,0,0,0,0,0,0,0,0,0,0,3061111,0,0,0,1080041,0,0
3,219,681.641704111826,1,0,512823.51193589,512824.558963287,0,4,10,1,1,34,3,4080030,0,3191190,6121202,0,0,0,0,4080030,0,0,0,0,0,0,0,0,0,0,0,0,0,3191190,0,0,0,0,0,0,0,0,0,0,0,0,3021101,0,-3100101,0,0
3,220,1302.55378794391,0,0,512826.264860835,512827.311928268,0,4,10,0,0,6,7,9451472,2171212,0,3150191,0,4170061,0,0,3151170,-1080040,1050201,0,0,1121161,0,0,0,1050051,0,0,0,0,0,0,0,0,0,0,0,0,0,1100120,0,0,0,0,0,0,2050071,0
3,221,764.89945652429,0,0,512829.782565643,512830.829630381,0,4,10,1,0,20,3,3040091,0,7221160,0,2030020,0,0,1010071,0,0,0,0,0,0,0,0,0,0,0,0,0,0,0,-3110020,0,0,4111140,0,0,0,0,0,0,0,0,0,0,0,0,0
3,222,725.549750495702,1,0,512832.676728303,512833.723797276,0,4,10,0,1,26,7,2100330,4261100,5341132,5341181,0,1020170,0,0,0,0,0,1080160,0,1201080,0,0,0,0,0,0,0,3060020,1160111,0,0,0,0,0,0,-4181021,0,0,0,0,4150080,0,0,0,0,1191101
3,223,729.798196000047,0,0,512835.629709375,512836.676766415,0,4,10,0,0,23,7,6430280,7241031,12342351,0,2170100,0,0,0,1180040,3080140,0,0,0,4071021,0,3170010,0,0,0,0,0,0,0,0,0,0,-4111030,4060131,4171190,0,0,0,0,0,0,0,0,0,0,0
3,224,464.433959918097,0,0,512838.476813457,512839.523875501,0,4,10,1,0,27,7,6190232,2140171,8321121,5301201,0,3130181,0,0,0,0,3060051,0,0,0,0,2140171,0,0,0,0,0,0,0,0,0,3041021,2150030,0,0,0,-3130070,0,3140100,0,0,0,0,0,2161101,0
3,225,701.105790270958,0,0,512841.112143924,512842.159208662,0,4,10,1,0,36,3,0,8233372,0,4171041,0,0,0,0,0,0,0,0,0,0,0,0,1091081,3021101,0,4121190,0,0,0,0,0,0,0,0,0,0,0,0,0,0,0,0,0,0,0,-4171041
3,226,814.568850793876,1,0,512843.982771521,512845.029844343,0,4,10,1,1,12,3,2181070,2161031,0,2171202,2181070,0,0,0,0,0,0,0,0,0,0,-2161031,0,0,0,0,0,0,0,0,0,0,0,0,0,0,0,0,0,1040181,0,0,0,1131021,0,0
3,227,530.435770808253,0,0,512846.982818101,512848.029892464,0,4,10,1,0,17,3,3212050,2160070,0,3201121,0,2111030,0,0,0,0,0,1101020,0,0,0,0,0,0,0,0,-2160070,0,0,0,0,0,0,0,0,0,0,0,3201121,0,0,0,0,0,0,0
3,228,535.876829992048,0,0,512849.606391045,512850.653485041,0,4,10,1,0,24,7,5151220,3110272,5201160,3210172,4090180,0,1061040,0,0,0,0,0,0,0,0,0,0,1090091,2020181,0,0,0,0,0,0,0,2061110,-3140050,0,0,0,0,0,0,0,2150121,1060051,0,0,0
3,229,507.114361040294,0,0,512852.218194533,512853.265258501,0,4,10,0,0,9,3,8181192,0,0,2191181,0,0,0,4131031,0,0,0,0,-4050161,0,0,0,0,0,0,0,0,0,0,0,0,0,0,0,0,0,0,1081120,1110061,0,0,0,0,0,0,0
3,230,1049.60767040029,1,0,512854.947646777,512855.994711516,0,4,10,0,1,13,3,4131031,5142351,2161170,0,0,0,4131031,0,0,0,0,0,0,0,0,0,-1031161,0,4111190,0,0,0,0,0,0,0,0,0,2161170,0,0,0,0,0,0,0,0,0,0,0
3,231,972.185178718064,1,0,512858.124157832,512859.171222955,0,4,10,1,1,25,7,6381512,9202432,2031181,0,1150151,0,0,0,1030130,0,2061031,2140200,0,0,0,4011050,4130191,0,0,0,1061191,0,0,0,0,0,0,0,-2031181,0,0,0,0,0,0,0,0,0,0,0
3,232,649.444985261653,0,0,512861.300675816,512862.347751333,0,4,10,1,0,18,7,7281241,5321281,8121390,0,0,0,0,0,1080200,3060021,0,0,3141020,0,0,0,3120191,0,0,0,0,-2201090,0,0,0,2020070,0,0,0,3040140,3061180,0,0,0,0,0,0,0,0,0
3,233,814.564231201075,1,0,512864.159543195,512865.206614863,0,4,10,1,1,2,7,8262392,4523342,2170130,0,1081030,-2030140,0,0,0,2140191,3011031,0,0,1141060,0,2181121,1201161,0,0,0,0,0,0,0,0,2170130,0,0,0,0,0,0,0,0,0,0,0,0,0,0
3,234,481.042009661905,1,0,512867.183142932,512868.230183418,0,4,10,0,1,4,3,5122142,0,4021080,2170120,0,0,1081021,-4041121,0,0,0,0,0,0,0,0,0,0,0,0,0,0,0,4021080,0,0,0,0,0,0,0,0,0,2170120,0,0,0,0,0,0
3,235,707.655541249551,0,0,512869.759626116,512870.806700863,0,4,10,0,0,5,7,1011081,6481182,6362202,3261061,0,0,0,0,-1011081,0,0,0,0,0,0,2201031,1150131,0,0,3130020,0,0,0,3181031,0,0,0,0,3181171,0,0,0,2090031,1171030,0,0,0,0,0,0
3,236,597.779560717754,0,0,512872.677365801,512873.724392043,0,4,10,0,0,14,7,4021110,4261241,7352241,8252410,0,0,0,0,0,4021110,0,0,0,0,0,0,0,-3140140,0,1121101,0,0,0,0,0,0,0,0,3181101,4171140,0,0,0,0,0,0,3041150,1040160,4171100,0
3,237,624.241494107991,1,0,512875.40677031,512876.453841593,0,4,10,0,1,7,3,2332162,2190101,0,2011060,0,0,0,1171101,0,0,-1161061,0,0,2190101,0,0,0,0,0,0,0,0,0,0,0,0,0,0,0,0,0,0,0,0,0,0,2011060,0,0,0
3,238,1494.66698541073,1,0,512878.171505518,512879.218592199,0,4,10,1,1,32,7,6512402,2212241,2091290,4110140,0,0,1191101,1151180,0,4170121,0,0,0,0,0,1121091,0,0,1091150,0,0,0,0,0,1081150,0,0,0,0,1010140,0,0,0,0,0,-4110140,0,0,0,0
3,239,686.411773785949,0,0,512881.818631234,512882.865704442,0,4,10,0,0,35,3,0,3261270,1131200,2090170,0,0,0,0,0,0,0,0,0,0,0,2160160,0,0,0,1101110,0,0,0,0,0,0,0,0,0,0,1131200,0,0,0,0,0,0,0,-2090170,0
3,240,595.511362073012,0,0,512884.677512472,512885.724574515,0,4,10,1,0,19,3,0,6282171,4311181,0,0,0,0,0,0,0,0,0,0,0,0,0,0,0,2171101,4111070,0,0,-3161020,0,1150161,0,0,0,0,0,0,0,0,0,0,0,0,0,0,0
3,241,616.353998600971,0,0,512896.771780535,512897.818850278,0,4,11,0,0,4,3,2040070,1020131,1120191,1130121,0,0,0,-2040070,0,0,0,0,0,0,0,0,0,0,0,0,1020131,0,0,0,0,0,0,0,0,1120191,0,0,0,0,0,1130121,0,0,0,0
3,242,578.457910800353,0,0,512899.489487191,512900.536555009,0,4,11,1,0,17,3,3212050,2160070,0,3201121,0,2111030,0,0,0,0,0,1101020,0,0,0,0,0,0,0,0,-2160070,0,0,0,0,0,0,0,0,0,0,0,3201121,0,0,0,0,0,0,0
3,243,574.550157005433,1,0,512902.195392822,512903.242479119,0,4,11,0,1,13,7,6271150,4523282,1121071,1061051,2060010,0,0,0,0,2151060,2060080,0,0,0,1201031,2161151,-1161100,0,0,0,0,0,0,1121071,0,0,0,0,0,0,0,0,1061051,0,0,0,0,0,0,0
3,244,1501.07314542402,1,0,512904.830735608,512905.877803811,0,4,11,0,1,7,7,4121230,2051090,13554403,2200010,0,0,0,0,0,0,-1041190,0,3080040,0,0,0,2051090,0,0,0,0,0,3131021,0,0,0,3151201,4101101,0,0,3171080,0,0,0,0,2200010,0,0,0,0
3,245,644.197947171051,0,0,512908.477851316,512909.524918364,0,4,11,1,0,19,3,0,6282171,4311181,0,0,0,0,0,0,0,0,0,0,0,0,0,0,0,2171101,4111070,0,0,-3161020,0,1150161,0,0,0,0,0,0,0,0,0,0,0,0,0,0,0
3,246,585.575096367393,1,0,512911.30145113,512912.348495081,0,4,11,1,1,24,7,5151220,3110272,5201160,3210172,4090180,0,1061040,0,0,0,0,0,0,0,0,0,0,1090091,2020181,0,0,0,0,0,0,0,2061110,-3140050,0,0,0,0,0,0,0,2150121,1060051,0,0,0
3,247,661.316842073575,0,0,512914.042642805,512915.089704463,0,4,11,1,0,18,7,7281241,5321281,8121390,0,0,0,0,0,1080200,3060021,0,0,3141020,0,0,0,3120191,0,0,0,0,-2201090,0,0,0,2020070,0,0,0,3040140,3061180,0,0,0,0,0,0,0,0,0
3,248,559.880778193474,1,0,512916.772098514,512917.819169797,0,4,11,1,1,34,3,4080030,0,3191190,6121202,0,0,0,0,4080030,0,0,0,0,0,0,0,0,0,0,0,0,0,3191190,0,0,0,0,0,0,0,0,0,0,0,0,3021101,0,-3100101,0,0
3,249,489.915009005927,0,0,512919.53689955,512920.583903464,0,4,11,0,0,23,3,5271222,0,6160210,0,3150041,0,0,0,0,0,0,2121181,0,0,0,0,0,0,0,0,0,0,0,2150090,0,0,-4010120,0,0,0,0,0,0,0,0,0,0,0,0,0
3,250,498.990498599596,0,0,512922.183934415,512923.231048044,0,4,11,0,0,10,3,2091010,6221361,1081140,0,0,0,0,0,0,0,0,0,2091010,-4090171,0,0,0,0,0,2131190,0,0,0,0,1081140,0,0,0,0,0,0,0,0,0,0,0,0,0,0,0
3,251,877.471329004038,1,0,512924.819269887,512925.866340015,0,4,11,0,1,5,7,7273302,4131031,9393321,0,0,2071201,0,4041021,-1161080,0,0,0,0,0,0,0,0,0,0,0,4131031,0,0,0,3141020,1111031,3061090,0,0,2080180,0,0,0,0,0,0,0,0,0,0
3,252,1433.01024561515,1,0,512927.936964455,512928.984040742,0,4,11,1,1,32,7,6512402,2212241,2091290,4110140,0,0,1191101,1151180,0,4170121,0,0,0,0,0,1121091,0,0,1091150,0,0,0,0,0,1081150,0,0,0,0,1010140,0,0,0,0,0,-4110140,0,0,0,0
3,253,537.641497794539,0,0,512931.58387644,512932.631141821,0,4,11,0,0,29,3,0,4030191,0,4280292,0,0,0,0,0,0,0,0,0,0,4030191,0,0,0,0,0,0,0,0,0,0,0,0,0,0,0,0,0,-1070041,0,2080091,0,0,1130160,0,0
3,254,472.787260019686,0,1,512934.195883649,512935.24297495,0,4,11,1,1,27,7,6190232,2140171,8321121,5301201,0,3130181,0,0,0,0,3060051,0,0,0,0,2140171,0,0,0,0,0,0,0,0,0,3041021,2150030,0,0,0,-3130070,0,3140100,0,0,0,0,0,2161101,0
3,255,767.732780135702,1,0,512936.737094649,512937.784162082,0,4,11,1,1,25,7,6381512,9202432,2031181,0,1150151,0,0,0,1030130,0,2061031,2140200,0,0,0,4011050,4130191,0,0,0,1061191,0,0,0,0,0,0,0,-2031181,0,0,0,0,0,0,0,0,0,0,0
3,256,586.959036416374,0,0,512939.607734949,512940.654800458,0,4,11,1,0,20,3,3040091,0,7221160,0,2030020,0,0,1010071,0,0,0,0,0,0,0,0,0,0,0,0,0,0,0,-3110020,0,0,4111140,0,0,0,0,0,0,0,0,0,0,0,0,0
3,257,1204.96195903979,0,0,512942.313645201,512943.360710324,0,4,11,0,0,6,7,2171180,4121090,7373141,6493281,0,0,0,0,0,-2171180,0,0,0,0,0,0,0,0,4121090,0,0,0,0,0,0,0,1191070,3151011,0,0,3031060,1171120,2131050,0,0,0,3191111,0,0,0
3,258,1710.47269640258,0,0,512945.643110688,512946.690177736,0,4,11,0,0,9,7,8212521,7201172,0,3212341,0,0,1031031,0,0,0,3090140,1040170,-3051180,0,0,0,3110091,0,4091081,0,0,0,0,0,0,0,0,0,0,0,0,0,0,0,1201181,0,0,2011160,0,0
3,259,637.344075832516,1,0,512949.584380433,512950.631415529,0,4,11,0,1,26,7,6292161,8140230,9221293,1190200,0,0,0,0,0,4121061,2171100,0,0,0,0,4010160,4130070,0,0,0,0,0,0,0,0,4101121,0,0,4050121,-1070051,0,0,0,0,0,0,1190200,0,0,0
3,260,1138.81732709706,1,0,512952.360864309,512953.407932897,0,4,11,1,1,12,3,2181070,2161031,0,2171202,2181070,0,0,0,0,0,0,0,0,0,0,-2161031,0,0,0,0,0,0,0,0,0,0,0,0,0,0,0,0,0,1040181,0,0,0,1131021,0,0
3,261,958.790025557391,0,0,512955.666796657,512956.713847537,0,4,11,0,0,35,3,8261391,3091151,0,4021131,0,0,4181201,0,4080190,0,0,0,0,3091151,0,0,0,0,0,0,0,0,0,0,0,0,0,0,0,0,0,0,0,0,0,0,0,0,-4021131,0
3,262,567.839491646737,0,0,512958.866833537,512959.913948705,0,4,11,1,0,36,3,0,8233372,0,4171041,0,0,0,0,0,0,0,0,0,0,0,0,1091081,3021101,0,4121190,0,0,0,0,0,0,0,0,0,0,0,0,0,0,0,0,0,0,0,-4171041
3,263,517.507962067612,1,0,512961.549225662,512962.596285781,0,4,11,0,1,14,3,2030190,7152351,0,0,0,0,2030190,0,0,0,0,0,0,0,2011020,2121170,0,-3020161,0,0,0,0,0,0,0,0,0,0,0,0,0,0,0,0,0,0,0,0,0,0
3,264,798.157131881453,1,0,512964.29043312,512965.337500553,0,4,11,1,1,2,7,8262392,4523342,2170130,0,1081030,-2030140,0,0,0,2140191,3011031,0,0,1141060,0,2181121,1201161,0,0,0,0,0,0,0,0,2170130,0,0,0,0,0,0,0,0,0,0,0,0,0,0
3,265,1105.03263812279,1,0,512987.314308876,512988.361385933,0,4,12,0,1,14,7,2332091,5091221,7151042,7161211,0,1181031,0,0,0,0,0,0,1151060,0,2011201,0,0,-3080020,0,0,0,0,4120011,0,3031031,0,0,0,0,0,0,4021131,0,0,0,0,0,0,0,3140080
3,266,495.838041126262,0,0,512990.596723869,512991.643787837,0,4,12,1,0,20,3,3040091,0,7221160,0,2030020,0,0,1010071,0,0,0,0,0,0,0,0,0,0,0,0,0,0,0,-3110020,0,0,4111140,0,0,0,0,0,0,0,0,0,0,0,0,0
3,267,608.682467020117,1,0,512993.243818403,512994.290884296,0,4,12,1,1,34,3,4080030,0,3191190,6121202,0,0,0,0,4080030,0,0,0,0,0,0,0,0,0,0,0,0,0,3191190,0,0,0,0,0,0,0,0,0,0,0,0,3021101,0,-3100101,0,0
3,268,921.008271572646,0,0,512995.973264488,512997.020336541,0,4,12,0,0,5,7,7160330,5282340,2101071,4160211,2010090,0,0,0,-4050170,0,0,0,1100070,2181190,3101150,0,0,0,0,0,0,0,0,0,0,0,0,2101071,0,0,0,0,0,2090100,0,0,2070111,0,0,0
3,269,569.082535395864,0,0,512999.126258187,513000.173321771,0,4,12,0,0,9,3,7322312,0,0,1191081,0,0,0,0,2051170,0,0,3111051,-2160091,0,0,0,0,0,0,0,0,0,0,0,0,0,0,0,0,0,0,0,0,0,1191081,0,0,0,0,0
3,270,478.35535678314,0,0,513001.890997244,513002.938062368,0,4,12,0,0,13,3,0,4372320,3181020,0,0,0,0,0,0,0,0,0,0,0,1161120,2051090,-1160110,0,0,0,0,0,3181020,0,0,0,0,0,0,0,0,0,0,0,0,0,0,0,0,0
3,271,616.509523417335,1,0,513004.443983475,513005.491051678,0,4,12,1,1,2,7,8262392,4523342,2170130,0,1081030,-2030140,0,0,0,2140191,3011031,0,0,1141060,0,2181121,1201161,0,0,0,0,0,0,0,0,2170130,0,0,0,0,0,0,0,0,0,0,0,0,0,0
3,272,758.652670949232,0,0,513007.161667033,513008.208732156,0,4,12,1,0,18,7,7281241,5321281,8121390,0,0,0,0,0,1080200,3060021,0,0,3141020,0,0,0,3120191,0,0,0,0,-2201090,0,0,0,2020070,0,0,0,3040140,3061180,0,0,0,0,0,0,0,0,0
3,273,684.423827740829,1,0,513010.055826998,513011.102894047,0,4,12,0,1,4,7,13451381,5362240,4131150,2061141,0,0,0,-4181090,0,0,2170091,4020050,3080150,0,1201110,0,0,4161130,0,0,0,0,0,0,0,0,0,0,0,0,4131150,0,0,0,0,0,0,2061141,0,0
3,274,890.422235534061,0,0,513012.797049855,513013.844103044,0,4,12,0,0,35,7,10314372,6221321,2181160,1130041,0,1161170,0,3031121,0,3051071,0,3071010,0,3161130,0,0,0,0,0,3060191,0,0,0,0,0,0,2181160,0,0,0,0,0,0,0,0,0,0,0,-1130041,0
3,275,598.335061571561,0,0,513015.855914462,513016.90298536,0,4,12,0,0,7,3,9331392,0,1061051,0,0,0,2070160,0,0,0,-4181081,3080151,0,0,0,0,0,0,0,0,0,0,0,1061051,0,0,0,0,0,0,0,0,0,0,0,0,0,0,0,0
3,276,1159.8131787614,1,0,513018.679505807,513019.726594028,0,4,12,1,1,32,7,6512402,2212241,2091290,4110140,0,0,1191101,1151180,0,4170121,0,0,0,0,0,1121091,0,0,1091150,0,0,0,0,0,1081150,0,0,0,0,1010140,0,0,0,0,0,-4110140,0,0,0,0
3,277,485.641540959477,1,0,513022.032480566,513023.07954184,0,4,12,0,1,10,3,0,6100140,1150061,2110131,0,0,0,0,0,0,0,0,0,-4070120,0,0,0,0,0,0,2030020,0,0,0,0,0,0,0,0,0,1150061,0,0,0,0,0,2110131,0,0,0
3,278,695.71439124411,1,0,513024.585459867,513025.632560407,0,4,12,1,1,25,7,6381512,9202432,2031181,0,1150151,0,0,0,1030130,0,2061031,2140200,0,0,0,4011050,4130191,0,0,0,1061191,0,0,0,0,0,0,0,-2031181,0,0,0,0,0,0,0,0,0,0,0
3,279,600.462363974657,1,0,513027.373735143,513028.420803346,0,4,12,0,1,23,3,3060091,2181161,5371212,0,3060091,0,0,0,0,0,0,0,0,0,0,2181161,0,0,0,0,0,0,0,0,2190191,0,-3181021,0,0,0,0,0,0,0,0,0,0,0,0,0
3,280,727.402574731968,0,0,513030.067889412,513031.114958,0,4,12,1,0,24,7,5151220,3110272,5201160,3210172,4090180,0,1061040,0,0,0,0,0,0,0,0,0,0,1090091,2020181,0,0,0,0,0,0,0,2061110,-3140050,0,0,0,0,0,0,0,2150121,1060051,0,0,0
3,281,993.229920626618,0,0,513033.009109111,513034.056179624,0,4,12,0,0,6,7,8532483,0,8321482,1090131,0,0,1160101,1161081,0,-2040111,0,4171190,0,0,0,0,0,0,0,0,0,0,0,0,0,0,0,0,4090090,3091201,1140191,0,0,1090131,0,0,0,0,0,0
3,282,852.359843906015,1,0,513036.220926996,513037.2679875,0,4,12,0,1,29,7,6181332,1190050,8031241,9542322,0,0,0,0,2080141,0,4101191,0,0,1190050,0,0,0,0,0,0,0,0,0,0,4020070,0,4011171,0,0,0,0,0,-2201031,4180140,0,0,0,0,0,3161151
3,283,488.517980324104,1,0,513039.244495937,513040.291566065,0,4,12,1,1,27,7,6190232,2140171,8321121,5301201,0,3130181,0,0,0,0,3060051,0,0,0,0,2140171,0,0,0,0,0,0,0,0,0,3041021,2150030,0,0,0,-3130070,0,3140100,0,0,0,0,0,2161101,0
3,284,800.975441932678,1,0,513041.80924431,513042.856325987,0,4,12,1,1,12,3,2181070,2161031,0,2171202,2181070,0,0,0,0,0,0,0,0,0,0,-2161031,0,0,0,0,0,0,0,0,0,0,0,0,0,0,0,0,0,1040181,0,0,0,1131021,0,0
3,285,477.36869804794,1,0,513044.785752362,513045.83282403,0,4,12,0,1,26,3,0,0,8450331,2081191,0,0,0,0,0,0,0,0,0,0,0,0,0,0,0,0,0,0,0,0,0,3110151,1160010,0,0,-4180170,0,0,0,0,0,0,0,0,2081191,0
3,286,574.147871288005,0,0,513047.47991048,513048.526979453,0,4,12,1,0,36,3,0,8233372,0,4171041,0,0,0,0,0,0,0,0,0,0,0,0,1091081,3021101,0,4121190,0,0,0,0,0,0,0,0,0,0,0,0,0,0,0,0,0,0,0,-4171041
3,287,461.701496504247,1,0,513050.256425538,513051.303495666,0,4,12,1,1,17,3,3212050,2160070,0,3201121,0,2111030,0,0,0,0,0,1101020,0,0,0,0,0,0,0,0,-2160070,0,0,0,0,0,0,0,0,0,0,0,3201121,0,0,0,0,0,0,0
3,288,723.301184887532,0,0,513052.797636537,513053.844705125,0,4,12,1,0,19,3,0,6282171,4311181,0,0,0,0,0,0,0,0,0,0,0,0,0,0,0,2171101,4111070,0,0,-3161020,0,1150161,0,0,0,0,0,0,0,0,0,0,0,0,0,0,0
3,289,545.133636856917,1,0,513067.397849191,513068.444924323,0,4,13,1,1,34,3,4080030,0,3191190,6121202,0,0,0,0,4080030,0,0,0,0,0,0,0,0,0,0,0,0,0,3191190,0,0,0,0,0,0,0,0,0,0,0,0,3021101,0,-3100101,0,0
3,290,438.357758917846,1,1,513070.056715877,513071.103783695,0,4,13,0,0,9,3,9282422,1010170,0,0,0,4131111,0,0,0,0,4131200,0,-1020111,0,0,0,0,1010170,0,0,0,0,0,0,0,0,0,0,0,0,0,0,0,0,0,0,0,0,0,0
3,291,741.724332503509,0,0,513072.633231782,513073.680296135,0,4,13,1,0,12,3,2181070,2161031,0,2171202,2181070,0,0,0,0,0,0,0,0,0,0,-2161031,0,0,0,0,0,0,0,0,0,0,0,0,0,0,0,0,0,1040181,0,0,0,1131021,0,0
3,292,688.589891302399,0,0,513075.574449172,513076.621521994,0,4,13,0,0,29,3,1151191,6211211,0,1150031,0,0,0,0,0,1151191,0,0,0,0,0,0,0,0,0,0,3070111,3141100,0,0,0,0,0,0,0,0,0,0,-1150031,0,0,0,0,0,0,0
3,293,548.131339426618,1,0,513078.350960765,513079.398013955,0,4,13,1,1,36,3,0,8233372,0,4171041,0,0,0,0,0,0,0,0,0,0,0,0,1091081,3021101,0,4121190,0,0,0,0,0,0,0,0,0,0,0,0,0,0,0,0,0,0,0,-4171041
3,294,987.761144118849,1,0,513081.092185161,513082.139247205,0,4,13,1,1,25,7,6381512,9202432,2031181,0,1150151,0,0,0,1030130,0,2061031,2140200,0,0,0,4011050,4130191,0,0,0,1061191,0,0,0,0,0,0,0,-2031181,0,0,0,0,0,0,0,0,0,0,0
3,295,577.262602397241,1,0,513084.31575826,513085.362819918,0,4,13,1,1,2,7,8262392,4523342,2170130,0,1081030,-2030140,0,0,0,2140191,3011031,0,0,1141060,0,2181121,1201161,0,0,0,0,0,0,0,0,2170130,0,0,0,0,0,0,0,0,0,0,0,0,0,0
3,296,530.240979802329,0,0,513086.974663827,513088.021702388,0,4,13,0,0,14,7,2141120,13393320,2270201,3130190,0,0,0,0,2141120,0,0,0,0,4151030,3031150,2191040,0,-4020100,0,0,0,0,1100150,0,0,0,0,1170051,0,0,0,0,0,0,3130190,0,0,0,0,0
3,297,818.416165478993,1,0,513089.586416499,513090.633477773,0,4,13,1,1,27,7,6190232,2140171,8321121,5301201,0,3130181,0,0,0,0,3060051,0,0,0,0,2140171,0,0,0,0,0,0,0,0,0,3041021,2150030,0,0,0,-3130070,0,3140100,0,0,0,0,0,2161101,0
3,298,937.914282199927,0,0,513092.515861352,513093.56292994,0,4,13,0,0,35,7,5181141,4272140,4211140,6291091,0,0,0,1161071,0,0,0,0,4020070,0,0,0,3181040,1091100,0,0,0,0,0,0,0,3031070,0,0,1180070,0,0,0,0,0,0,0,0,0,-3190050,3101041
3,299,506.430282781366,0,0,513095.539453391,513096.586533913,0,4,13,0,0,23,7,0,6473574,8350380,2051201,0,0,0,0,0,0,0,0,0,1040201,1131161,0,2121171,2181041,0,0,0,0,1170080,4050170,0,0,-3130130,0,0,0,0,0,0,0,0,0,0,2051201,0,0
3,300,642.769351543393,0,0,513098.115997398,513099.163032494,0,4,13,0,0,26,7,5351052,5230222,4130221,4222361,0,0,0,1151041,0,0,4200011,0,0,0,2080031,0,0,0,0,3150191,0,0,0,0,0,0,0,3050020,0,-1080201,0,2031201,0,0,0,0,0,0,0,2191160
3,301,865.886654239148,1,0,513100.821881857,513101.868968538,0,4,13,0,1,6,3,4100311,2160131,0,3040051,0,0,0,2070120,0,-2030191,0,0,0,0,0,0,0,2160131,0,0,0,0,0,0,0,0,0,0,0,0,0,0,0,0,0,0,0,0,3040051,0
3,302,554.530185181648,0,0,513103.763095397,513104.810174379,0,4,13,1,0,24,7,5151220,3110272,5201160,3210172,4090180,0,1061040,0,0,0,0,0,0,0,0,0,0,1090091,2020181,0,0,0,0,0,0,0,2061110,-3140050,0,0,0,0,0,0,0,2150121,1060051,0,0,0
3,303,905.704474600498,0,0,513106.421968628,513107.469062623,0,4,13,0,0,5,7,7573272,6182211,2280282,0,0,0,0,0,-3071020,0,2201041,1150110,1151101,4091031,2091180,0,0,0,0,0,0,0,1180111,0,0,0,0,0,1100171,0,0,0,0,0,0,0,0,0,0,0
3,304,443.373819580302,1,0,513109.445537568,513110.492608851,0,4,13,1,1,17,3,3212050,2160070,0,3201121,0,2111030,0,0,0,0,0,1101020,0,0,0,0,0,0,0,0,-2160070,0,0,0,0,0,0,0,0,0,0,0,3201121,0,0,0,0,0,0,0
3,305,463.230952329468,0,0,513111.998511865,513113.045592002,0,4,13,0,0,10,3,3091111,2141021,3040031,4140201,0,0,0,0,0,3091111,0,0,0,-2141021,0,0,0,0,0,0,0,0,0,0,0,0,0,0,3040031,0,0,0,0,0,0,4140201,0,0,0,0
3,306,669.698629295453,1,0,513114.680909765,513115.727977198,0,4,13,1,1,19,3,0,6282171,4311181,0,0,0,0,0,0,0,0,0,0,0,0,0,0,0,2171101,4111070,0,0,-3161020,0,1150161,0,0,0,0,0,0,0,0,0,0,0,0,0,0,0
3,307,689.664706413168,0,0,513117.52802963,513118.575087824,0,4,13,1,0,32,7,6512402,2212241,2091290,4110140,0,0,1191101,1151180,0,4170121,0,0,0,0,0,1121091,0,0,1091150,0,0,0,0,0,1081150,0,0,0,0,1010140,0,0,0,0,0,-4110140,0,0,0,0
3,308,520.910645078402,0,0,513120.445704257,513121.492829434,0,4,13,1,0,20,3,3040091,0,7221160,0,2030020,0,0,1010071,0,0,0,0,0,0,0,0,0,0,0,0,0,0,0,-3110020,0,0,4111140,0,0,0,0,0,0,0,0,0,0,0,0,0
3,309,734.305721300188,1,0,513123.22221739,513124.269274814,0,4,13,0,1,13,7,2160150,9272391,6151310,3150090,0,0,0,0,0,0,1130130,1030020,0,0,0,2141100,-4061151,0,0,0,3070140,0,0,2070120,0,0,4081190,0,0,0,0,3150090,0,0,0,0,0,0,0,0
3,310,467.763115186244,0,0,513126.045831064,513127.092850376,0,4,13,0,0,7,3,2040100,4321171,2021010,0,0,0,0,0,0,0,-2040100,0,0,0,1191140,0,0,0,3130031,0,0,0,0,0,0,0,0,0,0,2021010,0,0,0,0,0,0,0,0,0,0
3,311,873.839593317825,1,0,513128.587036289,513129.645883572,0,4,13,1,1,18,7,7281241,5321281,8121390,0,0,0,0,0,1080200,3060021,0,0,3141020,0,0,0,3120191,0,0,0,0,-2201090,0,0,0,2020070,0,0,0,3040140,3061180,0,0,0,0,0,0,0,0,0
3,312,625.976904819254,1,0,513131.70469005,513132.751783276,0,4,13,0,1,4,3,6131221,0,1190140,4071091,0,0,0,-2030200,0,0,4101021,0,0,0,0,0,0,0,0,0,0,0,0,0,0,0,0,0,1190140,0,0,0,0,0,0,0,0,4071091,0,0
3,313,519.522470538504,1,0,513138.245961104,513139.293030462,0,4,14,0,1,6,7,4401463,7281290,9322262,0,0,0,0,1121181,0,-2090091,0,1190191,0,4191160,0,0,3090130,0,0,0,0,0,4110041,2051060,0,3161161,0,0,0,0,0,0,0,0,0,0,0,0,0,0
3,314,910.458375816233,1,0,513140.846019772,513141.893074502,0,4,14,1,1,25,7,6381512,9202432,2031181,0,1150151,0,0,0,1030130,0,2061031,2140200,0,0,0,4011050,4130191,0,0,0,1061191,0,0,0,0,0,0,0,-2031181,0,0,0,0,0,0,0,0,0,0,0
3,315,611.64937261492,0,0,513143.857827725,513144.904904397,0,4,14,1,0,20,3,3040091,0,7221160,0,2030020,0,0,1010071,0,0,0,0,0,0,0,0,0,0,0,0,0,0,0,-3110020,0,0,4111140,0,0,0,0,0,0,0,0,0,0,0,0,0
3,316,1768.2289967197,1,0,513146.693156191,513147.740224009,0,4,14,1,1,24,7,5151220,3110272,5201160,3210172,4090180,0,1061040,0,0,0,0,0,0,0,0,0,0,1090091,2020181,0,0,0,0,0,0,0,2061110,-3140050,0,0,0,0,0,0,0,2150121,1060051,0,0,0
3,317,527.818411181215,0,0,513150.669666937,513151.71678942,0,4,14,0,0,9,7,4312391,3371160,2010180,4231302,1100191,0,2101110,0,0,0,0,0,-1111090,0,0,0,0,1180010,0,0,2191150,0,0,0,2010180,0,0,0,0,0,0,0,0,0,0,0,3130101,0,1101201,0
3,318,727.943831938319,1,0,513153.434419468,513154.481491906,0,4,14,1,1,18,7,7281241,5321281,8121390,0,0,0,0,0,1080200,3060021,0,0,3141020,0,0,0,3120191,0,0,0,0,-2201090,0,0,0,2020070,0,0,0,3040140,3061180,0,0,0,0,0,0,0,0,0
3,319,746.391232183669,1,0,513156.399168457,513157.44624128,0,4,14,1,1,27,7,6190232,2140171,8321121,5301201,0,3130181,0,0,0,0,3060051,0,0,0,0,2140171,0,0,0,0,0,0,0,0,0,3041021,2150030,0,0,0,-3130070,0,3140100,0,0,0,0,0,2161101,0
3,320,505.76853234088,1,0,513159.222781745,513160.26983147,0,4,14,1,1,36,3,0,8233372,0,4171041,0,0,0,0,0,0,0,0,0,0,0,0,1091081,3021101,0,4121190,0,0,0,0,0,0,0,0,0,0,0,0,0,0,0,0,0,0,0,-4171041
3,321,847.399217833299,0,0,513161.963963796,513163.011033154,0,4,14,1,0,2,7,8262392,4523342,2170130,0,1081030,-2030140,0,0,0,2140191,3011031,0,0,1141060,0,2181121,1201161,0,0,0,0,0,0,0,0,2170130,0,0,0,0,0,0,0,0,0,0,0,0,0,0
3,322,562.015394913033,0,0,513164.952242459,513165.999313742,0,4,14,0,0,10,3,0,5161222,2030121,4140071,0,0,0,0,0,0,0,0,0,-2080111,0,0,0,3081111,0,0,0,0,0,0,0,0,2030121,0,0,0,0,0,0,0,0,4140071,0,0,0,0
3,323,485.292379977182,1,0,513167.658168494,513168.705229768,0,4,14,0,1,14,7,3271142,3081020,3221260,7472412,0,0,0,0,1141051,0,0,2130091,0,0,0,0,0,-3081020,0,0,0,0,0,0,0,0,0,0,1180060,2041200,0,0,1141101,0,0,4150171,0,0,0,2181140
3,324,508.487137092743,0,0,513170.222910708,513171.26998199,0,4,14,0,0,23,3,2020071,0,4091211,1171110,0,0,2020071,0,0,0,0,0,0,0,0,0,0,0,0,0,0,0,2021080,0,0,0,-2070131,0,0,0,0,0,0,0,1171110,0,0,0,0,0
3,325,706.208467425313,1,0,513172.917069596,513173.964137414,0,4,14,1,1,12,3,2181070,2161031,0,2171202,2181070,0,0,0,0,0,0,0,0,0,0,-2161031,0,0,0,0,0,0,0,0,0,0,0,0,0,0,0,0,0,1040181,0,0,0,1131021,0,0
3,326,504.786878125742,0,0,513175.740640538,513176.787711051,0,4,14,1,0,19,3,0,6282171,4311181,0,0,0,0,0,0,0,0,0,0,0,0,0,0,0,2171101,4111070,0,0,-3161020,0,1150161,0,0,0,0,0,0,0,0,0,0,0,0,0,0,0
3,327,658.343007205985,1,0,513178.470096632,513179.517160216,0,4,14,0,1,13,7,3312251,10654443,0,3100101,0,0,0,0,2181131,0,0,1131120,0,1141011,0,0,-2161100,2161090,0,1011051,0,4180191,0,0,0,0,0,0,0,0,0,0,0,0,0,0,0,0,0,3100101
3,328,399.101983697619,1,0,513181.317241135,513182.364264682,0,4,14,1,1,17,3,3212050,2160070,0,3201121,0,2111030,0,0,0,0,0,1101020,0,0,0,0,0,0,0,0,-2160070,0,0,0,0,0,0,0,0,0,0,0,3201121,0,0,0,0,0,0,0
3,329,753.257037315052,0,0,513183.823115662,513184.870184635,0,4,14,0,0,5,7,6291251,6403432,2070190,5220311,0,0,0,0,-2180191,4111060,0,0,0,0,0,2131190,3111161,0,0,0,0,1161081,0,0,0,0,0,2070190,0,0,0,0,0,0,0,0,1060120,0,0,4160191
3,330,484.718016057741,1,1,513186.658438353,513187.705571999,0,4,14,0,0,4,7,7191282,5122190,6192182,2041010,0,4040010,0,-2020141,0,0,0,1131131,0,0,0,0,1091120,4031070,0,0,0,0,4151011,0,0,0,0,0,0,0,2041171,0,0,0,0,0,0,2041010,0,0
3,331,1268.04960420122,0,0,513189.270254929,513190.317320822,0,4,14,1,0,32,7,6512402,2212241,2091290,4110140,0,0,1191101,1151180,0,4170121,0,0,0,0,0,1121091,0,0,1091150,0,0,0,0,0,1081150,0,0,0,0,1010140,0,0,0,0,0,-4110140,0,0,0,0
3,332,1009.54193418147,0,0,513192.658526509,513193.705612805,0,4,14,0,0,26,3,4171181,0,4170141,1091051,0,0,1130161,0,0,0,0,0,3041020,0,0,0,0,0,0,0,0,0,0,0,0,0,0,0,0,-4170141,0,0,0,0,0,1091051,0,0,0,0
3,333,725.811139971484,0,0,513195.823296979,513196.870397134,0,4,14,0,0,35,3,0,5282280,0,2020131,0,0,0,0,0,0,0,0,0,0,0,0,3151040,0,1121080,0,1010160,0,0,0,0,0,0,0,0,0,0,0,0,0,0,0,0,0,-2020131,0
3,334,449.852737481706,1,0,513198.729233331,513199.776278051,0,4,14,0,1,29,3,1070060,0,2200030,3091072,0,0,0,0,1070060,0,0,0,0,0,0,0,0,0,0,0,0,0,0,0,0,0,0,0,2200030,0,0,0,-2020061,0,0,1071011,0,0,0,0
3,335,606.414653302636,0,0,513201.352782022,513202.399854075,0,4,14,0,0,7,3,3020040,7310081,0,1070021,0,0,0,0,0,0,-3020040,0,0,0,0,0,0,0,0,0,4180070,3130011,0,0,0,0,0,0,0,0,0,0,0,0,0,0,1070021,0,0,0
3,336,545.51282490138,1,0,513204.105772796,513205.152833684,0,4,14,1,1,34,3,4080030,0,3191190,6121202,0,0,0,0,4080030,0,0,0,0,0,0,0,0,0,0,0,0,0,3191190,0,0,0,0,0,0,0,0,0,0,0,0,3021101,0,-3100101,0,0
3,337,511.052911751904,1,0,513234.91800236,513235.965059014,0,4,15,1,1,19,3,0,6282171,4311181,0,0,0,0,0,0,0,0,0,0,0,0,0,0,0,2171101,4111070,0,0,-3161020,0,1150161,0,0,0,0,0,0,0,0,0,0,0,0,0,0,0
3,338,1409.7196328803,1,0,513237.553319738,513238.600391406,0,4,15,1,1,18,7,7281241,5321281,8121390,0,0,0,0,0,1080200,3060021,0,0,3141020,0,0,0,3120191,0,0,0,0,-2201090,0,0,0,2020070,0,0,0,3040140,3061180,0,0,0,0,0,0,0,0,0
3,339,756.921494845301,1,0,513241.023965967,513242.071024161,0,4,15,0,1,6,3,2081140,4100161,4101201,1120151,0,0,0,0,0,-2081140,0,0,0,0,4100161,0,0,0,0,0,0,0,4101201,0,0,0,0,0,0,0,0,0,0,0,0,1120151,0,0,0,0
3,340,473.7600600929,1,0,513243.859299822,513244.906371489,0,4,15,1,1,17,3,3212050,2160070,0,3201121,0,2111030,0,0,0,0,0,1101020,0,0,0,0,0,0,0,0,-2160070,0,0,0,0,0,0,0,0,0,0,0,3201121,0,0,0,0,0,0,0
3,341,517.698903451674,0,0,513246.471108699,513247.518213088,0,4,15,0,0,10,3,0,7233202,3130091,0,0,0,0,0,0,0,0,0,0,-4131030,0,2091031,0,0,0,0,1011141,0,0,0,3130091,0,0,0,0,0,0,0,0,0,0,0,0,0,0,0
3,342,720.765052246861,0,0,513249.165287219,513250.212319621,0,4,15,1,0,2,7,8262392,4523342,2170130,0,1081030,-2030140,0,0,0,2140191,3011031,0,0,1141060,0,2181121,1201161,0,0,0,0,0,0,0,0,2170130,0,0,0,0,0,0,0,0,0,0,0,0,0,0
3,343,785.693587851711,0,0,513251.96530539,513253.012369743,0,4,15,0,0,26,7,8222190,8212320,6141281,7202311,0,0,0,4021050,0,0,0,0,4201140,4181190,0,0,0,0,0,4031130,0,0,0,0,3070151,0,0,0,0,-3071130,0,3081111,0,0,0,0,4121200,0,0,0
3,344,455.560190661345,0,0,513254.824167379,513255.871236352,0,4,15,0,0,7,3,2181060,6310392,0,0,0,0,0,0,0,0,-2181060,0,0,0,1150151,0,0,0,4110041,0,1050200,0,0,0,0,0,0,0,0,0,0,0,0,0,0,0,0,0,0,0
3,345,421.409787377343,0,0,513257.459494382,513258.506566434,0,4,15,0,0,9,3,7413583,0,0,2021130,0,2121181,0,2151201,0,0,0,0,-3141201,0,0,0,0,0,0,0,0,0,0,0,0,0,0,0,0,0,0,0,0,0,0,0,0,0,2021130,0
3,346,709.1218631831,1,0,513260.106590841,513261.153667128,0,4,15,0,1,29,7,3220391,8332201,6290311,4090170,0,0,0,0,1060191,0,0,2160200,0,0,2081110,0,0,0,2091070,0,0,4160021,0,0,0,0,2090170,4200141,0,0,0,0,-4090170,0,0,0,0,0,0,0
3,347,564.314775576349,0,0,513263.059581922,513264.106659364,0,4,15,0,0,5,7,9340151,7312221,5162121,2160160,0,0,0,0,-4110090,0,0,3080011,2150050,0,4111140,0,3201081,0,0,0,0,0,4101031,0,0,0,0,1061090,0,0,0,0,0,0,0,0,0,0,0,2160160
3,348,812.570510723162,1,0,513265.777270869,513266.824340612,0,4,15,0,1,13,7,2051191,13271532,4180181,4201130,0,0,2051191,0,0,0,0,0,0,3080061,0,1011110,-3150180,0,0,3020161,3010020,0,0,0,0,0,0,0,0,0,4180181,0,0,0,0,0,0,4201130,0,0
3,349,692.223551799543,1,0,513268.718510972,513269.765559542,0,4,15,1,1,34,3,4080030,0,3191190,6121202,0,0,0,0,4080030,0,0,0,0,0,0,0,0,0,0,0,0,0,3191190,0,0,0,0,0,0,0,0,0,0,0,0,3021101,0,-3100101,0,0
3,350,798.632560530677,0,0,513271.647952746,513272.69506214,0,4,15,1,0,24,7,5151220,3110272,5201160,3210172,4090180,0,1061040,0,0,0,0,0,0,0,0,0,0,1090091,2020181,0,0,0,0,0,0,0,2061110,-3140050,0,0,0,0,0,0,0,2150121,1060051,0,0,0
3,351,640.148912149016,1,0,513274.671520916,513275.71858758,0,4,15,1,1,36,3,0,8233372,0,4171041,0,0,0,0,0,0,0,0,0,0,0,0,1091081,3021101,0,4121190,0,0,0,0,0,0,0,0,0,0,0,0,0,0,0,0,0,0,0,-4171041
3,352,666.784078639466,0,0,513277.448074086,513278.495097633,0,4,15,0,0,23,3,0,6271221,2140110,3201080,0,0,0,0,0,0,0,0,0,0,0,0,0,0,0,4120171,2151050,0,0,0,0,0,-2140110,0,0,0,0,0,0,0,0,0,0,3201080,0,0
3,353,1044.2270503263,1,0,513280.330432643,513281.377496611,0,4,15,1,1,27,7,6190232,2140171,8321121,5301201,0,3130181,0,0,0,0,3060051,0,0,0,0,2140171,0,0,0,0,0,0,0,0,0,3041021,2150030,0,0,0,-3130070,0,3140100,0,0,0,0,0,2161101,0
3,354,489.471532288007,0,0,513283.589305257,513284.636371151,0,4,15,1,0,20,3,3040091,0,7221160,0,2030020,0,0,1010071,0,0,0,0,0,0,0,0,0,0,0,0,0,0,0,-3110020,0,0,4111140,0,0,0,0,0,0,0,0,0,0,0,0,0
3,355,660.819085605908,0,0,513286.259957953,513287.307003829,0,4,15,0,0,4,3,6341250,3071051,0,0,2191180,0,0,-1110020,3040050,0,0,0,0,3071051,0,0,0,0,0,0,0,0,0,0,0,0,0,0,0,0,0,0,0,0,0,0,0,0,0,0
3,356,583.334614988416,0,0,513288.989381326,513290.036446449,0,4,15,1,0,12,3,2181070,2161031,0,2171202,2181070,0,0,0,0,0,0,0,0,0,0,-2161031,0,0,0,0,0,0,0,0,0,0,0,0,0,0,0,0,0,1040181,0,0,0,1131021,0,0
3,357,1141.24105067458,0,0,513291.789420669,513292.836483867,0,4,15,1,0,25,7,6381512,9202432,2031181,0,1150151,0,0,0,1030130,0,2061031,2140200,0,0,0,4011050,4130191,0,0,0,1061191,0,0,0,0,0,0,0,-2031181,0,0,0,0,0,0,0,0,0,0,0
3,358,785.095356230158,1,0,513295.130635595,513296.177705338,0,4,15,1,1,32,7,6512402,2212241,2091290,4110140,0,0,1191101,1151180,0,4170121,0,0,0,0,0,1121091,0,0,1091150,0,0,0,0,0,1081150,0,0,0,0,1010140,0,0,0,0,0,-4110140,0,0,0,0
3,359,1114.08272018889,1,0,513297.989511828,513299.036580801,0,4,15,0,1,35,7,8182202,2111091,1131071,10502372,0,0,4051181,4131021,0,0,0,0,0,0,2111091,0,0,0,0,0,0,0,0,0,0,0,1131071,0,0,0,0,0,0,0,4080060,1191090,0,0,-2181121,3050101
3,360,515.782175411005,1,0,513301.271915272,513302.318981935,0,4,15,0,1,14,7,1020120,9392330,2060081,7311271,0,0,0,0,0,1020120,0,0,0,0,0,0,0,-3161130,0,4030040,2201160,0,2060081,0,0,0,0,0,0,0,0,2070201,1120040,0,0,0,0,4121030,0,0
3,361,808.238528319635,1,0,513307.613184478,513308.660258455,0,4,16,0,1,13,7,3130151,5161072,4081252,10362161,0,0,0,3130151,0,0,0,0,0,0,0,0,-3030051,2131021,0,0,0,0,0,2031051,0,0,0,0,2050201,0,0,0,0,2161011,4061120,0,4140030,0,0,0
3,362,716.493509011343,0,0,513310.519111975,513311.566185183,0,4,16,0,0,7,7,2191060,7532271,8273471,4071191,0,0,0,0,0,0,-2191060,0,0,0,1161060,2201031,0,0,0,0,4170180,0,0,0,3151190,2111091,0,0,3011190,0,0,0,4071191,0,0,0,0,0,0,0
3,363,637.036490836181,1,0,513313.354452375,513314.401511723,0,4,16,1,1,18,7,7281241,5321281,8121390,0,0,0,0,0,1080200,3060021,0,0,3141020,0,0,0,3120191,0,0,0,0,-2201090,0,0,0,2020070,0,0,0,3040140,3061180,0,0,0,0,0,0,0,0,0
3,364,524.381851428188,1,0,513316.119188737,513317.166289662,0,4,16,0,1,29,3,4091031,4021010,0,5381122,0,0,0,0,0,0,0,4091031,0,0,0,0,4021010,0,0,0,0,0,0,0,0,0,0,0,0,0,0,2190041,-3191081,0,0,0,0,0,0,0
3,365,571.561693563126,0,0,513318.730998769,513319.778066587,0,4,16,1,0,27,7,6190232,2140171,8321121,5301201,0,3130181,0,0,0,0,3060051,0,0,0,0,2140171,0,0,0,0,0,0,0,0,0,3041021,2150030,0,0,0,-3130070,0,3140100,0,0,0,0,0,2161101,0
3,366,545.997877605259,1,0,513321.413395514,513322.460460252,0,4,16,1,1,24,7,5151220,3110272,5201160,3210172,4090180,0,1061040,0,0,0,0,0,0,0,0,0,0,1090091,2020181,0,0,0,0,0,0,0,2061110,-3140050,0,0,0,0,0,0,0,2150121,1060051,0,0,0
3,367,403.103668300901,1,0,513324.166373968,513325.213438707,0,4,16,1,1,17,3,3212050,2160070,0,3201121,0,2111030,0,0,0,0,0,1101020,0,0,0,0,0,0,0,0,-2160070,0,0,0,0,0,0,0,0,0,0,0,3201121,0,0,0,0,0,0,0
3,368,674.522593675647,0,0,513326.69582629,513327.742892568,0,4,16,1,0,36,3,0,8233372,0,4171041,0,0,0,0,0,0,0,0,0,0,0,0,1091081,3021101,0,4121190,0,0,0,0,0,0,0,0,0,0,0,0,0,0,0,0,0,0,0,-4171041
3,369,503.754408855457,0,0,513329.601750323,513330.648826225,0,4,16,0,0,26,3,0,3071160,3061040,5241182,0,0,0,0,0,0,0,0,0,0,0,0,3071160,0,0,0,0,0,0,0,0,0,0,0,0,-3061040,0,0,0,0,0,0,4070161,1171021,0,0
3,370,654.722050414421,1,0,513332.213580373,513333.260623938,0,4,16,0,1,14,3,0,6300150,3010040,2031061,0,0,0,0,0,0,0,0,0,0,0,2100100,0,-4200050,0,0,0,0,0,0,0,0,0,3010040,0,0,0,0,2031061,0,0,0,0,0,0,0
3,371,1167.21639147727,0,0,513334.931226589,513335.97831866,0,4,16,0,0,5,7,2251121,4330411,9403392,0,0,0,0,0,-1171051,1080070,0,0,0,1110100,2200131,0,0,0,1020180,0,0,0,3031141,0,0,0,0,0,0,4191131,2181120,0,0,0,0,0,0,0,0,0
3,372,497.780561679974,1,0,513338.260704011,513339.307789152,0,4,16,0,1,10,7,5310251,7392283,7162282,0,0,0,2150190,0,0,3160061,0,0,0,-3040081,0,2161081,0,2191121,0,0,0,0,0,0,0,0,1041101,0,3031110,3090071,0,0,0,0,0,0,0,0,0,0
3,373,456.477171217557,0,0,513341.001918783,513342.04898968,0,4,16,0,0,4,3,2171141,7211221,0,3191110,0,0,0,-2171141,0,0,0,0,0,4021120,0,3190101,0,0,0,0,0,0,0,0,0,0,0,0,0,0,0,0,0,0,0,0,0,0,3191110,0
3,374,451.970800873823,0,0,513343.531370334,513344.578499361,0,4,16,1,0,20,3,3040091,0,7221160,0,2030020,0,0,1010071,0,0,0,0,0,0,0,0,0,0,0,0,0,0,0,-3110020,0,0,4111140,0,0,0,0,0,0,0,0,0,0,0,0,0
3,375,528.241869877093,0,0,513346.143175747,513347.190241255,0,4,16,1,0,12,3,2181070,2161031,0,2171202,2181070,0,0,0,0,0,0,0,0,0,0,-2161031,0,0,0,0,0,0,0,0,0,0,0,0,0,0,0,0,0,1040181,0,0,0,1131021,0,0
3,376,835.805303941015,0,0,513348.884392829,513349.931465266,0,4,16,1,0,34,3,4080030,0,3191190,6121202,0,0,0,0,4080030,0,0,0,0,0,0,0,0,0,0,0,0,0,3191190,0,0,0,0,0,0,0,0,0,0,0,0,3021101,0,-3100101,0,0
3,377,682.323087647092,0,0,513351.966787495,513353.013856083,0,4,16,0,0,35,3,4021070,0,6180151,3151031,0,0,0,0,0,0,0,0,4021070,0,0,0,0,0,0,0,0,0,0,0,3140071,0,0,0,3040080,0,0,0,0,0,0,0,0,0,-3151031,0
3,378,669.895730097778,0,0,513354.837431645,513355.884546044,0,4,16,1,0,19,3,0,6282171,4311181,0,0,0,0,0,0,0,0,0,0,0,0,0,0,0,2171101,4111070,0,0,-3161020,0,1150161,0,0,0,0,0,0,0,0,0,0,0,0,0,0,0
3,379,1702.2618324263,1,0,513357.613928995,513358.660997968,0,4,16,0,1,6,7,5181122,6312071,2150041,5221280,3051060,0,0,0,0,-1060051,0,1070011,0,3111050,0,0,0,0,0,0,0,3201021,0,0,0,0,0,0,0,0,2150041,0,1021190,0,4200090,0,0,0,0,0
3,380,461.218753596768,1,0,513361.461048475,513362.508116678,0,4,16,0,1,9,7,7280081,0,2051130,15522663,0,3180070,0,0,0,0,0,0,-4100011,0,0,0,0,0,0,0,0,0,0,2051130,0,0,0,0,0,0,0,0,3111121,4040191,0,3111150,0,3200071,0,2060130
3,381,1401.91259450512,1,0,513364.108143009,513365.155210443,0,4,16,1,1,25,7,6381512,9202432,2031181,0,1150151,0,0,0,1030130,0,2061031,2140200,0,0,0,4011050,4130191,0,0,0,1061191,0,0,0,0,0,0,0,-2031181,0,0,0,0,0,0,0,0,0,0,0
3,382,682.542131282389,1,0,513367.68470126,513368.731758685,0,4,16,0,1,23,3,4090100,7171341,4090091,0,0,0,0,0,0,4090100,0,0,0,3050200,0,0,0,0,4121141,0,0,0,0,0,0,0,-4090091,0,0,0,0,0,0,0,0,0,0,0,0,0
3,383,701.544647396076,0,0,513370.437644683,513371.484721355,0,4,16,1,0,2,7,8262392,4523342,2170130,0,1081030,-2030140,0,0,0,2140191,3011031,0,0,1141060,0,2181121,1201161,0,0,0,0,0,0,0,0,2170130,0,0,0,0,0,0,0,0,0,0,0,0,0,0
3,384,834.740497812163,1,0,513373.296515912,513374.34358373,0,4,16,1,1,32,7,6512402,2212241,2091290,4110140,0,0,1191101,1151180,0,4170121,0,0,0,0,0,1121091,0,0,1091150,0,0,0,0,0,1081150,0,0,0,0,1010140,0,0,0,0,0,-4110140,0,0,0,0
3,385,911.387675150763,1,0,513391.308544448,513392.355612266,0,4,17,0,1,5,7,7330130,2201060,9391263,6270180,0,0,0,0,-3170020,4160110,0,0,0,2201060,0,0,0,0,0,0,0,0,0,0,4201161,1170071,4020031,0,0,0,0,0,0,0,0,0,0,0,3190030,3080150
3,386,535.301696101669,1,0,513394.355647298,513395.402719736,0,4,17,0,1,6,3,3191031,0,2131131,6120230,0,0,0,0,0,-3191031,0,0,0,0,0,0,0,0,0,0,0,0,0,0,0,0,2131131,0,0,0,0,0,0,0,0,4040160,2080070,0,0,0
3,387,581.840190803632,0,0,513397.08517307,513398.132173905,0,4,17,1,0,36,3,0,8233372,0,4171041,0,0,0,0,0,0,0,0,0,0,0,0,1091081,3021101,0,4121190,0,0,0,0,0,0,0,0,0,0,0,0,0,0,0,0,0,0,0,-4171041
3,388,649.482711567543,1,0,513399.920441097,513400.967512379,0,4,17,0,1,4,7,7290312,8411281,1090071,3040160,0,0,0,-1120110,0,0,3010161,3160041,0,3151060,4090131,0,0,0,0,1170090,0,0,0,0,0,0,0,0,0,0,1090071,0,3040160,0,0,0,0,0,0,0
3,389,839.225695235655,0,0,513402.814591823,513403.86167427,0,4,17,1,0,27,7,6190232,2140171,8321121,5301201,0,3130181,0,0,0,0,3060051,0,0,0,0,2140171,0,0,0,0,0,0,0,0,0,3041021,2150030,0,0,0,-3130070,0,3140100,0,0,0,0,0,2161101,0
3,390,795.207164715976,1,0,513405.814649953,513406.861711611,0,4,17,1,1,2,7,8262392,4523342,2170130,0,1081030,-2030140,0,0,0,2140191,3011031,0,0,1141060,0,2181121,1201161,0,0,0,0,0,0,0,0,2170130,0,0,0,0,0,0,0,0,0,0,0,0,0,0
3,391,803.547760995571,1,0,513408.661765583,513409.720580145,0,4,17,1,1,25,7,6381512,9202432,2031181,0,1150151,0,0,0,1030130,0,2061031,2140200,0,0,0,4011050,4130191,0,0,0,1061191,0,0,0,0,0,0,0,-2031181,0,0,0,0,0,0,0,0,0,0,0
3,392,498.041951155756,0,0,513411.61475166,513412.661839496,0,4,17,1,0,20,3,3040091,0,7221160,0,2030020,0,0,1010071,0,0,0,0,0,0,0,0,0,0,0,0,0,0,0,-3110020,0,0,4111140,0,0,0,0,0,0,0,0,0,0,0,0,0
3,393,526.397514797281,0,1,513414.332424439,513415.379484172,0,4,17,1,1,34,3,4080030,0,3191190,6121202,0,0,0,0,4080030,0,0,0,0,0,0,0,0,0,0,0,0,0,3191190,0,0,0,0,0,0,0,0,0,0,0,0,3021101,0,-3100101,0,0
3,394,630.139888671692,1,0,513417.073628817,513418.120725122,0,4,17,0,1,13,3,0,4281271,4200030,1020191,0,0,0,0,0,0,0,0,0,0,0,0,-2171071,0,0,0,2110200,0,0,4200030,0,0,0,0,0,0,0,0,1020191,0,0,0,0,0,0,0
3,395,622.176170640159,1,0,513419.779562936,513420.826631909,0,4,17,0,1,23,3,8151172,3010030,3130100,0,4131031,0,0,0,0,0,4020141,0,0,0,0,0,0,0,0,0,0,3010030,0,0,0,0,-3130100,0,0,0,0,0,0,0,0,0,0,0,0,0
3,396,1021.26673539169,0,0,513422.485500519,513423.532573727,0,4,17,0,0,14,7,5172110,5321061,6422162,2011180,0,0,0,0,0,0,0,1091010,4081100,0,0,0,0,-1160021,0,4161040,0,0,3071070,0,0,0,0,2200061,1151031,0,0,0,0,0,0,0,0,2011180,0,0
3,397,898.126873828005,0,0,513425.732639864,513426.779658021,0,4,17,0,0,7,7,7302222,6332332,3040030,3160191,0,0,0,0,0,3181101,-4121121,0,0,0,0,0,0,4181041,0,0,1101101,1050190,0,0,3040030,0,0,0,0,0,0,0,0,1070121,0,0,0,0,0,2090070
3,398,603.510111686774,0,0,513428.744398926,513429.791471749,0,4,17,0,0,29,3,3070080,0,3121051,4291171,0,0,0,3070080,0,0,0,0,0,0,0,0,0,0,0,0,0,0,0,0,0,0,0,3121051,0,0,0,0,-3120041,1171130,0,0,0,0,0,0
3,399,786.557828541845,1,0,513431.556209651,513432.603275929,0,4,17,1,1,12,3,2181070,2161031,0,2171202,2181070,0,0,0,0,0,0,0,0,0,0,-2161031,0,0,0,0,0,0,0,0,0,0,0,0,0,0,0,0,0,1040181,0,0,0,1131021,0,0
3,400,556.965842552017,1,0,513434.532778527,513435.579783211,0,4,17,1,1,24,7,5151220,3110272,5201160,3210172,4090180,0,1061040,0,0,0,0,0,0,0,0,0,0,1090091,2020181,0,0,0,0,0,0,0,2061110,-3140050,0,0,0,0,0,0,0,2150121,1060051,0,0,0
3,401,531.8428085302,1,0,513437.22693703,513438.273950953,0,4,17,1,1,19,3,0,6282171,4311181,0,0,0,0,0,0,0,0,0,0,0,0,0,0,0,2171101,4111070,0,0,-3161020,0,1150161,0,0,0,0,0,0,0,0,0,0,0,0,0,0,0
3,402,617.707911529578,0,0,513439.921059346,513440.968105991,0,4,17,0,0,10,3,0,2091081,4081200,8221181,0,0,0,0,0,0,0,0,0,-2091081,0,0,0,0,0,0,0,0,0,0,0,0,0,0,0,4081200,0,0,4020031,0,0,4201150,0,0,0,0
3,403,796.209606924094,0,0,513442.744616045,513443.791674624,0,4,17,1,0,18,7,7281241,5321281,8121390,0,0,0,0,0,1080200,3060021,0,0,3141020,0,0,0,3120191,0,0,0,0,-2201090,0,0,0,2020070,0,0,0,3040140,3061180,0,0,0,0,0,0,0,0,0
3,404,431.818786892109,0,0,513445.780002948,513446.827019566,0,4,17,0,0,9,7,3200192,4080071,1071071,11382321,0,0,0,0,2020161,0,0,0,-1180031,0,0,0,0,0,0,0,4080071,0,0,0,0,0,0,0,0,0,1071071,4080070,1111110,0,0,0,0,3101041,3090100,0
3,405,799.812470388133,0,0,513448.332929894,513449.379991553,0,4,17,1,0,32,7,6512402,2212241,2091290,4110140,0,0,1191101,1151180,0,4170121,0,0,0,0,0,1121091,0,0,1091150,0,0,0,0,0,1081150,0,0,0,0,1010140,0,0,0,0,0,-4110140,0,0,0,0
3,406,516.395420592744,0,0,513451.215318478,513452.26240054,0,4,17,1,0,17,3,3212050,2160070,0,3201121,0,2111030,0,0,0,0,0,1101020,0,0,0,0,0,0,0,0,-2160070,0,0,0,0,0,0,0,0,0,0,0,3201121,0,0,0,0,0,0,0
3,407,626.684465794824,1,0,513453.885939223,513454.93301474,0,4,17,0,1,26,7,6271371,7340280,8191182,5230122,0,4111171,0,0,2160200,0,0,0,0,0,0,0,0,0,4160140,0,0,3180140,0,0,0,4031051,0,0,0,-4160131,0,0,0,0,0,0,4050051,1180071,0,0
3,408,747.446029272396,1,0,513456.76834282,513457.815416028,0,4,17,0,1,35,3,5281072,3021090,0,1021070,0,0,3080011,0,0,2201061,0,0,0,0,0,3021090,0,0,0,0,0,0,0,0,0,0,0,0,0,0,0,0,0,0,0,0,0,0,-1021070,0
3,409,628.482240368612,0,0,513473.650946599,513474.698014417,0,4,18,0,0,26,7,0,6110281,6312430,8201293,0,0,0,0,0,0,0,0,0,0,0,2010171,4100110,0,0,0,0,0,0,0,0,0,0,1040030,4091200,-1181200,0,0,3090031,0,0,0,0,4040081,1071181,0
3,410,741.509138490073,1,0,513476.345104716,513477.392175614,0,4,18,0,1,35,7,1080161,4381182,2080191,8372494,0,0,0,0,1080161,0,0,0,0,0,2180161,0,0,0,2201021,0,0,0,0,0,0,0,0,0,0,0,2080191,2020161,4020201,0,0,0,0,1181101,-1151031,0
3,411,701.244761701673,1,0,513479.192207643,513480.239282775,0,4,18,0,1,5,3,6182201,6132141,0,0,0,0,0,0,-4111171,0,0,2071030,0,0,0,2071051,4061090,0,0,0,0,0,0,0,0,0,0,0,0,0,0,0,0,0,0,0,0,0,0,0
3,412,525.551752303727,1,0,513481.95699713,513483.004047625,0,4,18,1,1,27,7,6190232,2140171,8321121,5301201,0,3130181,0,0,0,0,3060051,0,0,0,0,2140171,0,0,0,0,0,0,0,0,0,3041021,2150030,0,0,0,-3130070,0,3140100,0,0,0,0,0,2161101,0
3,413,413.755964080337,1,0,513484.58051695,513485.627645592,0,4,18,0,1,9,7,4381191,9451401,0,7101182,0,0,0,0,3201081,0,0,0,-1180110,3120081,1080070,0,1171080,0,0,0,4080170,0,0,0,0,0,0,0,0,0,0,3090051,0,0,0,4011131,0,0,0,0
3,414,734.925895754714,0,0,513487.133499716,513488.180568689,0,4,18,0,0,23,3,2060061,3120031,3071070,1111150,0,0,0,0,0,0,0,2060061,0,0,0,0,3120031,0,0,0,0,0,0,0,0,0,-3071070,0,0,0,0,0,0,1111150,0,0,0,0,0,0
3,415,599.086123285815,1,0,513490.039429138,513491.086494262,0,4,18,1,1,24,7,5151220,3110272,5201160,3210172,4090180,0,1061040,0,0,0,0,0,0,0,0,0,0,1090091,2020181,0,0,0,0,0,0,0,2061110,-3140050,0,0,0,0,0,0,0,2150121,1060051,0,0,0
3,416,455.275318468921,1,0,513492.757128094,513493.804182824,0,4,18,0,1,14,3,0,11341332,0,2011201,0,0,0,0,0,0,0,0,0,4160201,0,3061010,0,-4120121,0,0,0,0,0,0,0,0,0,0,0,0,0,0,0,0,2011201,0,0,0,0,0
3,417,557.409704197198,0,0,513495.415980537,513496.46304643,0,4,18,1,0,12,3,2181070,2161031,0,2171202,2181070,0,0,0,0,0,0,0,0,0,0,-2161031,0,0,0,0,0,0,0,0,0,0,0,0,0,0,0,0,0,1040181,0,0,0,1131021,0,0
3,418,580.299186112825,0,0,513498.216019495,513499.263085388,0,4,18,1,0,36,3,0,8233372,0,4171041,0,0,0,0,0,0,0,0,0,0,0,0,1091081,3021101,0,4121190,0,0,0,0,0,0,0,0,0,0,0,0,0,0,0,0,0,0,0,-4171041
3,419,456.984936667141,1,0,513500.992560731,513502.039602371,0,4,18,0,1,29,3,1041151,4070060,1030080,2040110,0,0,0,1041151,0,0,0,0,0,0,0,0,0,4070060,0,0,0,0,0,0,0,1030080,0,0,0,0,0,0,-2040110,0,0,0,0,0,0,0
3,420,543.556445802096,0,0,513503.627861171,513504.674942462,0,4,18,0,0,6,3,6192302,0,4160100,0,0,0,0,0,0,-2141171,0,0,4051131,0,0,0,0,0,0,0,0,0,0,0,0,3080020,0,1080080,0,0,0,0,0,0,0,0,0,0,0,0
3,421,831.559938145801,0,0,513506.239667353,513507.286737096,0,4,18,1,0,2,7,8262392,4523342,2170130,0,1081030,-2030140,0,0,0,2140191,3011031,0,0,1141060,0,2181121,1201161,0,0,0,0,0,0,0,0,2170130,0,0,0,0,0,0,0,0,0,0,0,0,0,0
3,422,984.417360334191,0,0,513509.275057335,513510.322076263,0,4,18,1,0,25,7,6381512,9202432,2031181,0,1150151,0,0,0,1030130,0,2061031,2140200,0,0,0,4011050,4130191,0,0,0,1061191,0,0,0,0,0,0,0,-2031181,0,0,0,0,0,0,0,0,0,0,0
3,423,568.985139892902,0,0,513512.369166024,513513.416235382,0,4,18,1,0,18,7,7281241,5321281,8121390,0,0,0,0,0,1080200,3060021,0,0,3141020,0,0,0,3120191,0,0,0,0,-2201090,0,0,0,2020070,0,0,0,3040140,3061180,0,0,0,0,0,0,0,0,0
3,424,535.399476590101,1,0,513515.192742356,513516.239814024,0,4,18,0,1,10,7,3121190,15510373,0,6191161,1050110,0,0,0,0,0,2071080,0,0,-3100141,4160151,4140010,0,0,0,0,4110071,0,0,0,0,0,0,0,0,0,0,0,4061111,2130050,0,0,0,0,0,0
3,425,657.312847673893,0,0,513517.839840355,513518.886906248,0,4,18,1,0,32,7,6512402,2212241,2091290,4110140,0,0,1191101,1151180,0,4170121,0,0,0,0,0,1121091,0,0,1091150,0,0,0,0,0,1081150,0,0,0,0,1010140,0,0,0,0,0,-4110140,0,0,0,0
3,426,570.357916003559,0,0,513520.639875464,513521.686949826,0,4,18,0,0,4,7,6231021,3151271,3320111,4331402,0,0,0,-3151011,0,0,0,3080010,0,2020190,0,0,1131081,0,0,0,0,0,0,0,0,2200050,0,1120061,0,0,0,0,0,0,0,0,3150201,0,0,1181201
3,427,607.089877419639,0,0,513523.27521363,513524.322282218,0,4,18,1,0,34,3,4080030,0,3191190,6121202,0,0,0,0,4080030,0,0,0,0,0,0,0,0,0,0,0,0,0,3191190,0,0,0,0,0,0,0,0,0,0,0,0,3021101,0,-3100101,0,0
3,428,2875.08263700875,1,0,513526.08702243,513527.134091788,0,4,18,0,1,7,7,7332281,6372472,2161081,4051030,0,4081111,0,2171130,0,0,-1080040,0,0,0,1071150,4110201,0,1191121,0,0,0,0,0,0,0,0,0,2161081,0,0,0,0,0,0,4051030,0,0,0,0,0
3,429,590.834453352727,1,0,513531.169500248,513532.216514942,0,4,18,1,1,19,3,0,6282171,4311181,0,0,0,0,0,0,0,0,0,0,0,0,0,0,0,2171101,4111070,0,0,-3161020,0,1150161,0,0,0,0,0,0,0,0,0,0,0,0,0,0,0
3,430,727.204704016913,0,0,513533.993022686,513535.040084344,0,4,18,0,0,13,3,0,7382442,4191170,0,0,0,0,0,0,0,0,0,0,0,0,0,-2061170,1151141,4170131,0,0,0,0,0,0,0,0,0,0,4191170,0,0,0,0,0,0,0,0,0,0
3,431,445.156965579372,1,0,513536.946008377,513537.993068881,0,4,18,1,1,17,3,3212050,2160070,0,3201121,0,2111030,0,0,0,0,0,1101020,0,0,0,0,0,0,0,0,-2160070,0,0,0,0,0,0,0,0,0,0,0,3201121,0,0,0,0,0,0,0
3,432,418.63574803574,1,0,513539.628403198,513540.675469091,0,4,18,1,1,20,3,3040091,0,7221160,0,2030020,0,0,1010071,0,0,0,0,0,0,0,0,0,0,0,0,0,0,0,-3110020,0,0,4111140,0,0,0,0,0,0,0,0,0,0,0,0,0
3,433,488.789378840011,1,0,513546.240295612,513547.287334942,0,4,19,0,1,13,3,3030060,4131071,3091111,3070181,0,0,3030060,0,0,0,0,0,0,0,0,0,-4131071,0,0,0,0,0,0,0,0,0,0,0,3091111,0,0,0,0,0,0,0,0,0,0,3070181
3,434,696.277976268902,0,0,513548.910889408,513549.957953377,0,4,19,0,0,14,3,2201110,6151341,0,2091171,0,0,0,0,0,0,0,0,2201110,2081160,0,0,0,-4070181,0,0,0,0,0,0,0,0,0,0,0,0,0,0,0,0,0,0,2091171,0,0,0
3,435,780.636336246971,0,0,513551.793284152,513552.84035505,0,4,19,0,0,29,7,11292232,3080090,0,7202192,0,0,0,3010041,1141061,4071110,0,0,3070020,0,0,0,0,0,0,3080090,0,0,0,0,0,0,0,0,0,0,0,0,-1031020,0,0,0,0,2100101,4071071,0
3,436,945.576189726125,1,0,513554.781556656,513555.828647187,0,4,19,1,1,25,7,6381512,9202432,2031181,0,1150151,0,0,0,1030130,0,2061031,2140200,0,0,0,4011050,4130191,0,0,0,1061191,0,0,0,0,0,0,0,-2031181,0,0,0,0,0,0,0,0,0,0,0
3,437,716.080444282852,0,0,513557.91102453,513558.958096198,0,4,19,1,0,24,7,5151220,3110272,5201160,3210172,4090180,0,1061040,0,0,0,0,0,0,0,0,0,0,1090091,2020181,0,0,0,0,0,0,0,2061110,-3140050,0,0,0,0,0,0,0,2150121,1060051,0,0,0
3,438,926.994052599184,1,0,513560.864008682,513561.911073421,0,4,19,1,1,27,7,6190232,2140171,8321121,5301201,0,3130181,0,0,0,0,3060051,0,0,0,0,2140171,0,0,0,0,0,0,0,0,0,3041021,2150030,0,0,0,-3130070,0,3140100,0,0,0,0,0,2161101,0
3,439,1266.90973038785,1,0,513563.969985378,513565.017000071,0,4,19,0,1,23,3,3050131,3311311,1171101,0,0,0,0,0,3050131,0,0,0,0,0,2110160,0,0,1201151,0,0,0,0,0,0,0,0,-1171101,0,0,0,0,0,0,0,0,0,0,0,0,0
3,440,1049.8186298064,1,0,513567.358282366,513568.40528628,0,4,19,0,1,5,7,4341111,4150081,3241221,8420233,0,0,0,0,-3191091,1150020,0,0,0,0,0,0,0,0,4150081,0,0,0,0,1051171,0,2190050,0,0,0,0,0,4120021,3110021,1190191,0,0,0,0,0,0
3,441,845.771211723331,0,0,513570.511267596,513571.558282289,0,4,19,1,0,18,7,7281241,5321281,8121390,0,0,0,0,0,1080200,3060021,0,0,3141020,0,0,0,3120191,0,0,0,0,-2201090,0,0,0,2020070,0,0,0,3040140,3061180,0,0,0,0,0,0,0,0,0
3,442,925.801438919734,0,0,513573.511266441,513574.558329639,0,4,19,0,0,4,3,5171260,0,0,3301191,0,0,0,-3071080,0,0,0,2100180,0,0,0,0,0,0,0,0,0,0,0,0,0,0,0,0,0,0,0,0,0,0,0,2131070,0,1170121,0,0
3,443,549.926419334952,1,0,513576.581896655,513577.628951769,0,4,19,0,1,9,7,4160221,3271042,11162441,3171161,0,1030021,0,0,0,0,0,0,-3130200,2150021,0,0,0,0,0,0,1121021,0,0,0,0,0,4011110,0,0,3060131,4091200,3171161,0,0,0,0,0,0,0,0
3,444,701.340232335497,1,0,513579.205451121,513580.252532413,0,4,19,0,1,6,3,4131130,3090061,3230242,0,0,0,0,0,0,-4131130,0,0,0,0,0,0,0,0,3090061,0,0,0,2050101,0,0,1180141,0,0,0,0,0,0,0,0,0,0,0,0,0,0
3,445,532.303993531968,0,0,513582.005498548,513583.052570986,0,4,19,0,0,10,7,3181051,7131362,9402340,8181162,0,0,0,0,0,0,0,0,3181051,-4070191,0,0,0,0,0,0,3061171,0,0,4101200,0,0,0,0,2191030,0,3110110,0,0,0,0,4061061,4120101,0,0,0
3,446,1042.07895993022,1,0,513584.64083325,513585.687896834,0,4,19,1,1,19,3,0,6282171,4311181,0,0,0,0,0,0,0,0,0,0,0,0,0,0,0,2171101,4111070,0,0,-3161020,0,1150161,0,0,0,0,0,0,0,0,0,0,0,0,0,0,0
3,447,529.179253440816,0,0,513587.758520119,513588.805598331,0,4,19,1,0,20,3,3040091,0,7221160,0,2030020,0,0,1010071,0,0,0,0,0,0,0,0,0,0,0,0,0,0,0,-3110020,0,0,4111140,0,0,0,0,0,0,0,0,0,0,0,0,0
3,448,723.056348739192,0,0,513590.405622352,513591.452687476,0,4,19,1,0,2,7,8262392,4523342,2170130,0,1081030,-2030140,0,0,0,2140191,3011031,0,0,1141060,0,2181121,1201161,0,0,0,0,0,0,0,0,2170130,0,0,0,0,0,0,0,0,0,0,0,0,0,0
3,449,706.64693962317,0,0,513593.335068361,513594.38217352,0,4,19,0,0,26,7,1111031,5200100,10190391,3161250,0,0,0,0,0,0,0,0,1111031,0,0,0,0,0,4100090,0,0,1100010,0,0,4010070,2060171,0,0,0,-4120150,0,0,0,2020090,0,1141160,0,0,0,0
3,450,491.667358030099,1,0,513596.22923949,513597.276307308,0,4,19,1,1,12,3,2181070,2161031,0,2171202,2181070,0,0,0,0,0,0,0,0,0,0,-2161031,0,0,0,0,0,0,0,0,0,0,0,0,0,0,0,0,0,1040181,0,0,0,1131021,0,0
3,451,758.701561193448,0,0,513598.888100787,513599.935164755,0,4,19,1,0,17,3,3212050,2160070,0,3201121,0,2111030,0,0,0,0,0,1101020,0,0,0,0,0,0,0,0,-2160070,0,0,0,0,0,0,0,0,0,0,0,3201121,0,0,0,0,0,0,0
3,452,743.512483022641,1,0,513601.735202944,513602.782270762,0,4,19,1,1,34,3,4080030,0,3191190,6121202,0,0,0,0,4080030,0,0,0,0,0,0,0,0,0,0,0,0,0,3191190,0,0,0,0,0,0,0,0,0,0,0,0,3021101,0,-3100101,0,0
3,453,872.95610451838,0,0,513604.605822841,513605.652915681,0,4,19,1,0,32,7,6512402,2212241,2091290,4110140,0,0,1191101,1151180,0,4170121,0,0,0,0,0,1121091,0,0,1091150,0,0,0,0,0,1081150,0,0,0,0,1010140,0,0,0,0,0,-4110140,0,0,0,0
3,454,697.131052962504,0,0,513607.723528957,513608.77059716,0,4,19,0,0,35,7,0,17250221,0,8481470,0,0,0,0,0,0,0,0,0,0,4060110,0,0,4090031,4030020,2030020,3040040,0,0,0,0,0,0,0,0,0,0,0,0,0,0,3181190,0,1110190,-4190090,0
3,455,986.450731987134,1,0,513610.594164638,513611.641232456,0,4,19,0,1,7,3,2142141,4211250,0,0,0,0,0,0,0,0,-1041030,0,1101111,0,0,0,0,0,0,0,1011100,3200150,0,0,0,0,0,0,0,0,0,0,0,0,0,0,0,0,0,0
3,456,603.249877109192,1,0,513613.676556225,513614.723620963,0,4,19,1,1,36,3,0,8233372,0,4171041,0,0,0,0,0,0,0,0,0,0,0,0,1091081,3021101,0,4121190,0,0,0,0,0,0,0,0,0,0,0,0,0,0,0,0,0,0,0,-4171041
3,457,501.76761765033,1,0,513622.570828215,513623.617935684,0,4,20,0,1,5,3,5101162,0,4050200,1180110,0,0,0,0,-2040091,0,0,3061071,0,0,0,0,0,0,0,0,0,0,4050200,0,0,0,0,0,0,0,0,0,0,0,0,0,1180110,0,0,0
3,458,1313.6229980737,0,0,513625.312047607,513626.359090402,0,4,20,0,0,14,7,7162211,8271341,3101111,7090081,0,0,0,0,0,0,0,4021041,3141170,0,0,3170160,4031121,-1070060,0,0,0,0,0,0,0,0,0,0,3101111,0,0,0,0,0,0,4030011,0,0,0,3060070
3,459,660.642002883833,0,0,513628.829782441,513629.876922632,0,4,20,1,0,12,3,2181070,2161031,0,2171202,2181070,0,0,0,0,0,0,0,0,0,0,-2161031,0,0,0,0,0,0,0,0,0,0,0,0,0,0,0,0,0,1040181,0,0,0,1131021,0,0
3,460,449.408105865587,0,0,513631.653289865,513632.700366152,0,4,20,1,0,24,7,5151220,3110272,5201160,3210172,4090180,0,1061040,0,0,0,0,0,0,0,0,0,0,1090091,2020181,0,0,0,0,0,0,0,2061110,-3140050,0,0,0,0,0,0,0,2150121,1060051,0,0,0
3,461,623.361085017677,1,0,513634.218026689,513635.265109521,0,4,20,1,1,34,3,4080030,0,3191190,6121202,0,0,0,0,4080030,0,0,0,0,0,0,0,0,0,0,0,0,0,3191190,0,0,0,0,0,0,0,0,0,0,0,0,3021101,0,-3100101,0,0
3,462,635.597886168398,0,0,513637.029872446,513638.076912931,0,4,20,0,0,13,7,8271223,7402382,0,5160192,0,3051181,4190031,0,0,0,0,0,1030011,0,0,1141171,-4130010,0,0,2131201,0,0,0,0,0,0,0,0,0,0,0,0,1020071,0,0,0,0,4140121,0,0
3,463,607.668476004619,0,0,513639.735763834,513640.78284551,0,4,20,1,0,32,7,6512402,2212241,2091290,4110140,0,0,1191101,1151180,0,4170121,0,0,0,0,0,1121091,0,0,1091150,0,0,0,0,0,1081150,0,0,0,0,1010140,0,0,0,0,0,-4110140,0,0,0,0
3,464,423.980181571096,0,0,513642.547577638,513643.594644301,0,4,20,1,0,19,3,0,6282171,4311181,0,0,0,0,0,0,0,0,0,0,0,0,0,0,0,2171101,4111070,0,0,-3161020,0,1150161,0,0,0,0,0,0,0,0,0,0,0,0,0,0,0
3,465,707.87727960851,0,0,513645.053499131,513646.100561174,0,4,20,0,0,35,3,0,4160041,2191041,4212122,0,0,0,0,0,0,0,0,0,0,0,0,0,4160041,0,0,0,0,0,0,0,2191041,0,0,0,0,0,0,3111011,0,0,0,0,0,-1101111,0
3,466,494.027947774157,1,0,513648.006480203,513649.053546096,0,4,20,0,1,10,3,2031161,3281201,0,3180091,0,2031161,0,0,0,0,0,0,0,-1121181,0,0,0,0,0,0,2160020,0,0,0,0,0,0,0,0,0,0,0,3180091,0,0,0,0,0,0,0
3,467,434.741421777289,1,0,513650.688878488,513651.735935142,0,4,20,0,1,4,3,4051311,1161150,0,4051021,0,0,0,-1020150,0,0,0,3031161,0,0,0,0,0,0,0,0,1161150,0,0,0,0,0,0,0,0,0,0,0,0,0,0,4051021,0,0,0,0
3,468,667.899314837996,1,0,513653.312443733,513654.359511166,0,4,20,0,1,6,3,10390521,0,1160030,0,0,0,0,4010140,0,-4190200,2190181,0,0,0,0,0,0,0,0,0,0,0,1160030,0,0,0,0,0,0,0,0,0,0,0,0,0,0,0,0,0
3,469,748.694077483378,1,0,513656.100752115,513657.147790676,0,4,20,0,1,26,7,1171151,2050021,12553384,4111090,0,0,1171151,0,0,0,0,0,0,0,2050021,0,0,0,0,0,0,0,0,3170021,4041031,0,0,2090100,2091031,-1161201,0,4111090,0,0,0,0,0,0,0,0
3,470,860.454834182747,1,0,513659.089002677,513660.136070495,0,4,20,0,1,23,7,2120200,8182211,10241492,3301252,0,0,0,0,0,0,2120200,0,0,0,0,4021151,0,0,4161060,0,0,0,4010201,0,2141130,0,-4090161,0,0,0,0,0,0,2181051,0,0,0,0,1120201,0
3,471,526.281256170478,1,0,513662.041984134,513663.089053877,0,4,20,1,1,27,7,6190232,2140171,8321121,5301201,0,3130181,0,0,0,0,3060051,0,0,0,0,2140171,0,0,0,0,0,0,0,0,0,3041021,2150030,0,0,0,-3130070,0,3140100,0,0,0,0,0,2161101,0
