sub_id,Trial,RT,Resp,Error,Fix_onset,Disp_onset,q1,q2,block,repeat,tid,tloc,d_setsize,quad1,quad2,quad3,quad4,loc1,loc2,loc3,loc4,loc5,loc6,loc7,loc8,loc9,loc10,loc11,loc12,loc13,loc14,loc15,loc16,loc17,loc18,loc19,loc20,loc21,loc22,loc23,loc24,loc25,loc26,loc27,loc28,loc29,loc30,loc31,loc32,loc33,loc34,loc35,loc36
4,1,1219.33573472779,1,0,340706.621600321,340707.668636006,0,15,1,1,1,2,3,4160170,1021031,0,3271190,0,-4160170,0,0,0,0,0,0,0,0,0,0,0,0,0,0,0,1021031,0,0,0,0,0,0,0,0,0,2180060,0,1091130,0,0,0,0,0,0
4,2,789.067563251592,1,0,340709.903876025,340710.950897082,0,15,1,0,1,17,3,0,3120200,5270342,3171010,0,0,0,0,0,0,0,0,0,0,0,0,0,0,0,0,-3120200,0,0,0,0,2120181,0,3150161,0,0,0,3171010,0,0,0,0,0,0,0,0
4,3,797.847752808593,0,0,340712.93913075,340713.986115235,0,15,1,0,0,36,3,4150181,2071130,0,7110271,0,0,0,0,0,0,4150181,0,0,0,0,0,0,0,0,0,0,2071130,0,0,0,0,0,0,0,0,0,0,0,0,3010151,0,0,0,0,-4100120
4,4,1230.35139264539,0,0,340715.809595621,340716.856624762,0,15,1,0,0,5,7,7372290,5290462,0,7222191,0,1030140,0,2171140,-4171010,0,0,0,0,0,1090151,3120181,0,0,0,1080130,0,0,0,0,0,0,0,0,0,0,0,0,3061131,0,0,0,0,0,4161060,0
4,5,1060.27910468401,1,0,340719.162439289,340720.209461501,0,15,1,1,1,12,7,5351211,9282202,0,5293383,4170050,0,0,0,1181161,0,0,0,0,4021040,0,-3171131,0,0,0,2090031,0,0,0,0,0,0,0,0,0,0,0,0,1041091,0,0,0,0,3171121,1081171,0
4,6,1228.04316674592,0,0,340722.44470306,340723.491727966,0,15,1,1,0,32,7,17681672,3131222,0,4120140,4060141,2090161,0,3181180,4200060,4150130,0,0,0,0,0,0,1081061,0,0,2050161,0,0,0,0,0,0,0,0,0,0,0,0,0,0,0,-4120140,0,0,0,0
4,7,520.54112451151,1,0,340725.868139714,340726.915160001,0,15,1,0,1,15,3,0,7323492,0,3191160,0,0,0,0,0,0,0,0,0,0,0,3171190,2111121,0,-2041181,0,0,0,0,0,0,0,0,0,0,0,0,0,0,0,0,3191160,0,0,0,0
4,8,759.747011645231,0,0,340728.621008251,340729.668078583,0,15,1,1,0,19,3,0,3131181,6261061,1140110,0,0,0,0,0,0,0,0,0,3131181,0,0,0,0,0,0,0,0,-3120020,3141041,0,0,0,0,0,0,0,0,0,0,1140110,0,0,0,0,0
4,9,542.110487178434,1,0,340731.444484787,340732.491482746,0,15,1,1,1,22,7,1101111,7222323,7152152,3112081,0,1101111,0,0,0,0,0,0,0,0,0,4051061,2040091,0,0,0,0,1131171,0,0,0,-4091101,0,0,3061051,0,0,0,0,0,0,1101061,0,2011020,0,0
4,10,671.732617134694,0,0,340734.067922519,340735.114936647,0,15,1,1,0,20,7,2201361,2151161,11313423,6352211,1190200,0,0,0,0,1011161,0,0,0,0,0,0,0,0,0,2151161,0,0,4201061,-4051181,0,0,0,0,3061181,0,0,0,0,0,0,3191151,3161060,0,0,0
4,11,714.643060637172,0,0,340736.867838675,340737.91487898,0,15,1,0,0,30,3,0,2020101,6241231,1171110,0,0,0,0,0,0,0,0,0,0,0,0,0,2020101,0,0,0,0,0,4121061,0,2120170,0,0,0,0,0,0,0,-1171110,0,0,0,0,0,0
4,12,842.691855155863,1,0,340739.655991193,340740.70301148,0,15,1,0,1,13,7,2201211,5251151,6141210,3201142,0,0,0,0,0,0,1121020,0,1080191,0,0,0,-1161141,0,4090010,0,0,0,0,0,0,0,0,0,4031050,0,2110160,0,0,0,0,2081091,0,1120051,0,0
4,13,671.179428289179,0,0,340742.67944186,340743.726463687,0,15,1,0,0,3,3,2091021,1191140,0,4281271,0,0,-2091021,0,0,0,0,0,0,0,0,0,1191140,0,0,0,0,0,0,0,0,0,0,0,0,0,0,0,0,0,0,1081160,0,0,3200111,0
4,14,592.882218363229,1,0,340745.608804604,340746.655798328,0,15,1,1,1,26,3,4131081,4130121,4190070,3170200,0,4131081,0,0,0,0,0,0,0,0,0,0,0,0,0,0,4130121,0,0,0,0,0,0,0,0,-4190070,0,0,0,0,3170200,0,0,0,0,0
4,15,918.017551419325,1,0,340748.314572782,340749.361602307,0,15,1,1,1,25,7,1191131,2080141,7313553,3251170,0,0,0,0,0,0,1191131,0,0,0,0,0,2080141,0,0,0,0,0,0,0,0,1131140,0,2031181,-2010091,0,2141141,0,0,2050100,1201070,0,0,0,0,0
4,16,507.246112741996,1,0,340751.432140629,340752.479156681,0,15,1,1,1,14,3,3191100,6221180,0,3181081,0,0,0,3191100,0,0,0,0,0,0,0,3061130,0,-3160050,0,0,0,0,0,0,0,0,0,0,0,0,0,0,3181081,0,0,0,0,0,0,0
4,17,778.369498089887,0,0,340754.185001081,340755.232020213,0,15,1,0,0,31,3,0,2051170,3100150,2331201,0,0,0,0,0,0,0,0,0,0,0,0,2051170,0,0,0,0,0,0,0,0,3100150,0,0,0,0,0,0,0,0,-1190151,0,1141050,0,0,0
4,18,633.650354109704,0,0,340757.196681567,340758.243701084,0,15,1,1,0,29,3,9303301,0,0,2130110,0,0,3071041,0,2071150,0,4161110,0,0,0,0,0,0,0,0,0,0,0,0,0,0,0,0,0,0,0,0,0,-2130110,0,0,0,0,0,0,0
4,19,747.177266341168,1,0,340760.066979537,340761.11421138,0,15,1,0,1,27,7,3031190,6152221,7142231,5311240,0,0,2010140,1021050,0,0,0,0,0,2051090,0,0,0,0,0,0,0,4101131,0,0,0,0,0,0,3111030,0,-4031201,0,1200060,0,0,0,0,4111180,0,0
4,20,1251.49960798444,1,0,340762.878877815,340763.925900797,0,15,1,0,1,10,7,3151170,13491492,5232242,3120190,0,0,0,0,0,0,3151170,0,0,-1201201,0,0,0,4160040,4100151,0,4030100,0,0,0,0,0,0,4091091,0,0,1141151,0,0,0,0,0,3120190,0,0,0
4,21,730.92883406207,0,0,340766.196435192,340767.243450474,0,15,1,0,0,18,7,9242272,4011010,7321281,3090280,2071071,0,0,0,3161021,0,4010180,0,0,0,0,0,0,0,0,0,0,-4011010,0,0,0,0,4201160,0,0,0,3120121,1020080,0,2070200,0,0,0,0,0,0
4,22,650.261034606956,0,0,340769.113995802,340770.161016474,0,15,1,1,0,35,3,0,0,2130060,8281492,0,0,0,0,0,0,0,0,0,0,0,0,0,0,0,0,0,0,0,0,0,2130060,0,0,0,0,0,0,4160200,0,0,0,3100141,0,-1021151,0
4,23,1198.94974207273,1,0,340771.949211723,340772.996241634,0,15,1,0,1,4,7,1151040,1030141,12230241,10222242,0,0,0,-1151040,0,0,0,0,0,0,0,0,1030141,0,0,0,0,0,4180110,4040100,4010031,0,0,0,0,0,0,0,3110021,0,3071191,0,4041030,0,0,0
4,24,1087.90351828793,0,0,340775.384413554,340776.43144539,0,15,1,1,0,11,7,7100091,9372212,5222231,4180021,0,0,3060050,4040041,0,0,0,0,0,0,-3091081,4090111,0,0,0,2191020,0,0,0,0,0,0,0,0,1071140,4151091,0,4180021,0,0,0,0,0,0,0,0
4,25,801.792062819004,1,0,340811.595172751,340812.642198042,0,15,2,1,1,19,3,0,3131181,6261061,1140110,0,0,0,0,0,0,0,0,0,3131181,0,0,0,0,0,0,0,0,-3120020,3141041,0,0,0,0,0,0,0,0,0,0,1140110,0,0,0,0,0
4,26,794.882013637107,1,0,340814.595129635,340815.642112581,0,15,2,1,1,29,3,9303301,0,0,2130110,0,0,3071041,0,2071150,0,4161110,0,0,0,0,0,0,0,0,0,0,0,0,0,0,0,0,0,0,0,0,0,-2130110,0,0,0,0,0,0,0
4,27,533.680227061268,1,0,340817.595004908,340818.642076394,0,15,2,0,1,27,3,5251242,0,3222272,0,0,0,2171151,0,0,0,3080091,0,0,0,0,0,0,0,0,0,0,0,0,0,0,1041201,0,0,0,0,-2181071,0,0,0,0,0,0,0,0,0
4,28,776.657191803679,1,0,340820.383188608,340821.430193112,0,15,2,0,1,31,3,0,1110101,3090041,3221181,0,0,0,0,0,0,0,0,0,0,0,0,0,0,0,1110101,0,0,0,0,0,0,0,0,3090041,0,0,0,0,0,-1120151,0,2101030,0,0,0
4,29,513.54792364873,0,0,340823.32425609,340824.371279841,0,15,2,1,0,14,3,3191100,6221180,0,3181081,0,0,0,3191100,0,0,0,0,0,0,0,3061130,0,-3160050,0,0,0,0,0,0,0,0,0,0,0,0,0,0,3181081,0,0,0,0,0,0,0
4,30,691.546557820402,1,0,340826.018090309,340827.065321723,0,15,2,0,1,4,3,5311142,0,1020071,4190070,0,0,0,-4180031,0,0,0,0,1131111,0,0,0,0,0,0,0,0,0,0,0,0,0,0,1020071,0,0,0,0,0,0,4190070,0,0,0,0,0
4,31,693.109499348793,1,0,340828.900565746,340829.947596042,0,15,2,1,1,20,7,2201361,2151161,11313423,6352211,1190200,0,0,0,0,1011161,0,0,0,0,0,0,0,0,0,2151161,0,0,4201061,-4051181,0,0,0,0,3061181,0,0,0,0,0,0,3191151,3161060,0,0,0
4,32,625.628922542091,0,0,340831.771075658,340832.818105568,0,15,2,0,0,17,7,1121131,3260131,2140180,11442563,0,0,0,0,0,1121131,0,0,0,0,0,1140100,0,0,0,0,-2120031,0,0,0,0,2140180,0,0,0,0,0,0,0,1040070,0,0,0,3201201,4050091,3151201
4,33,625.691286229994,0,0,340834.476933532,340835.523907623,0,15,2,0,0,18,3,3050101,1121091,1190131,1090040,0,0,3050101,0,0,0,0,0,0,0,0,0,0,0,0,0,0,-1121091,0,0,0,1190131,0,0,0,0,0,0,0,0,0,0,0,0,0,1090040
4,34,1236.77215649514,0,0,340837.323896536,340838.37089565,0,15,2,1,0,32,7,17681672,3131222,0,4120140,4060141,2090161,0,3181180,4200060,4150130,0,0,0,0,0,0,1081061,0,0,2050161,0,0,0,0,0,0,0,0,0,0,0,0,0,0,0,-4120140,0,0,0,0
4,35,995.082501263823,1,0,340840.688479204,340841.735499105,0,15,2,0,1,30,7,10301411,7162191,4151201,4331340,0,0,4021150,0,0,0,4080201,0,2200060,0,0,3141141,0,0,0,0,4021050,0,0,0,0,4151201,0,0,0,0,0,0,0,-2180140,0,0,0,0,0,2151200
4,36,878.392749815248,0,0,340843.747218857,340844.794241838,0,15,2,1,0,25,7,1191131,2080141,7313553,3251170,0,0,0,0,0,0,1191131,0,0,0,0,0,2080141,0,0,0,0,0,0,0,0,1131140,0,2031181,-2010091,0,2141141,0,0,2050100,1201070,0,0,0,0,0
4,37,706.019165168982,0,0,340846.782430081,340847.829451523,0,15,2,1,0,35,3,0,0,2130060,8281492,0,0,0,0,0,0,0,0,0,0,0,0,0,0,0,0,0,0,0,0,0,2130060,0,0,0,0,0,0,4160200,0,0,0,3100141,0,-1021151,0
4,38,1370.42405788088,0,0,340849.547054556,340850.594081387,0,15,2,0,0,5,7,9271351,10592332,3060030,0,0,0,0,0,-3090130,2011121,0,4170100,0,2160111,1050151,3201030,0,0,0,4181040,0,0,0,0,3060030,0,0,0,0,0,0,0,0,0,0,0,0,0,0,0
4,39,669.052518962417,0,0,340853.076359324,340854.12338885,0,15,2,0,0,3,7,9403302,6272190,1080191,4252191,4191111,0,-2191150,0,0,0,3021041,0,0,0,0,3161110,0,0,3111080,0,0,0,0,0,0,0,0,0,1080191,0,0,0,0,1161121,0,0,0,3091070,0,0
4,40,559.111133101396,1,0,340855.829234405,340856.876258541,0,15,2,0,1,10,3,4030190,3171170,6322161,0,4030190,0,0,0,0,0,0,0,0,-3171170,0,0,0,0,0,0,0,0,0,0,3161061,3161100,0,0,0,0,0,0,0,0,0,0,0,0,0,0
4,41,972.153071488719,0,0,340858.523279367,340859.570297344,0,15,2,0,0,13,7,4010080,8270402,7301150,7331390,0,0,0,0,0,0,4010080,0,0,3130070,0,0,-1120181,0,0,0,0,4020151,0,0,0,0,0,0,4120050,3181100,0,0,0,4151200,0,0,3180190,0,0,0
4,42,1364.14842429804,1,0,340861.570249608,340862.61727413,0,15,2,1,1,12,7,5351211,9282202,0,5293383,4170050,0,0,0,1181161,0,0,0,0,4021040,0,-3171131,0,0,0,2090031,0,0,0,0,0,0,0,0,0,0,0,0,1041091,0,0,0,0,3171121,1081171,0
4,43,630.991043755785,0,0,340865.111319554,340866.158347154,0,15,2,1,0,11,7,7100091,9372212,5222231,4180021,0,0,3060050,4040041,0,0,0,0,0,0,-3091081,4090111,0,0,0,2191020,0,0,0,0,0,0,0,0,1071140,4151091,0,4180021,0,0,0,0,0,0,0,0
4,44,700.732881261501,1,0,340867.946550103,340868.993581168,0,15,2,0,1,36,3,2220322,0,3060020,2090170,1150151,0,0,0,0,0,0,0,1070171,0,0,0,0,0,0,0,0,0,0,0,0,0,3060020,0,0,0,0,0,0,0,0,0,0,0,0,-2090170
4,45,607.553465582896,0,0,340870.781762559,340871.828782461,0,15,2,1,0,26,3,4131081,4130121,4190070,3170200,0,4131081,0,0,0,0,0,0,0,0,0,0,0,0,0,0,4130121,0,0,0,0,0,0,0,0,-4190070,0,0,0,0,3170200,0,0,0,0,0
4,46,582.116785109974,1,0,340873.464040419,340874.51106494,0,15,2,0,1,15,7,1111031,2180130,5211152,9632413,1111031,0,0,0,0,0,0,0,0,0,0,0,0,0,-2180130,0,0,0,0,0,0,4050131,0,0,1161021,0,0,0,1141080,4191091,2110171,2190071,0,0,0,0
4,47,924.471806851216,1,0,340876.12278831,340877.169816296,0,15,2,1,1,2,3,4160170,1021031,0,3271190,0,-4160170,0,0,0,0,0,0,0,0,0,0,0,0,0,0,0,1021031,0,0,0,0,0,0,0,0,0,2180060,0,1091130,0,0,0,0,0,0
4,48,445.198489993345,0,0,340879.205054853,340880.252082069,0,15,2,1,0,22,7,1101111,7222323,7152152,3112081,0,1101111,0,0,0,0,0,0,0,0,0,4051061,2040091,0,0,0,0,1131171,0,0,0,-4091101,0,0,3061051,0,0,0,0,0,0,1101061,0,2011020,0,0
4,49,820.901909901295,1,0,340914.862878068,340915.909906824,0,15,3,0,1,18,3,1150101,6241171,0,2060120,0,0,1150101,0,0,0,0,0,0,0,0,0,0,0,3041150,0,0,-3200021,0,0,0,0,0,0,0,0,0,0,0,0,2060120,0,0,0,0,0
4,50,917.604488320649,1,0,340917.839273032,340918.886296013,0,15,3,0,1,4,7,5170092,7142232,9361262,3071040,0,0,0,-4010041,0,0,1160051,0,0,0,0,0,0,0,0,4041151,0,3101081,4150111,0,0,0,0,3090081,0,0,2121070,0,0,3071040,0,0,0,0,0,0
4,51,774.525277956855,0,0,340920.933310525,340921.980329272,0,15,3,0,0,13,7,1150010,9352213,4150121,3240142,0,1150010,0,0,0,0,0,0,0,2111051,0,0,-2021021,1120080,0,4100061,0,0,0,0,0,0,0,0,4150121,0,0,0,0,0,0,0,1120121,2120021,0,0
4,52,780.78589803772,0,0,340923.897927609,340924.944945586,0,15,3,0,0,30,3,7331220,3201191,0,2091161,0,3171180,0,0,4160040,0,0,0,0,0,0,3201191,0,0,0,0,0,0,0,0,0,0,0,0,0,0,0,0,0,-2091161,0,0,0,0,0,0
4,53,707.999789272435,1,0,340926.897894117,340927.944867053,0,15,3,0,1,36,3,5421371,0,0,1030111,0,0,2170110,0,2161070,1090191,0,0,0,0,0,0,0,0,0,0,0,0,0,0,0,0,0,0,0,0,0,0,0,0,0,0,0,0,0,-1030111
4,54,782.59213489946,0,0,340929.733064997,340930.780096448,0,15,3,1,0,26,3,4131081,4130121,4190070,3170200,0,4131081,0,0,0,0,0,0,0,0,0,0,0,0,0,0,4130121,0,0,0,0,0,0,0,0,-4190070,0,0,0,0,3170200,0,0,0,0,0
4,55,551.653669390362,0,0,340932.580048405,340933.627072541,0,15,3,1,0,29,3,9303301,0,0,2130110,0,0,3071041,0,2071150,0,4161110,0,0,0,0,0,0,0,0,0,0,0,0,0,0,0,0,0,0,0,0,0,-2130110,0,0,0,0,0,0,0
4,56,892.617827223148,1,0,340935.227057681,340936.274047171,0,15,3,1,1,12,7,5351211,9282202,0,5293383,4170050,0,0,0,1181161,0,0,0,0,4021040,0,-3171131,0,0,0,2090031,0,0,0,0,0,0,0,0,0,0,0,0,1041091,0,0,0,0,3171121,1081171,0
4,57,545.876560267061,0,0,340938.285762688,340939.332776816,0,15,3,1,0,22,7,1101111,7222323,7152152,3112081,0,1101111,0,0,0,0,0,0,0,0,0,4051061,2040091,0,0,0,0,1131171,0,0,0,-4091101,0,0,3061051,0,0,0,0,0,0,1101061,0,2011020,0,0
4,58,626.236005977262,1,0,340941.003333384,340942.050351361,0,15,3,1,1,11,7,7100091,9372212,5222231,4180021,0,0,3060050,4040041,0,0,0,0,0,0,-3091081,4090111,0,0,0,2191020,0,0,0,0,0,0,0,0,1071140,4151091,0,4180021,0,0,0,0,0,0,0,0
4,59,651.539489917923,1,0,340943.72091409,340944.767959399,0,15,3,1,1,20,7,2201361,2151161,11313423,6352211,1190200,0,0,0,0,1011161,0,0,0,0,0,0,0,0,0,2151161,0,0,4201061,-4051181,0,0,0,0,3061181,0,0,0,0,0,0,3191151,3161060,0,0,0
4,60,866.281107999384,0,0,340946.603174165,340947.650205615,0,15,3,1,0,2,3,4160170,1021031,0,3271190,0,-4160170,0,0,0,0,0,0,0,0,0,0,0,0,0,0,0,1021031,0,0,0,0,0,0,0,0,0,2180060,0,1091130,0,0,0,0,0,0
4,61,601.428351714276,0,0,340949.603099097,340950.650113609,0,15,3,0,0,3,3,6172180,0,4252292,0,0,0,-3111020,0,0,0,0,3061160,0,0,0,0,0,0,0,0,0,0,0,1191131,0,0,0,3061161,0,0,0,0,0,0,0,0,0,0,0,0
4,62,479.75566558307,0,0,340952.414781584,340953.461865775,0,15,3,1,0,14,3,3191100,6221180,0,3181081,0,0,0,3191100,0,0,0,0,0,0,0,3061130,0,-3160050,0,0,0,0,0,0,0,0,0,0,0,0,0,0,3181081,0,0,0,0,0,0,0
4,63,882.214257202577,1,0,340955.132367294,340956.179373337,0,15,3,0,1,27,7,6470342,2071200,3232230,5221141,0,0,0,0,1200061,1090111,4180170,0,0,0,0,0,0,0,0,2071200,0,0,1061190,0,0,0,0,0,0,0,-2171040,0,0,3130130,0,0,0,0,0,2091011
4,64,708.383595396299,0,0,340958.238145712,340959.285167539,0,15,3,0,0,31,3,3010140,2080141,0,3110142,0,0,0,0,0,0,0,0,3010140,0,0,0,0,0,2080141,0,0,0,0,0,0,0,0,0,0,0,0,0,0,0,-2010041,0,0,0,1100101,0
4,65,1133.10563430423,1,0,340961.132171349,340962.179207804,0,15,3,0,1,5,7,5272250,3121201,4081020,9462212,0,0,0,0,-3171080,0,0,2101170,0,1091140,0,0,0,2030061,0,0,0,0,0,0,4081020,0,0,0,0,0,0,0,0,4140140,0,0,0,4141011,0,1181061
4,66,653.102431446314,0,1,340964.42620992,340965.473229822,0,15,3,1,1,19,3,0,3131181,6261061,1140110,0,0,0,0,0,0,0,0,0,3131181,0,0,0,0,0,0,0,0,-3120020,3141041,0,0,0,0,0,0,0,0,0,0,1140110,0,0,0,0,0
4,67,1239.66975766234,1,0,340967.202605731,340968.249628328,0,15,3,1,1,32,7,17681672,3131222,0,4120140,4060141,2090161,0,3181180,4200060,4150130,0,0,0,0,0,0,1081061,0,0,2050161,0,0,0,0,0,0,0,0,0,0,0,0,0,0,0,-4120140,0,0,0,0
4,68,611.779952014331,1,0,340970.649570814,340971.696593411,0,15,3,0,1,15,3,0,10191172,2170161,0,0,0,0,0,0,0,0,0,0,2080031,0,0,0,4070111,-4041030,0,0,0,0,0,0,0,2170161,0,0,0,0,0,0,0,0,0,0,0,0,0
4,69,763.004936277866,0,0,340973.461253302,340974.508275513,0,15,3,1,0,25,7,1191131,2080141,7313553,3251170,0,0,0,0,0,0,1191131,0,0,0,0,0,2080141,0,0,0,0,0,0,0,0,1131140,0,2031181,-2010091,0,2141141,0,0,2050100,1201070,0,0,0,0,0
4,70,620.928934193216,0,0,340976.308232475,340977.355255841,0,15,3,0,0,17,7,4121020,10473454,3081061,2070202,0,0,0,4121020,0,0,0,0,0,0,0,2191191,0,1020171,0,4171071,-3091021,0,0,3081061,0,0,0,0,0,0,0,1030031,0,0,0,0,0,0,1040171,0
4,71,715.7813902013,0,0,340979.037621472,340980.084587864,0,15,3,1,0,35,3,0,0,2130060,8281492,0,0,0,0,0,0,0,0,0,0,0,0,0,0,0,0,0,0,0,0,0,2130060,0,0,0,0,0,0,4160200,0,0,0,3100141,0,-1021151,0
4,72,1164.5877417177,0,0,340981.837492972,340982.884569078,0,15,3,0,0,10,7,6132092,6120361,7210381,1121090,0,0,0,0,0,0,2081081,4051011,0,-4070181,0,0,0,2050180,0,0,0,0,0,0,0,0,3050100,1140140,3020141,0,0,0,1121090,0,0,0,0,0,0,0
4,73,458.876922843046,0,0,341018.259996096,341019.307023312,0,15,4,1,0,2,3,4160170,1021031,0,3271190,0,-4160170,0,0,0,0,0,0,0,0,0,0,0,0,0,0,0,1021031,0,0,0,0,0,0,0,0,0,2180060,0,1091130,0,0,0,0,0,0
4,74,522.977157495916,0,0,341020.918754382,341021.965770819,0,15,4,0,0,15,7,5281280,4240121,5221152,5281230,3170100,0,0,2111180,0,0,0,0,0,0,0,0,0,2160041,-2080080,0,0,0,2050111,0,0,3171041,0,0,0,0,0,0,0,0,0,0,3181170,0,2100060,0
4,75,648.316981736571,0,0,341023.683376546,341024.730400298,0,15,4,1,0,35,3,0,0,2130060,8281492,0,0,0,0,0,0,0,0,0,0,0,0,0,0,0,0,0,0,0,0,0,2130060,0,0,0,0,0,0,4160200,0,0,0,3100141,0,-1021151,0
4,76,746.503584668972,0,0,341026.530356489,341027.577381395,0,15,4,0,0,30,3,2190211,4071120,0,1110010,0,0,0,0,1170130,1020081,0,0,0,4071120,0,0,0,0,0,0,0,0,0,0,0,0,0,0,0,0,0,0,0,-1110010,0,0,0,0,0,0
4,77,564.54870669404,0,0,341029.436162316,341030.483178368,0,15,4,0,0,13,3,1121111,5052181,3081170,0,0,0,0,0,0,0,0,0,1121111,0,0,0,-2031100,0,3021081,0,0,0,0,0,0,0,0,3081170,0,0,0,0,0,0,0,0,0,0,0,0
4,78,855.179988779128,0,0,341032.212550813,341033.259579183,0,15,4,0,0,5,3,2191091,0,7131170,4070060,0,0,0,0,-2191091,0,0,0,0,0,0,0,0,0,0,0,0,0,0,0,0,3010120,0,0,0,0,4121050,0,0,0,0,0,4070060,0,0,0
4,79,750.969901739154,0,0,341035.153646781,341036.200673227,0,15,4,0,0,18,7,9422401,7181192,6140290,4100150,0,0,0,4201031,1131200,4090170,0,0,0,0,4161181,0,0,0,0,0,0,-3020011,0,0,0,0,2070140,4070150,0,0,0,0,0,0,0,0,0,0,0,4100150
4,80,597.98603085801,1,0,341038.153566324,341039.200610863,0,15,4,0,1,17,7,6181371,9422202,4171141,1051181,3010150,0,1101061,0,2070160,0,0,0,0,0,0,0,0,3201010,0,0,-2171061,4050131,0,0,0,0,0,0,0,4171141,0,0,0,0,0,0,0,1051181,0,0
4,81,587.801888585091,1,0,341040.941722692,341041.988747214,0,15,4,1,1,26,3,4131081,4130121,4190070,3170200,0,4131081,0,0,0,0,0,0,0,0,0,0,0,0,0,0,4130121,0,0,0,0,0,0,0,0,-4190070,0,0,0,0,3170200,0,0,0,0,0
4,82,467.428060714155,0,0,341043.765166507,341044.812197957,0,15,4,1,0,29,3,9303301,0,0,2130110,0,0,3071041,0,2071150,0,4161110,0,0,0,0,0,0,0,0,0,0,0,0,0,0,0,0,0,0,0,0,0,-2130110,0,0,0,0,0,0,0
4,83,724.746361025609,0,0,341046.329831864,341047.376834058,0,15,4,1,0,11,7,7100091,9372212,5222231,4180021,0,0,3060050,4040041,0,0,0,0,0,0,-3091081,4090111,0,0,0,2191020,0,0,0,0,0,0,0,0,1071140,4151091,0,4180021,0,0,0,0,0,0,0,0
4,84,574.675874668173,0,0,341049.223853651,341050.270914359,0,15,4,0,0,10,7,7202261,12454321,2021120,2040071,0,0,0,0,0,0,4041170,3161091,0,-3021091,4161190,0,0,1171030,0,0,0,4101010,0,0,0,0,0,2021120,0,0,0,0,0,2040071,0,0,0,0,0,0
4,85,1460.51570167765,1,0,341051.870835211,341052.917893224,0,15,4,1,1,32,7,17681672,3131222,0,4120140,4060141,2090161,0,3181180,4200060,4150130,0,0,0,0,0,0,1081061,0,0,2050161,0,0,0,0,0,0,0,0,0,0,0,0,0,0,0,-4120140,0,0,0,0
4,86,1306.19062681217,0,0,341055.541311323,341056.588340079,0,15,4,0,0,31,7,4130130,5091370,3061081,9522403,4130130,0,0,0,0,0,0,0,0,0,0,1021170,4070200,0,0,0,0,0,0,0,0,3061081,0,0,0,0,0,1120161,0,0,-2120101,0,3181071,0,3101070,0
4,87,905.390831932891,1,0,341059.000043508,341060.047060715,0,15,4,0,1,36,3,4291121,0,4051011,4051180,0,2190060,0,0,0,0,2101061,0,0,0,0,0,0,0,0,0,0,0,0,0,0,0,0,4051011,0,0,0,0,0,0,0,0,0,0,0,-4051180
4,88,585.579508915544,1,0,341062.105836555,341063.152850682,0,15,4,0,1,27,7,7341422,0,4321231,11191283,0,1150101,0,3100120,0,0,3091201,0,0,0,0,0,0,0,0,0,0,0,0,0,3131050,0,0,0,0,0,-1190181,3131151,4040091,0,0,0,0,0,4020041,0
4,89,641.751087619923,1,0,341064.917519427,341065.964536634,0,15,4,1,1,20,7,2201361,2151161,11313423,6352211,1190200,0,0,0,0,1011161,0,0,0,0,0,0,0,0,0,2151161,0,0,4201061,-4051181,0,0,0,0,3061181,0,0,0,0,0,0,3191151,3161060,0,0,0
4,90,874.990079842974,1,0,341067.670389118,341068.71740517,0,15,4,1,1,19,3,0,3131181,6261061,1140110,0,0,0,0,0,0,0,0,0,3131181,0,0,0,0,0,0,0,0,-3120020,3141041,0,0,0,0,0,0,0,0,0,0,1140110,0,0,0,0,0
4,91,871.495404222514,1,0,341070.740888944,341071.78791847,0,15,4,0,1,4,3,5200081,0,3141101,2151121,0,0,1030041,-4170040,0,0,0,0,0,0,0,0,0,0,0,0,0,0,0,0,3141101,0,0,0,0,0,0,0,0,0,0,0,0,0,2151121,0
4,92,547.725142794661,0,0,341073.705517191,341074.752548256,0,15,4,1,0,22,7,1101111,7222323,7152152,3112081,0,1101111,0,0,0,0,0,0,0,0,0,4051061,2040091,0,0,0,0,1131171,0,0,0,-4091101,0,0,3061051,0,0,0,0,0,0,1101061,0,2011020,0,0
4,93,596.431943413336,1,0,341076.387785427,341077.434804944,0,15,4,1,1,14,3,3191100,6221180,0,3181081,0,0,0,3191100,0,0,0,0,0,0,0,3061130,0,-3160050,0,0,0,0,0,0,0,0,0,0,0,0,0,0,3181081,0,0,0,0,0,0,0
4,94,1289.47639180114,0,0,341079.234769989,341080.281793741,0,15,4,1,0,12,7,5351211,9282202,0,5293383,4170050,0,0,0,1181161,0,0,0,0,4021040,0,-3171131,0,0,0,2090031,0,0,0,0,0,0,0,0,0,0,0,0,1041091,0,0,0,0,3171121,1081171,0
4,95,690.59377949452,1,0,341082.587616737,341083.634643568,0,15,4,0,1,3,3,2080130,1030151,0,6112221,0,0,-2080130,0,0,0,0,0,0,0,0,0,0,0,1030151,0,0,0,0,0,0,0,0,0,0,0,0,0,2041151,0,0,0,0,4071070,0,0
4,96,730.247068218887,1,0,341085.364005619,341086.411037069,0,15,4,1,1,25,7,1191131,2080141,7313553,3251170,0,0,0,0,0,0,1191131,0,0,0,0,0,2080141,0,0,0,0,0,0,0,0,1131140,0,2031181,-2010091,0,2141141,0,0,2050100,1201070,0,0,0,0,0
4,97,906.857533147559,1,0,341121.363001255,341122.410026162,0,15,5,0,1,13,3,0,4011090,5290152,4071111,0,0,0,0,0,0,0,0,0,0,0,0,-4011090,0,0,0,0,0,0,0,0,0,3110051,0,0,2180101,0,0,0,0,0,0,4071111,0,0,0
4,98,1444.66300931526,1,0,341124.351185264,341125.398175523,0,15,5,1,1,25,7,1191131,2080141,7313553,3251170,0,0,0,0,0,0,1191131,0,0,0,0,0,2080141,0,0,0,0,0,0,0,0,1131140,0,2031181,-2010091,0,2141141,0,0,2050100,1201070,0,0,0,0,0
4,99,549.082515120972,0,0,341127.915759385,341128.962785061,0,15,5,1,0,2,3,4160170,1021031,0,3271190,0,-4160170,0,0,0,0,0,0,0,0,0,0,0,0,0,0,0,1021031,0,0,0,0,0,0,0,0,0,2180060,0,1091130,0,0,0,0,0,0
4,100,750.958737800829,0,0,341130.71568401,341131.762707761,0,15,5,0,0,27,7,0,8491291,6151112,10362233,0,0,0,0,0,0,0,0,0,0,0,0,0,0,4150130,2141060,0,2200101,0,3071061,0,0,0,0,0,0,-3080051,0,0,0,0,4141151,4121061,0,0,2100021
4,101,682.405659812503,1,0,341133.633250394,341134.680274531,0,15,5,0,1,36,3,8211052,0,3140041,2201101,0,0,0,0,0,4011021,0,0,4200031,0,0,0,0,0,0,0,0,0,0,0,3140041,0,0,0,0,0,0,0,0,0,0,0,0,0,0,-2201101
4,102,659.541673434433,1,0,341136.374344515,341137.421385975,0,15,5,1,1,11,7,7100091,9372212,5222231,4180021,0,0,3060050,4040041,0,0,0,0,0,0,-3091081,4090111,0,0,0,2191020,0,0,0,0,0,0,0,0,1071140,4151091,0,4180021,0,0,0,0,0,0,0,0
4,103,910.836489638314,1,0,341139.244904857,341140.291907435,0,15,5,0,1,3,3,3262140,0,4271161,0,1151100,0,-2111040,0,0,0,0,0,0,0,0,0,0,0,0,0,0,0,3180041,0,1091120,0,0,0,0,0,0,0,0,0,0,0,0,0,0,0
4,104,600.567194051109,1,0,341142.385952628,341143.43296791,0,15,5,1,1,35,3,0,0,2130060,8281492,0,0,0,0,0,0,0,0,0,0,0,0,0,0,0,0,0,0,0,0,0,2130060,0,0,0,0,0,0,4160200,0,0,0,3100141,0,-1021151,0
4,105,776.761901157442,0,0,341145.138811925,341146.185835677,0,15,5,1,0,20,7,2201361,2151161,11313423,6352211,1190200,0,0,0,0,1011161,0,0,0,0,0,0,0,0,0,2151161,0,0,4201061,-4051181,0,0,0,0,3061181,0,0,0,0,0,0,3191151,3161060,0,0,0
4,106,1091.44823881797,1,0,341148.174020455,341149.221039202,0,15,5,0,1,31,7,6221202,4352330,2052111,7182231,0,0,4160031,2061171,0,0,0,0,0,0,0,0,0,0,2161190,0,0,2191140,0,0,0,1021081,0,0,0,1031030,0,0,0,0,-3101081,0,0,0,4081150,0
4,107,1167.61084017344,1,0,341151.47980919,341152.52684141,0,15,5,0,1,5,3,11250282,1120081,0,0,0,3030011,4140131,0,-4080140,0,0,0,0,0,0,0,0,0,1120081,0,0,0,0,0,0,0,0,0,0,0,0,0,0,0,0,0,0,0,0,0
4,108,571.138083469123,1,0,341154.891483747,341155.938497874,0,15,5,0,1,30,3,0,2160061,4190031,5291240,0,0,0,0,0,0,0,0,0,0,0,0,0,2160061,0,0,0,0,0,0,0,4190031,0,0,0,0,0,0,0,-3121150,0,0,0,2170090,0,0
4,109,1248.73982288409,1,0,341157.573761992,341158.620836558,0,15,5,1,1,32,7,17681672,3131222,0,4120140,4060141,2090161,0,3181180,4200060,4150130,0,0,0,0,0,0,1081061,0,0,2050161,0,0,0,0,0,0,0,0,0,0,0,0,0,0,0,-4120140,0,0,0,0
4,110,824.964018014725,1,0,341161.032486093,341162.07950715,0,15,5,1,1,29,3,9303301,0,0,2130110,0,0,3071041,0,2071150,0,4161110,0,0,0,0,0,0,0,0,0,0,0,0,0,0,0,0,0,0,0,0,0,-2130110,0,0,0,0,0,0,0
4,111,651.994128827937,1,0,341163.985339154,341165.032360211,0,15,5,1,1,14,3,3191100,6221180,0,3181081,0,0,0,3191100,0,0,0,0,0,0,0,3061130,0,-3160050,0,0,0,0,0,0,0,0,0,0,0,0,0,0,3181081,0,0,0,0,0,0,0
4,112,663.803191273473,0,0,341166.86763965,341167.914636839,0,15,5,1,0,19,3,0,3131181,6261061,1140110,0,0,0,0,0,0,0,0,0,3131181,0,0,0,0,0,0,0,0,-3120020,3141041,0,0,0,0,0,0,0,0,0,0,1140110,0,0,0,0,0
4,113,1045.60208308976,0,0,341169.761652198,341170.808678644,0,15,5,1,0,26,3,4131081,4130121,4190070,3170200,0,4131081,0,0,0,0,0,0,0,0,0,0,0,0,0,0,4130121,0,0,0,0,0,0,0,0,-4190070,0,0,0,0,3170200,0,0,0,0,0
4,114,520.66854655277,0,0,341173.055705013,341174.102701432,0,15,5,1,0,22,7,1101111,7222323,7152152,3112081,0,1101111,0,0,0,0,0,0,0,0,0,4051061,2040091,0,0,0,0,1131171,0,0,0,-4091101,0,0,3061051,0,0,0,0,0,0,1101061,0,2011020,0,0
4,115,771.591490483843,0,0,341175.796771032,341176.843797093,0,15,5,1,0,12,7,5351211,9282202,0,5293383,4170050,0,0,0,1181161,0,0,0,0,4021040,0,-3171131,0,0,0,2090031,0,0,0,0,0,0,0,0,0,0,0,0,1041091,0,0,0,0,3171121,1081171,0
4,116,546.559865935706,0,0,341178.74965258,341179.796656314,0,15,5,0,0,15,7,11523543,3011160,3060191,6150121,0,0,0,1100201,4131101,0,0,4141060,2151181,0,0,0,0,0,-3011160,0,0,0,0,0,0,0,0,3060191,0,0,0,0,4110020,0,0,0,0,2040101,0,0
4,117,984.07300276449,0,0,341181.373090697,341182.420110214,0,15,5,0,0,17,7,3320131,5372291,7310212,7180171,0,0,0,2140091,1180040,0,0,0,0,1171201,0,0,0,0,0,0,-4201090,0,0,0,0,0,0,3170011,0,4140201,0,4010150,3170021,0,0,0,0,0,0,0
4,118,648.492908920161,1,0,341184.490648536,341185.537673057,0,15,5,0,1,10,3,0,5322100,3021120,2180141,0,0,0,0,0,0,0,0,0,-4121030,0,0,1201070,0,0,0,0,0,0,0,3021120,0,0,0,0,0,0,0,0,0,0,0,0,0,0,2180141
4,119,658.638939959928,0,0,341187.337629248,341188.384658004,0,15,5,0,0,18,7,5260292,7321211,2180261,7341111,0,0,0,0,0,4110091,1150201,0,0,0,0,0,0,0,4201170,0,0,-3120041,0,0,1110200,0,0,1070061,0,0,0,4151031,0,0,0,3190080,0,0,0,0
4,120,927.472962532192,0,0,341190.231664894,341191.278690185,0,15,5,0,0,4,7,4111162,1150060,7303312,6162160,0,0,0,-2091021,2020141,0,0,0,0,0,0,0,0,0,0,1150060,0,0,3061140,0,1051011,3191161,0,0,0,0,0,0,4141040,0,2021120,0,0,0,0,0
4,121,1377.13084771531,0,0,341226.383593972,341227.430621188,0,15,6,1,0,11,7,7100091,9372212,5222231,4180021,0,0,3060050,4040041,0,0,0,0,0,0,-3091081,4090111,0,0,0,2191020,0,0,0,0,0,0,0,0,1071140,4151091,0,4180021,0,0,0,0,0,0,0,0
4,122,1045.25946779177,0,0,341229.983492496,341231.030514323,0,15,6,1,0,29,3,9303301,0,0,2130110,0,0,3071041,0,2071150,0,4161110,0,0,0,0,0,0,0,0,0,0,0,0,0,0,0,0,0,0,0,0,0,-2130110,0,0,0,0,0,0,0
4,123,689.572862989735,0,0,341233.195171365,341234.242197811,0,15,6,0,0,10,7,7282251,7382281,1020160,7222152,0,0,3131130,4151121,0,0,0,0,0,-4141170,0,0,1051090,0,2190021,0,0,0,0,0,0,0,1020160,0,0,0,0,0,0,0,0,0,4121011,3101141,0,0
4,124,2282.48896537116,1,0,341236.089203161,341237.136226528,0,15,6,0,1,13,3,0,9322461,2121141,0,0,0,0,0,0,0,0,0,0,3110161,0,0,-3111110,0,0,0,0,3101190,0,0,0,0,0,0,2121141,0,0,0,0,0,0,0,0,0,0,0
4,125,1056.10728275497,0,0,341240.571431439,341241.618463659,0,15,6,0,0,31,7,4110081,5081281,7340212,10201191,4110081,0,0,0,0,0,0,0,0,2051080,0,3030201,0,0,0,0,0,0,0,0,0,0,0,0,0,3140161,4200051,0,0,0,-4100020,0,4061101,0,2040070,0
4,126,765.360897348728,1,0,341243.83016524,341244.877192071,0,15,6,1,1,35,3,0,0,2130060,8281492,0,0,0,0,0,0,0,0,0,0,0,0,0,0,0,0,0,0,0,0,0,2130060,0,0,0,0,0,0,4160200,0,0,0,3100141,0,-1021151,0
4,127,814.233616169076,0,0,341246.771263134,341247.81828342,0,15,6,1,0,25,7,1191131,2080141,7313553,3251170,0,0,0,0,0,0,1191131,0,0,0,0,0,2080141,0,0,0,0,0,0,0,0,1131140,0,2031181,-2010091,0,2141141,0,0,2050100,1201070,0,0,0,0,0
4,128,1269.23129480565,1,0,341249.818233375,341250.865259436,0,15,6,0,1,3,7,7252251,4250250,4071161,6092291,0,0,-3161080,0,4091171,0,0,0,0,0,0,0,0,0,0,1110150,3140100,0,0,0,0,0,0,4071161,0,0,0,0,0,0,1021120,0,3020120,0,0,2051051
4,129,603.602226299699,0,0,341253.229909857,341254.2769236,0,15,6,0,0,17,7,5321270,5272181,0,8223291,0,0,1181160,0,3030090,0,1110020,0,0,0,0,0,0,0,4071110,0,-1201071,0,0,0,0,0,0,0,0,0,0,4131060,0,0,1011140,0,0,0,0,3081091
4,130,618.111789808609,0,0,341256.006295274,341257.053319795,0,15,6,0,0,27,3,1031150,0,8101181,1050090,0,0,0,0,0,1031150,0,0,0,0,0,0,0,0,0,0,0,0,0,0,0,0,0,0,4040121,0,-4061060,0,0,0,1050090,0,0,0,0,0
4,131,602.515481470618,0,0,341258.72386597,341259.770891646,0,15,6,1,0,22,7,1101111,7222323,7152152,3112081,0,1101111,0,0,0,0,0,0,0,0,0,4051061,2040091,0,0,0,0,1131171,0,0,0,-4091101,0,0,3061051,0,0,0,0,0,0,1101061,0,2011020,0,0
4,132,432.963275758084,0,0,341261.488501608,341262.535518431,0,15,6,0,0,15,3,4191060,1011161,1140030,0,1140050,0,0,0,0,0,0,3051010,0,0,0,0,0,0,-1011161,0,0,0,0,0,0,0,0,0,0,0,1140030,0,0,0,0,0,0,0,0,0
4,133,803.6633580341,1,0,341264.076678841,341265.12367834,0,15,6,0,1,36,3,0,3051071,3120010,3241210,0,0,0,0,0,0,0,0,0,0,0,0,0,0,0,3051071,0,0,0,3120010,0,0,0,0,0,0,0,0,0,0,0,0,0,2160190,0,-1081020
4,134,849.606523988768,1,0,341267.111655449,341268.158892259,0,15,6,1,1,2,3,4160170,1021031,0,3271190,0,-4160170,0,0,0,0,0,0,0,0,0,0,0,0,0,0,0,1021031,0,0,0,0,0,0,0,0,0,2180060,0,1091130,0,0,0,0,0,0
4,135,614.643676555716,1,0,341270.217670024,341271.264759218,0,15,6,1,1,20,7,2201361,2151161,11313423,6352211,1190200,0,0,0,0,1011161,0,0,0,0,0,0,0,0,0,2151161,0,0,4201061,-4051181,0,0,0,0,3061181,0,0,0,0,0,0,3191151,3161060,0,0,0
4,136,1283.73546898365,0,0,341273.017586564,341274.064605311,0,15,6,1,0,32,7,17681672,3131222,0,4120140,4060141,2090161,0,3181180,4200060,4150130,0,0,0,0,0,0,1081061,0,0,2050161,0,0,0,0,0,0,0,0,0,0,0,0,0,0,0,-4120140,0,0,0,0
4,137,1138.46390595427,0,0,341276.405723068,341277.452746049,0,15,6,1,0,26,3,4131081,4130121,4190070,3170200,0,4131081,0,0,0,0,0,0,0,0,0,0,0,0,0,0,4130121,0,0,0,0,0,0,0,0,-4190070,0,0,0,0,3170200,0,0,0,0,0
4,138,595.834099047352,1,0,341279.711519502,341280.758542099,0,15,6,1,1,14,3,3191100,6221180,0,3181081,0,0,0,3191100,0,0,0,0,0,0,0,3061130,0,-3160050,0,0,0,0,0,0,0,0,0,0,0,0,0,0,3181081,0,0,0,0,0,0,0
4,139,1225.3815465956,1,0,341282.393790818,341283.440817649,0,15,6,0,1,5,7,2111070,11341592,3020091,4290131,0,0,0,0,-2111070,0,0,0,0,2090131,3020180,0,0,0,0,3071141,0,3160140,0,0,0,0,3020091,0,0,0,0,0,0,3150110,0,0,0,0,1140021,0
4,140,894.166525162291,1,0,341285.781936561,341286.828954153,0,15,6,0,1,18,3,6351132,1140100,0,0,0,2130051,0,0,3051030,0,0,1170051,0,0,0,0,0,0,0,0,0,-1140100,0,0,0,0,0,0,0,0,0,0,0,0,0,0,0,0,0,0
4,141,818.326906068251,1,0,341288.734792702,341289.781812989,0,15,6,1,1,19,3,0,3131181,6261061,1140110,0,0,0,0,0,0,0,0,0,3131181,0,0,0,0,0,0,0,0,-3120020,3141041,0,0,0,0,0,0,0,0,0,0,1140110,0,0,0,0,0
4,142,783.536059141625,0,0,341291.64059237,341292.687623051,0,15,6,0,0,4,7,10312351,6320190,4021020,3131140,3201141,3101190,0,-4010020,0,0,0,0,0,0,0,1150080,0,0,0,4120070,1050040,0,0,0,0,0,0,0,0,0,4021020,0,0,0,3131140,0,0,0,0,0
4,143,753.383221977856,1,0,341294.67579705,341295.722827345,0,15,6,0,1,30,3,2181130,1181051,0,3362292,0,0,2181130,0,0,0,0,0,0,0,0,1181051,0,0,0,0,0,0,0,0,0,0,0,0,0,0,0,0,0,-1161161,0,0,0,0,2201131,0
4,144,998.06633364642,0,0,341297.616891093,341298.663923699,0,15,6,1,0,12,7,5351211,9282202,0,5293383,4170050,0,0,0,1181161,0,0,0,0,4021040,0,-3171131,0,0,0,2090031,0,0,0,0,0,0,0,0,0,0,0,0,1041091,0,0,0,0,3171121,1081171,0
4,145,1039.09316315548,1,0,341333.827643746,341334.874669807,0,15,7,1,1,2,3,4160170,1021031,0,3271190,0,-4160170,0,0,0,0,0,0,0,0,0,0,0,0,0,0,0,1021031,0,0,0,0,0,0,0,0,0,2180060,0,1091130,0,0,0,0,0,0
4,146,488.500823674258,0,0,341336.945203124,341337.99223111,0,15,7,0,0,13,3,0,8201332,0,2050050,0,0,0,0,0,0,0,0,0,0,4061191,0,-2080030,0,2060111,0,0,0,0,0,0,0,0,0,0,0,0,0,0,0,0,0,0,0,2050050,0
4,147,443.768744997215,1,0,341339.556933424,341340.603919834,0,15,7,1,1,22,7,1101111,7222323,7152152,3112081,0,1101111,0,0,0,0,0,0,0,0,0,4051061,2040091,0,0,0,0,1131171,0,0,0,-4091101,0,0,3061051,0,0,0,0,0,0,1101061,0,2011020,0,0
4,148,553.64545743214,1,0,341342.098067657,341343.145021731,0,15,7,0,1,17,3,0,4100220,4200030,3111071,0,0,0,0,0,0,0,0,0,0,0,1090020,0,0,0,0,-3010200,0,0,0,0,0,0,4200030,0,0,0,0,0,0,0,0,0,0,0,3111071
4,149,1170.75481632492,0,0,341344.803872022,341345.850881914,0,15,7,0,0,3,7,8312472,2140050,10230271,0,2050101,0,-1020071,2161120,0,3081180,0,0,0,0,0,0,0,2140050,0,0,0,0,0,0,0,2050040,0,0,4110190,4070041,0,0,0,0,0,0,0,0,0,0
4,150,897.480654006358,0,0,341348.086074584,341349.13309564,0,15,7,0,0,27,7,7422233,3081110,7461253,0,2151051,0,0,4150011,0,0,0,0,1121171,0,0,0,0,0,0,0,3081110,0,0,0,1010061,0,0,0,2191080,2060071,-2200041,0,0,0,0,0,0,0,0,0
4,151,828.686590481084,0,0,341351.085997976,341352.133005174,0,15,7,0,0,36,7,3120021,1030031,11121360,4332261,0,0,0,0,0,3120021,0,0,0,0,0,0,0,0,1030031,0,0,0,4051160,0,3030160,0,0,0,0,0,4040040,0,0,1130140,0,0,2071031,0,0,-1131090
4,152,429.895136912819,0,0,341354.144719536,341355.191780629,0,15,7,1,0,14,3,3191100,6221180,0,3181081,0,0,0,3191100,0,0,0,0,0,0,0,3061130,0,-3160050,0,0,0,0,0,0,0,0,0,0,0,0,0,0,3181081,0,0,0,0,0,0,0
4,153,748.638963093981,1,0,341356.779946313,341357.82696891,0,15,7,1,1,29,3,9303301,0,0,2130110,0,0,3071041,0,2071150,0,4161110,0,0,0,0,0,0,0,0,0,0,0,0,0,0,0,0,0,0,0,0,0,-2130110,0,0,0,0,0,0,0
4,154,804.84980775509,0,0,341359.744566861,341360.791585993,0,15,7,0,0,31,3,5141062,0,4010091,1091140,0,0,2081041,0,0,0,0,0,3060021,0,0,0,0,0,0,0,0,0,4010091,0,0,0,0,0,0,0,0,0,0,0,-1091140,0,0,0,0,0
4,155,854.874329757877,0,0,341362.744477935,341363.791507846,0,15,7,0,0,5,7,4041090,6482512,6142170,1140010,0,0,0,0,-4041090,0,0,0,0,0,1150120,2040181,2141051,0,0,1151160,0,0,0,0,0,0,4031070,0,0,2111100,0,0,0,0,0,1140010,0,0,0,0
4,156,671.812304062769,1,0,341365.779699938,341366.826724459,0,15,7,0,1,10,7,1180050,10360301,8261321,6182261,0,1180050,0,0,0,0,0,0,0,-4190120,0,3090170,0,0,3080011,0,0,0,0,0,0,0,4090181,0,4171140,0,0,0,3091161,0,0,0,3091100,0,0,0
4,157,533.309124701191,0,0,341368.661962708,341369.708990309,0,15,7,1,0,11,7,7100091,9372212,5222231,4180021,0,0,3060050,4040041,0,0,0,0,0,0,-3091081,4090111,0,0,0,2191020,0,0,0,0,0,0,0,0,1071140,4151091,0,4180021,0,0,0,0,0,0,0,0
4,158,636.200720444322,1,0,341371.344245572,341372.391267014,0,15,7,0,1,15,3,0,1070101,0,10431342,0,0,0,0,0,0,0,0,0,0,0,0,0,0,-1070101,0,0,0,0,0,0,0,0,0,0,0,0,4180170,0,0,0,4080121,0,0,0,2171051
4,159,809.623708657455,1,0,341374.21474971,341375.261779235,0,15,7,0,1,30,3,0,3131031,4011021,4311330,0,0,0,0,0,0,0,0,0,0,3131031,0,0,0,0,0,0,0,0,0,0,0,0,0,0,0,4011021,0,0,-1191150,0,0,3120180,0,0,0
4,160,761.994798667729,1,0,341377.085261161,341378.132311475,0,15,7,1,1,19,3,0,3131181,6261061,1140110,0,0,0,0,0,0,0,0,0,3131181,0,0,0,0,0,0,0,0,-3120020,3141041,0,0,0,0,0,0,0,0,0,0,1140110,0,0,0,0,0
4,161,974.661092215683,0,0,341379.920530206,341380.967523931,0,15,7,1,0,35,3,0,0,2130060,8281492,0,0,0,0,0,0,0,0,0,0,0,0,0,0,0,0,0,0,0,0,0,2130060,0,0,0,0,0,0,4160200,0,0,0,3100141,0,-1021151,0
4,162,788.626782945357,1,0,341382.955682917,341384.002707438,0,15,7,1,1,32,7,17681672,3131222,0,4120140,4060141,2090161,0,3181180,4200060,4150130,0,0,0,0,0,0,1081061,0,0,2050161,0,0,0,0,0,0,0,0,0,0,0,0,0,0,0,-4120140,0,0,0,0
4,163,798.137628415134,0,0,341385.979124729,341387.026147711,0,15,7,0,0,4,3,6243251,0,0,1121021,1021101,0,0,-4151020,0,0,0,1071130,0,0,0,0,0,0,0,0,0,0,0,0,0,0,0,0,0,0,0,0,0,0,0,1121021,0,0,0,0
4,164,503.907731326763,0,0,341388.967272936,341390.014292453,0,15,7,0,0,18,7,9171320,2130141,3071101,4281201,0,3060070,0,0,2020040,0,3021060,0,1070150,0,0,0,0,0,0,0,0,-2130141,0,0,3071101,0,0,0,0,0,0,0,0,0,0,0,3191140,1090061,0,0
4,165,842.149445204996,0,0,341391.67308577,341392.720110291,0,15,7,1,0,20,7,2201361,2151161,11313423,6352211,1190200,0,0,0,0,1011161,0,0,0,0,0,0,0,0,0,2151161,0,0,4201061,-4051181,0,0,0,0,3061181,0,0,0,0,0,0,3191151,3161060,0,0,0
4,166,692.674493475351,1,0,341394.649477654,341395.696491396,0,15,7,1,1,26,3,4131081,4130121,4190070,3170200,0,4131081,0,0,0,0,0,0,0,0,0,0,0,0,0,0,4130121,0,0,0,0,0,0,0,0,-4190070,0,0,0,0,3170200,0,0,0,0,0
4,167,1151.7019434832,1,0,341397.602359587,341398.649356391,0,15,7,1,1,12,7,5351211,9282202,0,5293383,4170050,0,0,0,1181161,0,0,0,0,4021040,0,-3171131,0,0,0,2090031,0,0,0,0,0,0,0,0,0,0,0,0,1041091,0,0,0,0,3171121,1081171,0
4,168,648.271941347048,0,0,341400.872826614,341401.919844206,0,15,7,1,0,25,7,1191131,2080141,7313553,3251170,0,0,0,0,0,0,1191131,0,0,0,0,0,2080141,0,0,0,0,0,0,0,0,1131140,0,2031181,-2010091,0,2141141,0,0,2050100,1201070,0,0,0,0,0
4,169,2190.63689507311,1,0,341436.754163553,341437.801201933,0,15,8,1,1,2,3,4160170,1021031,0,3271190,0,-4160170,0,0,0,0,0,0,0,0,0,0,0,0,0,0,0,1021031,0,0,0,0,0,0,0,0,0,2180060,0,1091130,0,0,0,0,0,0
4,170,1472.12496941211,1,0,341441.177575954,341442.224595856,0,15,8,0,1,5,7,2251160,10471444,4321151,0,0,0,0,0,-1181080,0,0,1070080,0,0,0,4150161,0,1191181,0,1090081,4040021,0,0,0,0,0,3171010,0,0,1150141,0,0,0,0,0,0,0,0,0,0
4,171,1131.88030361198,0,0,341444.859885381,341445.906888345,0,15,8,0,0,10,3,1150131,5321290,3081151,0,1150131,0,0,0,0,0,0,0,0,-1160130,0,0,0,0,0,4161160,0,0,0,3081151,0,0,0,0,0,0,0,0,0,0,0,0,0,0,0,0
4,172,1581.22483058833,1,0,341448.130326231,341449.177350752,0,15,8,1,1,32,7,17681672,3131222,0,4120140,4060141,2090161,0,3181180,4200060,4150130,0,0,0,0,0,0,1081061,0,0,2050161,0,0,0,0,0,0,0,0,0,0,0,0,0,0,0,-4120140,0,0,0,0
4,173,987.769397906959,1,0,341451.847871905,341452.894935307,0,15,8,0,1,3,7,10543444,4120100,5131081,1100141,0,3160061,-3161131,0,3061171,0,0,0,1161081,0,0,0,0,0,0,0,0,4120100,0,0,2091041,0,3040040,0,0,0,0,1100141,0,0,0,0,0,0,0,0
4,174,652.630084368866,1,0,341455.03601811,341456.083037627,0,15,8,1,1,35,3,0,0,2130060,8281492,0,0,0,0,0,0,0,0,0,0,0,0,0,0,0,0,0,0,0,0,0,2130060,0,0,0,0,0,0,4160200,0,0,0,3100141,0,-1021151,0
4,175,836.073991318699,0,0,341457.812410071,341458.859429203,0,15,8,1,0,12,7,5351211,9282202,0,5293383,4170050,0,0,0,1181161,0,0,0,0,4021040,0,-3171131,0,0,0,2090031,0,0,0,0,0,0,0,0,0,0,0,0,1041091,0,0,0,0,3171121,1081171,0
4,176,823.261335666757,0,0,341460.812324995,341461.859344511,0,15,8,1,0,14,3,3191100,6221180,0,3181081,0,0,0,3191100,0,0,0,0,0,0,0,3061130,0,-3160050,0,0,0,0,0,0,0,0,0,0,0,0,0,0,3181081,0,0,0,0,0,0,0
4,177,825.723930960521,1,0,341463.835827246,341464.882818661,0,15,8,0,1,30,7,7471321,2240121,5221331,3080151,0,1200100,0,0,0,4131090,0,2140131,0,0,0,0,0,0,0,1110081,1130040,0,0,0,0,0,2140131,0,0,3081200,0,0,0,-3080151,0,0,0,0,0,0
4,178,1963.86409213301,1,1,341466.74156763,341467.788592151,0,15,8,0,0,18,3,0,6240202,0,8260311,0,0,0,0,0,0,0,0,0,0,0,0,0,0,0,2080081,0,-4160121,0,0,0,0,0,0,0,0,0,0,0,0,0,0,0,4090141,4170170,0
4,179,1572.79072090751,0,0,341470.788505535,341471.835530441,0,15,8,1,0,29,3,9303301,0,0,2130110,0,0,3071041,0,2071150,0,4161110,0,0,0,0,0,0,0,0,0,0,0,0,0,0,0,0,0,0,0,0,0,-2130110,0,0,0,0,0,0,0
4,180,915.733963018283,1,0,341474.529595036,341475.576609163,0,15,8,0,1,27,7,7162132,4351301,5162132,2171130,0,0,3131101,0,0,4031031,0,0,0,0,1051080,1190141,0,0,0,0,0,2110080,0,0,0,0,0,3081111,0,0,-2081021,0,0,2171130,0,0,0,0,0,0
4,181,803.559033665806,0,0,341477.611847335,341478.658873396,0,15,8,1,0,20,7,2201361,2151161,11313423,6352211,1190200,0,0,0,0,1011161,0,0,0,0,0,0,0,0,0,2151161,0,0,4201061,-4051181,0,0,0,0,3061181,0,0,0,0,0,0,3191151,3161060,0,0,0
4,182,524.606697203126,0,0,341480.611771113,341481.658786395,0,15,8,0,0,17,3,2200010,1111130,4010111,3151040,0,0,0,0,0,0,2200010,0,0,0,0,0,0,0,0,0,-1111130,0,0,0,0,0,0,0,0,4010111,0,0,0,0,0,0,3151040,0,0,0
4,183,964.996262278873,1,0,341483.282277637,341484.329315632,0,15,8,1,1,25,7,1191131,2080141,7313553,3251170,0,0,0,0,0,0,1191131,0,0,0,0,0,2080141,0,0,0,0,0,0,0,0,1131140,0,2031181,-2010091,0,2141141,0,0,2050100,1201070,0,0,0,0,0
4,184,457.594232982956,1,0,341486.411601037,341487.458629408,0,15,8,0,1,15,3,1161040,1171061,6170101,0,0,0,0,0,0,0,0,1161040,0,0,0,0,0,0,-1171061,0,0,0,0,0,0,0,0,4150020,0,0,2020081,0,0,0,0,0,0,0,0,0
4,185,715.475346252788,0,0,341489.058589526,341490.105611352,0,15,8,0,0,31,3,1020050,3140010,4011090,1030031,0,0,0,1020050,0,0,0,0,0,0,3140010,0,0,0,0,0,0,0,0,0,0,0,4011090,0,0,0,0,0,0,0,-1030031,0,0,0,0,0
4,186,845.667218440212,1,0,341491.964427305,341493.011416795,0,15,8,0,1,13,7,4192231,6312391,3131201,3031191,2081090,2111141,0,0,0,0,0,0,0,0,2030061,1171140,-3111190,0,0,0,0,0,0,0,3131201,0,0,0,0,0,0,1011090,0,0,2020101,0,0,0,0,0
4,187,642.14913721662,0,0,341494.881949419,341495.92897394,0,15,8,1,0,26,3,4131081,4130121,4190070,3170200,0,4131081,0,0,0,0,0,0,0,0,0,0,0,0,0,0,4130121,0,0,0,0,0,0,0,0,-4190070,0,0,0,0,3170200,0,0,0,0,0
4,188,775.891889410559,0,0,341497.670114256,341498.717133388,0,15,8,0,0,4,7,6141172,5362121,11101332,0,0,1071030,0,-3040111,0,2030031,0,0,0,0,0,4161011,0,0,1201110,0,0,0,0,0,0,0,4021120,3060101,0,4020111,0,0,0,0,0,0,0,0,0,0
4,189,742.245146480855,1,0,341500.528851292,341501.575876198,0,15,8,1,1,11,7,7100091,9372212,5222231,4180021,0,0,3060050,4040041,0,0,0,0,0,0,-3091081,4090111,0,0,0,2191020,0,0,0,0,0,0,0,0,1071140,4151091,0,4180021,0,0,0,0,0,0,0,0
4,190,487.474517780356,1,0,341503.493476459,341504.54050021,0,15,8,1,1,22,7,1101111,7222323,7152152,3112081,0,1101111,0,0,0,0,0,0,0,0,0,4051061,2040091,0,0,0,0,1131171,0,0,0,-4091101,0,0,3061051,0,0,0,0,0,0,1101061,0,2011020,0,0
4,191,836.065907147713,0,0,341506.11692651,341507.163945257,0,15,8,0,0,36,3,4190190,2071081,0,5232241,0,0,0,0,4190190,0,0,0,0,0,2071081,0,0,0,0,0,0,0,0,0,0,0,0,0,0,0,0,0,0,0,0,4171101,0,0,0,-1061140
4,192,694.874160399195,0,0,341509.105087036,341510.152223965,0,15,8,1,0,19,3,0,3131181,6261061,1140110,0,0,0,0,0,0,0,0,0,3131181,0,0,0,0,0,0,0,0,-3120020,3141041,0,0,0,0,0,0,0,0,0,0,1140110,0,0,0,0,0
4,193,840.042553842068,1,0,341545.08053692,341546.127564521,0,15,9,1,1,35,3,0,0,2130060,8281492,0,0,0,0,0,0,0,0,0,0,0,0,0,0,0,0,0,0,0,0,0,2130060,0,0,0,0,0,0,4160200,0,0,0,3100141,0,-1021151,0
4,194,1043.57564856764,1,0,341547.998108309,341549.045130906,0,15,9,1,1,12,7,5351211,9282202,0,5293383,4170050,0,0,0,1181161,0,0,0,0,4021040,0,-3171131,0,0,0,2090031,0,0,0,0,0,0,0,0,0,0,0,0,1041091,0,0,0,0,3171121,1081171,0
4,195,804.071801656391,0,0,341551.174490877,341552.221517708,0,15,9,0,0,30,3,0,2180131,5181231,3150150,0,0,0,0,0,0,0,0,0,0,0,0,0,0,0,2180131,0,0,0,0,0,3090100,2091131,0,0,0,0,0,0,-3150150,0,0,0,0,0,0
4,196,572.590156225488,0,0,341554.150886611,341555.197894579,0,15,9,0,0,27,3,0,1081041,4191011,4172270,0,0,0,0,0,0,0,0,0,0,0,0,0,0,0,1081041,0,0,0,0,0,0,0,0,0,0,-4191011,0,0,0,2041090,0,0,2131180,0,0
4,197,617.033514252398,0,0,341556.868446528,341557.915469895,0,15,9,1,0,2,3,4160170,1021031,0,3271190,0,-4160170,0,0,0,0,0,0,0,0,0,0,0,0,0,0,0,1021031,0,0,0,0,0,0,0,0,0,2180060,0,1091130,0,0,0,0,0,0
4,198,534.633775358088,1,0,341559.59779087,341560.644810387,0,15,9,1,1,22,7,1101111,7222323,7152152,3112081,0,1101111,0,0,0,0,0,0,0,0,0,4051061,2040091,0,0,0,0,1131171,0,0,0,-4091101,0,0,3061051,0,0,0,0,0,0,1101061,0,2011020,0,0
4,199,751.656672102399,0,0,341562.19773405,341563.244728544,0,15,9,1,0,32,7,17681672,3131222,0,4120140,4060141,2090161,0,3181180,4200060,4150130,0,0,0,0,0,0,1081061,0,0,2050161,0,0,0,0,0,0,0,0,0,0,0,0,0,0,0,-4120140,0,0,0,0
4,200,1442.12034216616,1,0,341565.209393363,341566.256414034,0,15,9,0,1,3,3,1010120,0,5270381,4161160,0,0,-1010120,0,0,0,0,0,0,0,0,0,0,0,0,0,0,0,3100181,0,0,0,0,2170200,0,0,0,0,0,0,0,0,4161160,0,0,0
4,201,812.281864113174,1,0,341568.76222964,341569.809253776,0,15,9,0,1,31,3,0,3051031,3101100,6372340,0,0,0,0,0,0,0,0,0,0,0,0,0,3051031,0,0,0,0,3101100,0,0,0,0,0,0,0,0,3201200,0,0,-3171140,0,0,0,0,0
4,202,868.859576527029,0,0,341571.738638462,341572.785636036,0,15,9,0,0,17,7,8050242,4151212,6432300,0,4010201,0,0,0,0,0,0,4040041,0,0,2010041,0,0,0,0,0,-2141171,0,2080170,0,2040080,1111040,1201010,0,0,0,0,0,0,0,0,0,0,0,0,0
4,203,687.953332206234,0,0,341574.69147882,341575.738498721,0,15,9,1,0,20,7,2201361,2151161,11313423,6352211,1190200,0,0,0,0,1011161,0,0,0,0,0,0,0,0,0,2151161,0,0,4201061,-4051181,0,0,0,0,3061181,0,0,0,0,0,0,3191151,3161060,0,0,0
4,204,885.692764481064,0,0,341577.58551485,341578.632577483,0,15,9,0,0,4,7,5122282,5272351,1141150,8351201,0,0,0,-2031201,3091081,0,0,0,0,0,4191180,1081171,0,0,0,0,0,0,0,0,0,0,0,0,0,0,1141150,0,0,4161091,0,0,3100060,0,1090050,0
4,205,836.9563218439,1,0,341580.585428619,341581.632449291,0,15,9,1,1,11,7,7100091,9372212,5222231,4180021,0,0,3060050,4040041,0,0,0,0,0,0,-3091081,4090111,0,0,0,2191020,0,0,0,0,0,0,0,0,1071140,4151091,0,4180021,0,0,0,0,0,0,0,0
4,206,524.991273239721,1,0,341583.644166348,341584.691193948,0,15,9,0,1,15,3,3180020,4370342,0,1071070,0,0,3180020,0,0,0,0,0,0,0,3170181,0,0,0,-1200161,0,0,0,0,0,0,0,0,0,0,0,0,0,1071070,0,0,0,0,0,0,0
4,207,627.684999082703,0,0,341586.420614898,341587.46758206,0,15,9,0,0,10,3,0,3160150,6310220,4120160,0,0,0,0,0,0,0,0,0,-3160150,0,0,0,0,0,0,0,0,4160080,0,0,0,2150140,0,0,0,0,0,0,4120160,0,0,0,0,0,0
4,208,924.959167430643,0,0,341589.185186248,341590.232206919,0,15,9,0,0,18,7,1060201,9262381,10161382,2170041,1060201,0,0,0,0,0,0,0,0,3080090,0,0,0,3121200,0,0,0,-3061091,0,0,3021060,0,0,3120201,0,4020121,0,2170041,0,0,0,0,0,0,0,0
4,209,611.288741754834,0,0,341592.243925131,341593.290943878,0,15,9,1,0,29,3,9303301,0,0,2130110,0,0,3071041,0,2071150,0,4161110,0,0,0,0,0,0,0,0,0,0,0,0,0,0,0,0,0,0,0,0,0,-2130110,0,0,0,0,0,0,0
4,210,682.397190656047,1,0,341595.043842826,341596.090870812,0,15,9,0,1,36,7,5382350,7282312,4100061,4242321,1201200,0,0,4181150,0,0,0,0,0,0,3140201,2021081,0,0,0,0,2121030,0,0,0,0,0,0,0,4100061,0,0,3111151,0,0,0,0,0,0,0,-1131170
4,211,475.222750217654,0,0,341597.937880397,341598.984906458,0,15,9,1,0,14,3,3191100,6221180,0,3181081,0,0,0,3191100,0,0,0,0,0,0,0,3061130,0,-3160050,0,0,0,0,0,0,0,0,0,0,0,0,0,0,3181081,0,0,0,0,0,0,0
4,212,855.97454814706,1,0,341600.667223969,341601.714239251,0,15,9,1,1,25,7,1191131,2080141,7313553,3251170,0,0,0,0,0,0,1191131,0,0,0,0,0,2080141,0,0,0,0,0,0,0,0,1131140,0,2031181,-2010091,0,2141141,0,0,2050100,1201070,0,0,0,0,0
4,213,737.407727050595,1,0,341603.596542442,341604.643568888,0,15,9,1,1,19,3,0,3131181,6261061,1140110,0,0,0,0,0,0,0,0,0,3131181,0,0,0,0,0,0,0,0,-3120020,3141041,0,0,0,0,0,0,0,0,0,0,1140110,0,0,0,0,0
4,214,879.869844997302,1,0,341606.467056973,341607.51407495,0,15,9,0,1,13,7,4010090,8331211,0,9391402,4010090,0,0,0,0,0,0,0,0,0,0,0,-2190080,0,3070120,0,0,3071011,0,0,0,0,0,0,0,0,0,0,3020161,3140071,1150010,0,0,0,0,2081160
4,215,783.383614616469,1,0,341609.431676366,341610.478704737,0,15,9,0,1,5,7,3291381,10412452,0,2201010,0,1080150,0,0,-1131131,1080100,0,0,0,3040201,0,0,1150010,0,0,3061180,3161061,0,0,0,0,0,0,0,0,0,0,0,0,0,2201010,0,0,0,0,0
4,216,2518.86461954564,0,0,341612.40806748,341613.455085457,0,15,9,1,0,26,3,4131081,4130121,4190070,3170200,0,4131081,0,0,0,0,0,0,0,0,0,0,0,0,0,0,4130121,0,0,0,0,0,0,0,0,-4190070,0,0,0,0,3170200,0,0,0,0,0
4,217,794.642567867413,0,0,341650.1128798,341651.159914331,0,15,10,0,0,13,7,3170201,7151271,1160031,11300191,0,0,0,0,0,0,3170201,0,0,0,0,3061110,-2030110,2060051,0,0,0,0,1160031,0,0,0,0,0,0,0,0,0,4100011,0,3180020,0,4020160,0,0,0
4,218,1011.90389756812,0,0,341653.159870445,341654.206680401,0,15,10,0,0,3,3,3372142,8251101,0,0,0,1201131,-2171011,0,0,0,0,0,0,0,0,0,0,0,0,4180030,4071071,0,0,0,0,0,0,0,0,0,0,0,0,0,0,0,0,0,0,0
4,219,994.513144018129,1,0,341656.348002406,341657.395032317,0,15,10,0,1,36,7,2181141,5211172,3170100,8143383,0,0,0,0,0,1020091,0,0,1161050,0,0,0,0,2140041,0,3071131,0,0,0,0,3170100,0,0,0,0,0,0,0,0,3071041,0,0,0,4061171,0,-1011171
4,220,664.617383736186,0,0,341659.594977961,341660.641997862,0,15,10,0,0,27,3,6262251,4171151,4051030,0,0,0,0,3061071,3201180,0,0,0,0,0,0,0,0,0,4171151,0,0,0,0,0,0,0,0,0,0,0,-4051030,0,0,0,0,0,0,0,0,0
4,221,684.326230082661,1,0,341662.477240346,341663.524272951,0,15,10,1,1,22,7,1101111,7222323,7152152,3112081,0,1101111,0,0,0,0,0,0,0,0,0,4051061,2040091,0,0,0,0,1131171,0,0,0,-4091101,0,0,3061051,0,0,0,0,0,0,1101061,0,2011020,0,0
4,222,698.479319748003,1,0,341665.288937076,341666.335958133,0,15,10,1,1,26,3,4131081,4130121,4190070,3170200,0,4131081,0,0,0,0,0,0,0,0,0,0,0,0,0,0,4130121,0,0,0,0,0,0,0,0,-4190070,0,0,0,0,3170200,0,0,0,0,0
4,223,784.421854361426,0,0,341668.07709075,341669.124111806,0,15,10,1,0,11,7,7100091,9372212,5222231,4180021,0,0,3060050,4040041,0,0,0,0,0,0,-3091081,4090111,0,0,0,2191020,0,0,0,0,0,0,0,0,1071140,4151091,0,4180021,0,0,0,0,0,0,0,0
4,224,1022.71846367512,0,0,341671.088768925,341672.135793447,0,15,10,0,0,5,7,5241141,9531333,1161051,4110040,0,0,2100061,0,-3141080,0,0,0,0,0,2060041,0,0,2180141,0,1090110,0,4201041,0,0,0,1161051,0,0,0,0,0,0,4110040,0,0,0,0,0,0,0
4,225,695.222550013568,0,0,341674.265149184,341675.312178324,0,15,10,1,0,19,3,0,3131181,6261061,1140110,0,0,0,0,0,0,0,0,0,3131181,0,0,0,0,0,0,0,0,-3120020,3141041,0,0,0,0,0,0,0,0,0,0,1140110,0,0,0,0,0
4,226,709.642032801639,1,0,341677.13566487,341678.182710179,0,15,10,0,1,4,7,7202250,6111251,4071101,8451241,0,0,0,-4171200,0,0,3031050,0,0,0,0,2060171,0,0,0,4051080,0,0,0,0,0,0,0,0,4071101,0,0,0,0,3171160,0,0,0,4120041,0,1160040
4,227,1284.58777250489,1,0,341679.982691008,341681.0296574,0,15,10,1,1,32,7,17681672,3131222,0,4120140,4060141,2090161,0,3181180,4200060,4150130,0,0,0,0,0,0,1081061,0,0,2050161,0,0,0,0,0,0,0,0,0,0,0,0,0,0,0,-4120140,0,0,0,0
4,228,971.955586515833,1,0,341683.347240954,341684.394270095,0,15,10,0,1,18,3,1010120,5511132,0,0,0,0,0,0,0,0,0,1010120,0,0,0,0,1140071,0,0,2191021,0,-2180040,0,0,0,0,0,0,0,0,0,0,0,0,0,0,0,0,0,0
4,229,734.105531941168,1,0,341686.500097788,341687.547123849,0,15,10,0,1,30,3,1150061,0,4131151,3350081,0,0,0,0,0,0,0,0,1150061,0,0,0,0,0,0,0,0,0,0,0,0,0,0,0,0,0,4131151,0,0,-2190060,0,0,0,1160021,0,0
4,230,811.553902865853,0,0,341689.417665712,341690.464695238,0,15,10,1,0,2,3,4160170,1021031,0,3271190,0,-4160170,0,0,0,0,0,0,0,0,0,0,0,0,0,0,0,1021031,0,0,0,0,0,0,0,0,0,2180060,0,1091130,0,0,0,0,0,0
4,231,782.749583944678,1,0,341692.429349662,341693.476369949,0,15,10,0,1,17,3,0,3211132,1081110,1011191,0,0,0,0,0,0,0,0,0,0,2061011,0,0,0,0,0,-1150121,0,0,0,1081110,0,0,0,0,0,0,0,1011191,0,0,0,0,0,0,0
4,232,862.050002091564,1,0,341695.288086313,341696.335113529,0,15,10,1,1,12,7,5351211,9282202,0,5293383,4170050,0,0,0,1181161,0,0,0,0,4021040,0,-3171131,0,0,0,2090031,0,0,0,0,0,0,0,0,0,0,0,0,1041091,0,0,0,0,3171121,1081171,0
4,233,762.953736470081,0,0,341698.276243759,341699.323260966,0,15,10,1,0,20,7,2201361,2151161,11313423,6352211,1190200,0,0,0,0,1011161,0,0,0,0,0,0,0,0,0,2151161,0,0,4201061,-4051181,0,0,0,0,3061181,0,0,0,0,0,0,3191151,3161060,0,0,0
4,234,775.796034082305,1,0,341701.170341768,341702.217338572,0,15,10,1,1,35,3,0,0,2130060,8281492,0,0,0,0,0,0,0,0,0,0,0,0,0,0,0,0,0,0,0,0,0,2130060,0,0,0,0,0,0,4160200,0,0,0,3100141,0,-1021151,0
4,235,652.96615526313,1,0,341704.12313439,341705.170188939,0,15,10,1,1,14,3,3191100,6221180,0,3181081,0,0,0,3191100,0,0,0,0,0,0,0,3061130,0,-3160050,0,0,0,0,0,0,0,0,0,0,0,0,0,0,3181081,0,0,0,0,0,0,0
4,236,1123.24177962728,0,0,341706.934821112,341707.981851023,0,15,10,0,0,15,7,2121150,5372161,6281371,5242162,0,0,0,0,2121150,0,0,0,0,0,0,0,1141081,0,-2040050,2191030,0,0,0,0,2121170,4160201,0,0,0,0,0,0,4191131,0,0,0,0,0,1051031,0
4,237,648.652282718103,0,0,341710.158262848,341711.205287369,0,15,10,0,0,10,7,3180191,5171101,9435664,0,0,0,0,3180191,0,0,0,0,0,-1091041,0,0,0,0,0,0,0,4080060,0,0,1141161,3041201,0,1031061,1021090,3201151,0,0,0,0,0,0,0,0,0,0
4,238,843.48564472748,0,0,341712.887591022,341713.934620933,0,15,10,1,0,25,7,1191131,2080141,7313553,3251170,0,0,0,0,0,0,1191131,0,0,0,0,0,2080141,0,0,0,0,0,0,0,0,1131140,0,2031181,-2010091,0,2141141,0,0,2050100,1201070,0,0,0,0,0
4,239,1099.46813050192,1,0,341715.934568963,341716.981591174,0,15,10,0,1,31,3,0,1051140,2070031,5221102,0,0,0,0,0,0,0,0,0,0,0,0,0,0,1051140,0,0,0,0,0,0,0,0,0,0,0,2070031,0,1070021,0,-4151081,0,0,0,0,0
4,240,748.23167436989,0,0,341719.169771256,341720.216791928,0,15,10,1,0,29,3,9303301,0,0,2130110,0,0,3071041,0,2071150,0,4161110,0,0,0,0,0,0,0,0,0,0,0,0,0,0,0,0,0,0,0,0,0,-2130110,0,0,0,0,0,0,0
4,241,785.247980558779,1,0,341755.145220371,341756.192250281,0,15,11,0,1,17,3,2050080,6140341,3020111,0,0,0,0,0,2050080,0,0,0,0,2080141,0,0,0,0,0,0,-4060200,0,0,0,0,0,3020111,0,0,0,0,0,0,0,0,0,0,0,0,0
4,242,631.936970748939,1,0,341758.156907785,341759.203732049,0,15,11,0,1,15,7,1201101,6241222,11193561,4200151,0,0,0,0,0,1201101,0,0,0,0,0,0,0,0,-4130181,0,2111041,0,2040120,4081150,0,0,3061200,2011091,0,0,0,0,0,0,0,0,0,4200151,0,0
4,243,1123.55898745591,1,0,341760.850956982,341761.897973034,0,15,11,0,1,36,7,2140160,1160131,6312551,3202273,0,0,2140160,0,0,0,0,0,0,0,0,1160131,0,0,0,0,0,0,3051180,0,1191171,0,2070200,0,0,0,0,0,0,0,0,1041141,0,0,1090121,-1071011
4,244,959.358509047888,0,0,341764.039093178,341765.086122319,0,15,11,0,0,5,3,5200101,0,0,6241171,0,0,3060051,0,-2140050,0,0,0,0,0,0,0,0,0,0,0,0,0,0,0,0,0,0,0,0,0,0,0,0,0,3160061,3081110,0,0,0,0
4,245,1040.52098334068,1,0,341767.23900918,341768.286032546,0,15,11,1,1,26,3,4131081,4130121,4190070,3170200,0,4131081,0,0,0,0,0,0,0,0,0,0,0,0,0,0,4130121,0,0,0,0,0,0,0,0,-4190070,0,0,0,0,3170200,0,0,0,0,0
4,246,1081.45349734696,1,0,341770.48597357,341771.532998476,0,15,11,1,1,32,7,17681672,3131222,0,4120140,4060141,2090161,0,3181180,4200060,4150130,0,0,0,0,0,0,1081061,0,0,2050161,0,0,0,0,0,0,0,0,0,0,0,0,0,0,0,-4120140,0,0,0,0
4,247,743.40926844161,0,0,341773.780000978,341774.827024344,0,15,11,1,0,20,7,2201361,2151161,11313423,6352211,1190200,0,0,0,0,1011161,0,0,0,0,0,0,0,0,0,2151161,0,0,4201061,-4051181,0,0,0,0,3061181,0,0,0,0,0,0,3191151,3161060,0,0,0
4,248,509.972791245673,0,0,341776.603445947,341777.650471238,0,15,11,1,0,22,7,1101111,7222323,7152152,3112081,0,1101111,0,0,0,0,0,0,0,0,0,4051061,2040091,0,0,0,0,1131171,0,0,0,-4091101,0,0,3061051,0,0,0,0,0,0,1101061,0,2011020,0,0
4,249,1667.76751924772,0,0,341779.238716224,341780.28569455,0,15,11,0,0,31,7,3070041,7190190,5342221,9302263,0,0,0,3070041,0,0,0,0,0,0,0,0,0,0,0,4110060,3080130,0,0,0,0,0,0,4161140,1181081,0,0,2080041,0,0,-3191201,0,0,4031021,0,0
4,250,730.770230176859,0,0,341783.144460073,341784.191460726,0,15,11,1,0,29,3,9303301,0,0,2130110,0,0,3071041,0,2071150,0,4161110,0,0,0,0,0,0,0,0,0,0,0,0,0,0,0,0,0,0,0,0,0,-2130110,0,0,0,0,0,0,0
4,251,782.512832956854,1,0,341786.12082424,341787.167852995,0,15,11,0,1,30,3,2190070,0,4080171,6141281,2190070,0,0,0,0,0,0,0,0,0,0,0,0,0,0,0,0,0,0,0,0,0,0,0,0,4080171,0,0,3071121,-3070160,0,0,0,0,0,0
4,252,897.364010917954,1,0,341788.967802643,341790.014828319,0,15,11,0,1,4,7,12562462,0,2271232,7212151,0,0,3171111,-3051140,0,2170050,4170161,0,0,0,0,0,0,0,0,0,0,0,0,0,0,1080201,0,0,0,0,1191031,0,0,0,3201141,0,0,0,4011010,0
4,253,907.240954227746,0,0,341792.108895839,341793.155915356,0,15,11,1,0,25,7,1191131,2080141,7313553,3251170,0,0,0,0,0,0,1191131,0,0,0,0,0,2080141,0,0,0,0,0,0,0,0,1131140,0,2031181,-2010091,0,2141141,0,0,2050100,1201070,0,0,0,0,0
4,254,640.294780256227,0,0,341795.261736505,341796.308767955,0,15,11,1,0,11,7,7100091,9372212,5222231,4180021,0,0,3060050,4040041,0,0,0,0,0,0,-3091081,4090111,0,0,0,2191020,0,0,0,0,0,0,0,0,1071140,4151091,0,4180021,0,0,0,0,0,0,0,0
4,255,575.530103058554,1,0,341797.967556653,341799.014574244,0,15,11,0,1,10,3,10421462,4020031,0,0,0,0,0,0,3200180,0,4061201,0,3160081,-4020031,0,0,0,0,0,0,0,0,0,0,0,0,0,0,0,0,0,0,0,0,0,0,0,0,0,0
4,256,1248.9211394568,0,0,341800.685123884,341801.732145326,0,15,11,0,0,27,7,3050090,7264472,5240292,3130201,0,0,0,0,0,3050090,0,0,0,0,0,4071200,0,0,0,1131121,1011010,1051141,1180131,0,0,0,0,0,0,0,-4060161,0,0,0,0,0,0,3130201,0,0
4,257,893.329235084821,1,0,341804.002681261,341805.049703857,0,15,11,1,1,12,7,5351211,9282202,0,5293383,4170050,0,0,0,1181161,0,0,0,0,4021040,0,-3171131,0,0,0,2090031,0,0,0,0,0,0,0,0,0,0,0,0,1041091,0,0,0,0,3171121,1081171,0
4,258,1090.9308512928,1,0,341807.073186476,341808.120200603,0,15,11,0,1,13,7,2160060,5351432,4132291,5331112,0,0,0,2160060,0,0,0,0,0,1031070,0,0,-3170181,0,0,1150181,0,0,0,0,0,0,0,3061121,1071170,0,0,0,0,0,0,0,0,4161091,0,1170021
4,259,776.105927652679,1,0,341810.237788468,341811.284818764,0,15,11,1,1,19,3,0,3131181,6261061,1140110,0,0,0,0,0,0,0,0,0,3131181,0,0,0,0,0,0,0,0,-3120020,3141041,0,0,0,0,0,0,0,0,0,0,1140110,0,0,0,0,0
4,260,816.250041651074,1,0,341813.08477457,341814.131803326,0,15,11,0,1,18,3,3181110,1031051,3220241,0,3181110,0,0,0,0,0,0,0,0,0,0,0,0,0,0,0,0,-1031051,0,1040061,0,0,0,2180180,0,0,0,0,0,0,0,0,0,0,0,0
4,261,860.080926737282,0,0,341816.119989259,341817.167004926,0,15,11,1,0,35,3,0,0,2130060,8281492,0,0,0,0,0,0,0,0,0,0,0,0,0,0,0,0,0,0,0,0,0,2130060,0,0,0,0,0,0,4160200,0,0,0,3100141,0,-1021151,0
4,262,614.315689832438,0,0,341819.131680524,341820.178684642,0,15,11,0,0,3,3,3171041,4220080,4081140,0,0,0,-3171041,0,0,0,0,0,0,0,0,1070040,0,3150040,0,0,0,0,0,0,4081140,0,0,0,0,0,0,0,0,0,0,0,0,0,0,0
4,263,482.149352843408,0,0,341821.87276887,341822.919784537,0,15,11,1,0,14,3,3191100,6221180,0,3181081,0,0,0,3191100,0,0,0,0,0,0,0,3061130,0,-3160050,0,0,0,0,0,0,0,0,0,0,0,0,0,0,3181081,0,0,0,0,0,0,0
4,264,508.534962078556,0,0,341824.449172072,341825.496248948,0,15,11,1,0,2,3,4160170,1021031,0,3271190,0,-4160170,0,0,0,0,0,0,0,0,0,0,0,0,0,0,0,1021031,0,0,0,0,0,0,0,0,0,2180060,0,1091130,0,0,0,0,0,0
4,265,594.238435907755,1,0,341860.142272725,341861.189296476,0,15,12,1,1,2,3,4160170,1021031,0,3271190,0,-4160170,0,0,0,0,0,0,0,0,0,0,0,0,0,0,0,1021031,0,0,0,0,0,0,0,0,0,2180060,0,1091130,0,0,0,0,0,0
4,266,1236.26901255921,1,0,341862.942198119,341863.989219946,0,15,12,1,1,12,7,5351211,9282202,0,5293383,4170050,0,0,0,1181161,0,0,0,0,4021040,0,-3171131,0,0,0,2090031,0,0,0,0,0,0,0,0,0,0,0,0,1041091,0,0,0,0,3171121,1081171,0
4,267,1244.68194937799,0,0,341866.306814278,341867.353829176,0,15,12,0,0,18,7,6271181,7141350,3110121,9351340,0,0,2130150,0,0,0,4141031,0,0,0,0,4081190,0,0,0,0,0,-3060160,3110121,0,0,0,0,0,0,0,0,0,0,3081130,3070010,3200200,0,0,0,0
4,268,1143.78406642936,1,0,341869.612598009,341870.659626765,0,15,12,0,1,36,7,8261161,7331242,1191190,8031310,0,0,0,0,0,0,4141091,4120070,0,0,3151011,0,0,0,0,3110041,1070190,0,0,1191190,0,0,0,0,0,0,0,0,0,0,0,0,0,4021160,0,-4010150
4,269,864.481415541377,0,0,341872.941917483,341873.988942004,0,15,12,1,0,14,3,3191100,6221180,0,3181081,0,0,0,3191100,0,0,0,0,0,0,0,3061130,0,-3160050,0,0,0,0,0,0,0,0,0,0,0,0,0,0,3181081,0,0,0,0,0,0,0
4,270,864.884854585398,1,0,341875.96536045,341877.012385356,0,15,12,0,1,30,3,5200252,0,0,5370331,0,0,0,3040131,0,0,0,0,2160121,0,0,0,0,0,0,0,0,0,0,0,0,0,0,0,0,0,0,1200200,0,-4170131,0,0,0,0,0,0
4,271,1284.04189791763,0,0,341878.918216206,341879.965246887,0,15,12,1,0,32,7,17681672,3131222,0,4120140,4060141,2090161,0,3181180,4200060,4150130,0,0,0,0,0,0,1081061,0,0,2050161,0,0,0,0,0,0,0,0,0,0,0,0,0,0,0,-4120140,0,0,0,0
4,272,804.261202458292,0,0,341882.271056795,341883.318084395,0,15,12,0,0,13,3,4010101,2010181,3140071,2161171,0,0,0,0,0,0,4010101,0,0,0,0,0,-2010181,0,0,0,0,0,0,0,0,0,0,0,0,0,3140071,0,0,0,0,2161171,0,0,0,0
4,273,1184.29812794784,0,0,341885.176887259,341886.223890608,0,15,12,0,0,4,7,10253230,7372402,0,5192252,2021120,0,0,-4081030,0,0,0,0,4151080,0,0,2111190,2101171,3160041,0,0,0,0,0,0,0,0,0,0,0,0,0,0,0,1151061,0,0,0,0,4041191,0
4,274,623.837699240539,1,0,341888.494486597,341889.541444135,0,15,12,1,1,20,7,2201361,2151161,11313423,6352211,1190200,0,0,0,0,1011161,0,0,0,0,0,0,0,0,0,2151161,0,0,4201061,-4051181,0,0,0,0,3061181,0,0,0,0,0,0,3191151,3161060,0,0,0
4,275,459.957893239334,1,0,341891.247270057,341892.294302277,0,15,12,0,1,15,3,2120191,6110082,0,4121081,0,0,0,0,0,0,2120191,0,0,0,3020031,0,0,0,-3090051,0,0,0,0,0,0,0,0,0,0,0,0,0,0,0,0,0,0,4121081,0,0
4,276,690.001709503122,0,0,341893.800156764,341894.847173586,0,15,12,1,0,19,3,0,3131181,6261061,1140110,0,0,0,0,0,0,0,0,0,3131181,0,0,0,0,0,0,0,0,-3120020,3141041,0,0,0,0,0,0,0,0,0,0,1140110,0,0,0,0,0
4,277,621.657280309591,1,0,341896.63541965,341897.682424923,0,15,12,1,1,22,7,1101111,7222323,7152152,3112081,0,1101111,0,0,0,0,0,0,0,0,0,4051061,2040091,0,0,0,0,1131171,0,0,0,-4091101,0,0,3061051,0,0,0,0,0,0,1101061,0,2011020,0,0
4,278,706.26015070593,1,0,341899.399993694,341900.44702399,0,15,12,0,1,27,7,5320210,8240300,2181040,6231291,0,0,0,0,4190130,0,0,0,1130080,0,0,0,0,0,4090170,0,0,4150130,0,0,0,0,0,0,0,0,-2181040,4021160,1180091,1030040,0,0,0,0,0,0
4,279,1275.61317762593,0,0,341902.176392969,341903.223463301,0,15,12,0,0,5,7,3201090,5181341,5261161,6121190,0,0,0,2060080,-1141010,0,0,0,0,4050170,0,0,0,0,0,1131171,0,0,0,0,2090020,0,3171141,0,0,0,0,0,0,0,3110110,0,0,3011080,0,0
4,280,1062.98037571833,1,0,341905.682166229,341906.729191905,0,15,12,0,1,17,7,5091311,6270332,7250323,2201160,3011111,0,0,0,0,2080200,0,0,0,0,0,0,0,0,3160181,0,-3110151,0,4160071,0,1020081,0,0,0,0,2070171,0,2201160,0,0,0,0,0,0,0,0
4,281,490.002941340208,1,0,341908.929138319,341909.976158605,0,15,12,0,1,10,3,2120010,2201120,4010201,1201130,0,0,0,0,0,0,2120010,0,0,-2201120,0,0,0,0,0,0,0,0,0,0,0,0,0,0,0,0,4010201,0,0,0,0,0,0,1201130,0,0
4,282,676.186615484767,0,0,341911.634946532,341912.681966049,0,15,12,1,0,35,3,0,0,2130060,8281492,0,0,0,0,0,0,0,0,0,0,0,0,0,0,0,0,0,0,0,0,0,2130060,0,0,0,0,0,0,4160200,0,0,0,3100141,0,-1021151,0
4,283,689.147481112741,0,0,341914.387802365,341915.434836896,0,15,12,0,0,3,3,4111120,3040150,4141050,4030101,0,0,-4111120,0,0,0,0,0,0,0,0,0,0,0,0,0,0,3040150,0,0,0,0,0,0,4141050,0,0,0,0,0,0,0,4030101,0,0,0
4,284,710.442366602365,0,0,341917.246551335,341918.293572391,0,15,12,1,0,25,7,1191131,2080141,7313553,3251170,0,0,0,0,0,0,1191131,0,0,0,0,0,2080141,0,0,0,0,0,0,0,0,1131140,0,2031181,-2010091,0,2141141,0,0,2050100,1201070,0,0,0,0,0
4,285,582.686527341139,1,0,341920.1052876,341921.152341379,0,15,12,1,1,29,3,9303301,0,0,2130110,0,0,3071041,0,2071150,0,4161110,0,0,0,0,0,0,0,0,0,0,0,0,0,0,0,0,0,0,0,0,0,-2130110,0,0,0,0,0,0,0
4,286,864.741264143959,1,0,341922.858161526,341923.905178348,0,15,12,0,1,31,3,4201191,3140060,3010151,3050151,0,0,0,4201191,0,0,0,0,0,0,0,0,0,0,0,3140060,0,0,0,0,0,0,0,0,3010151,0,0,0,0,0,-3050151,0,0,0,0,0
4,287,554.359175032005,0,0,341925.834543786,341926.881567923,0,15,12,1,0,26,3,4131081,4130121,4190070,3170200,0,4131081,0,0,0,0,0,0,0,0,0,0,0,0,0,0,4130121,0,0,0,0,0,0,0,0,-4190070,0,0,0,0,3170200,0,0,0,0,0
4,288,767.393491230905,1,0,341928.540349691,341929.587375752,0,15,12,1,1,11,7,7100091,9372212,5222231,4180021,0,0,3060050,4040041,0,0,0,0,0,0,-3091081,4090111,0,0,0,2191020,0,0,0,0,0,0,0,0,1071140,4151091,0,4180021,0,0,0,0,0,0,0,0
4,289,1051.27910233568,0,0,341964.492279615,341965.539306446,0,15,13,0,0,30,7,0,6462383,2232221,5492233,0,0,0,0,0,0,0,0,0,0,0,0,0,3190171,2111161,1161051,0,0,0,1161031,0,0,1071190,0,0,0,0,0,0,-2120011,0,1181141,0,2191081,0,0
4,290,514.187343826052,0,0,341967.633373582,341968.680391559,0,15,13,0,0,15,3,0,7122102,3302040,0,0,0,0,0,0,0,0,0,0,0,0,0,0,0,-4091011,0,0,3031091,0,0,2151010,0,1151030,0,0,0,0,0,0,0,0,0,0,0,0,0
4,291,737.601747387089,0,0,341970.397994977,341971.445019498,0,15,13,1,0,26,3,4131081,4130121,4190070,3170200,0,4131081,0,0,0,0,0,0,0,0,0,0,0,0,0,0,4130121,0,0,0,0,0,0,0,0,-4190070,0,0,0,0,3170200,0,0,0,0,0
4,292,652.179295080714,0,0,341973.386149728,341974.433171554,0,15,13,0,0,17,7,4150131,12543552,3061311,3081041,0,0,0,0,0,0,0,0,4150131,4171171,0,1121101,0,0,0,0,-3160090,4091190,0,0,0,0,2051181,0,1010130,0,0,0,3081041,0,0,0,0,0,0,0
4,293,1076.76082325634,1,0,341976.209595852,341977.256627688,0,15,13,0,1,5,7,9381302,7221211,6331291,4111171,4140101,0,0,0,-3191031,0,0,2050170,0,0,0,4110160,0,0,0,0,3111051,0,0,0,0,0,4151130,0,0,0,2180161,0,0,0,0,0,0,0,0,4111171
4,294,796.388750779442,0,0,341979.491857313,341980.538877985,0,15,13,0,0,3,3,7191310,2141180,1041131,0,0,0,-4121180,0,3070130,0,0,0,0,0,0,0,0,0,0,2141180,0,0,1041131,0,0,0,0,0,0,0,0,0,0,0,0,0,0,0,0,0
4,295,850.663241813891,1,0,341982.503583994,341983.550568864,0,15,13,1,1,20,7,2201361,2151161,11313423,6352211,1190200,0,0,0,0,1011161,0,0,0,0,0,0,0,0,0,2151161,0,0,4201061,-4051181,0,0,0,0,3061181,0,0,0,0,0,0,3191151,3161060,0,0,0
4,296,1057.56743962411,1,0,341985.585808191,341986.632825783,0,15,13,1,1,25,7,1191131,2080141,7313553,3251170,0,0,0,0,0,0,1191131,0,0,0,0,0,2080141,0,0,0,0,0,0,0,0,1131140,0,2031181,-2010091,0,2141141,0,0,2050100,1201070,0,0,0,0,0
4,297,872.645667579491,1,0,341988.89159808,341989.938630686,0,15,13,0,1,36,3,0,0,4200060,7232380,0,0,0,0,0,0,0,0,0,0,0,0,0,0,0,0,0,0,0,0,0,0,0,0,4200060,0,0,1121180,0,0,4030050,0,0,0,0,-2081150
4,298,600.62455321895,1,0,341991.938575636,341992.985587839,0,15,13,1,1,14,3,3191100,6221180,0,3181081,0,0,0,3191100,0,0,0,0,0,0,0,3061130,0,-3160050,0,0,0,0,0,0,0,0,0,0,0,0,0,0,3181081,0,0,0,0,0,0,0
4,299,1357.2953492403,1,0,341994.714952969,341995.761983265,0,15,13,0,1,4,7,4211261,8312331,7183241,4171110,0,0,0,-3031201,0,0,1180060,0,0,0,0,0,0,4171140,4141191,0,0,0,0,0,3071040,0,0,2031111,0,0,2081090,0,4171110,0,0,0,0,0,0,0
4,300,871.449978847522,0,0,341998.220738932,341999.267762684,0,15,13,1,0,12,7,5351211,9282202,0,5293383,4170050,0,0,0,1181161,0,0,0,0,4021040,0,-3171131,0,0,0,2090031,0,0,0,0,0,0,0,0,0,0,0,0,1041091,0,0,0,0,3171121,1081171,0
4,301,841.565844370052,1,0,342001.220655396,342002.267674913,0,15,13,1,1,29,3,9303301,0,0,2130110,0,0,3071041,0,2071150,0,4161110,0,0,0,0,0,0,0,0,0,0,0,0,0,0,0,0,0,0,0,0,0,-2130110,0,0,0,0,0,0,0
4,302,868.551222782116,0,0,342004.126498179,342005.173484589,0,15,13,0,0,10,3,1031070,1070040,4261210,0,1031070,0,0,0,0,0,0,0,0,-1070040,0,0,0,0,0,0,0,0,0,0,3160150,0,0,0,0,0,1101060,0,0,0,0,0,0,0,0,0
4,303,983.838176529389,0,0,342007.079332377,342008.126338036,0,15,13,1,0,32,7,17681672,3131222,0,4120140,4060141,2090161,0,3181180,4200060,4150130,0,0,0,0,0,0,1081061,0,0,2050161,0,0,0,0,0,0,0,0,0,0,0,0,0,0,0,-4120140,0,0,0,0
4,304,795.585722196847,1,0,342010.173356397,342011.220378609,0,15,13,1,1,11,7,7100091,9372212,5222231,4180021,0,0,3060050,4040041,0,0,0,0,0,0,-3091081,4090111,0,0,0,2191020,0,0,0,0,0,0,0,0,1071140,4151091,0,4180021,0,0,0,0,0,0,0,0
4,305,843.809011916164,0,0,342013.126266433,342014.173274786,0,15,13,0,0,27,7,11232582,4021180,2061201,2031170,1090170,0,4081141,3031071,0,0,0,3030200,0,0,0,0,0,2010070,0,0,0,2011110,0,0,0,0,0,0,0,0,-2061201,0,2031170,0,0,0,0,0,0,0
4,306,706.038028234616,0,0,342016.079067139,342017.126080882,0,15,13,0,0,31,3,2020201,3020020,4111031,2191150,0,0,0,0,0,0,2020201,0,0,0,0,0,0,3020020,0,0,0,0,0,0,0,0,4111031,0,0,0,0,0,0,0,-2191150,0,0,0,0,0
4,307,684.694252733607,1,0,342018.867227357,342019.914243024,0,15,13,1,1,22,7,1101111,7222323,7152152,3112081,0,1101111,0,0,0,0,0,0,0,0,0,4051061,2040091,0,0,0,0,1131171,0,0,0,-4091101,0,0,3061051,0,0,0,0,0,0,1101061,0,2011020,0,0
4,308,818.510532437358,0,0,342021.655378336,342022.702397082,0,15,13,1,0,35,3,0,0,2130060,8281492,0,0,0,0,0,0,0,0,0,0,0,0,0,0,0,0,0,0,0,0,0,2130060,0,0,0,0,0,0,4160200,0,0,0,3100141,0,-1021151,0
4,309,1276.64718276355,1,0,342024.655290564,342025.702312776,0,15,13,1,1,2,3,4160170,1021031,0,3271190,0,-4160170,0,0,0,0,0,0,0,0,0,0,0,0,0,0,0,1021031,0,0,0,0,0,0,0,0,0,2180060,0,1091130,0,0,0,0,0,0
4,310,673.707466921769,0,0,342028.161118873,342029.208117602,0,15,13,1,0,19,3,0,3131181,6261061,1140110,0,0,0,0,0,0,0,0,0,3131181,0,0,0,0,0,0,0,0,-3120020,3141041,0,0,0,0,0,0,0,0,0,0,1140110,0,0,0,0,0
4,311,772.006093407981,1,0,342030.91393467,342031.960953802,0,15,13,0,1,18,7,1040060,4481300,7162151,4121252,0,0,1040060,0,0,0,0,0,0,0,0,0,1190010,0,0,0,1130200,-2161090,0,0,0,0,0,3031090,4131061,0,0,0,0,0,0,0,3100111,0,1021141,0
4,312,790.171246277168,1,0,342033.772677095,342034.819707391,0,15,13,0,1,13,3,4200061,1071200,1080020,3031030,0,4200061,0,0,0,0,0,0,0,0,0,0,-1071200,0,0,0,0,0,0,0,1080020,0,0,0,0,0,0,0,0,0,0,0,0,0,0,3031030
4,313,1258.54015903315,1,0,342069.865833413,342070.912831372,0,15,14,1,1,32,7,17681672,3131222,0,4120140,4060141,2090161,0,3181180,4200060,4150130,0,0,0,0,0,0,1081061,0,0,2050161,0,0,0,0,0,0,0,0,0,0,0,0,0,0,0,-4120140,0,0,0,0
4,314,602.510477008764,1,0,342073.35979838,342074.406826751,0,15,14,1,1,14,3,3191100,6221180,0,3181081,0,0,0,3191100,0,0,0,0,0,0,0,3061130,0,-3160050,0,0,0,0,0,0,0,0,0,0,0,0,0,0,3181081,0,0,0,0,0,0,0
4,315,523.061078914907,0,0,342076.183256438,342077.230269411,0,15,14,0,0,3,3,4051191,1130051,0,3371281,0,0,-4051191,0,0,0,0,0,0,0,1130051,0,0,0,0,0,0,0,0,0,0,0,0,0,0,0,0,2170201,0,0,1201080,0,0,0,0,0
4,316,602.683709410485,1,0,342078.806716113,342079.853741789,0,15,14,1,1,2,3,4160170,1021031,0,3271190,0,-4160170,0,0,0,0,0,0,0,0,0,0,0,0,0,0,0,1021031,0,0,0,0,0,0,0,0,0,2180060,0,1091130,0,0,0,0,0,0
4,317,834.828642604407,0,0,342081.618398216,342082.665417732,0,15,14,0,0,30,7,6181150,5281130,3130060,8371382,0,0,0,0,4170080,0,0,2011070,0,4181030,1100100,0,0,0,0,0,0,0,0,3130060,0,0,0,0,0,0,0,4141170,0,-1140011,0,3090201,0,0,0,0
4,318,1013.33542523207,1,0,342084.641840413,342085.688928453,0,15,14,0,1,13,7,7251280,6081231,7321241,1011060,0,0,4080180,0,3171100,0,0,0,0,0,2050160,0,-4031071,0,0,0,0,0,4110110,0,2150041,0,0,1061090,0,0,0,1011060,0,0,0,0,0,0,0,0
4,319,820.669778448064,0,0,342087.900571905,342088.947653016,0,15,14,0,0,36,7,6260330,6270251,9301273,3040100,2120150,0,0,0,0,4140180,0,0,0,0,0,0,2140061,0,0,0,4130190,0,0,0,4171081,0,3090011,0,0,2040181,0,0,0,0,0,0,0,0,0,-3040100
4,320,1183.81269212114,1,0,342090.853431511,342091.900490679,0,15,14,0,1,5,7,5122160,4190081,0,12503492,0,0,0,2081010,-3041150,0,0,0,0,4190081,0,0,0,0,0,0,0,0,0,0,0,0,0,0,0,0,0,4031131,0,1071050,0,4070051,0,0,2201120,1130140
4,321,577.772500691935,1,0,342094.10046096,342095.147414648,0,15,14,0,1,17,3,0,2080091,6141281,0,0,0,0,0,0,0,0,0,0,0,0,0,0,0,1020020,0,-1060071,0,0,0,0,0,3020160,3121121,0,0,0,0,0,0,0,0,0,0,0,0
4,322,563.746063096914,1,0,342096.747383235,342097.794416226,0,15,14,0,1,27,3,4070181,0,5231171,4090040,0,0,0,0,0,4070181,0,0,0,0,0,0,0,0,0,0,0,0,0,0,0,0,0,0,3121111,0,-2110060,0,0,0,0,0,0,0,4090040,0
4,323,938.477841555141,0,0,342099.382591534,342100.42961952,0,15,14,1,0,12,7,5351211,9282202,0,5293383,4170050,0,0,0,1181161,0,0,0,0,4021040,0,-3171131,0,0,0,2090031,0,0,0,0,0,0,0,0,0,0,0,0,1041091,0,0,0,0,3171121,1081171,0
4,324,804.988778661937,1,0,342102.394279719,342103.441299235,0,15,14,1,1,29,3,9303301,0,0,2130110,0,0,3071041,0,2071150,0,4161110,0,0,0,0,0,0,0,0,0,0,0,0,0,0,0,0,0,0,0,0,0,-2130110,0,0,0,0,0,0,0
4,325,803.17368771648,0,0,342105.358906426,342106.405919013,0,15,14,0,0,4,3,3041121,4130230,2121180,0,0,0,0,-3041121,0,0,0,0,0,2010150,0,0,0,0,0,2120080,0,0,0,0,0,0,0,0,0,2121180,0,0,0,0,0,0,0,0,0,0
4,326,659.548987750895,0,0,342108.370579982,342109.417608738,0,15,14,1,0,11,7,7100091,9372212,5222231,4180021,0,0,3060050,4040041,0,0,0,0,0,0,-3091081,4090111,0,0,0,2191020,0,0,0,0,0,0,0,0,1071140,4151091,0,4180021,0,0,0,0,0,0,0,0
4,327,729.54297461547,1,0,342111.276432389,342112.323423804,0,15,14,1,1,35,3,0,0,2130060,8281492,0,0,0,0,0,0,0,0,0,0,0,0,0,0,0,0,0,0,0,0,0,2130060,0,0,0,0,0,0,4160200,0,0,0,3100141,0,-1021151,0
4,328,787.888812774327,0,0,342114.088066372,342115.135087813,0,15,14,1,0,19,3,0,3131181,6261061,1140110,0,0,0,0,0,0,0,0,0,3131181,0,0,0,0,0,0,0,0,-3120020,3141041,0,0,0,0,0,0,0,0,0,0,1140110,0,0,0,0,0
4,329,568.106900842395,0,0,342117.08798245,342118.135004277,0,15,14,0,0,15,7,3011070,10300352,5122191,6292171,0,3011070,0,0,0,0,0,0,0,0,4060150,0,0,2040101,-4200101,0,0,0,0,0,0,0,0,0,3051111,0,2071080,3181041,0,3111130,0,0,0,0,0,0
4,330,749.184067826718,0,0,342119.746732651,342120.793752938,0,15,14,0,0,31,3,3090101,0,0,5291412,0,0,0,0,0,3090101,0,0,0,0,0,0,0,0,0,0,0,0,0,0,0,0,0,0,0,0,0,0,1161171,0,-1070050,3060191,0,0,0,0
4,331,598.976535373367,1,0,342122.676059978,342123.72307988,0,15,14,1,1,25,7,1191131,2080141,7313553,3251170,0,0,0,0,0,0,1191131,0,0,0,0,0,2080141,0,0,0,0,0,0,0,0,1131140,0,2031181,-2010091,0,2141141,0,0,2050100,1201070,0,0,0,0,0
4,332,591.627630637959,0,0,342125.405396236,342126.452416523,0,15,14,0,0,10,3,0,9310162,2090111,0,0,0,0,0,0,0,0,0,0,-4140091,3130061,0,0,0,0,0,0,2040010,2090111,0,0,0,0,0,0,0,0,0,0,0,0,0,0,0,0,0
4,333,894.103776547126,0,0,342128.228841206,342129.275863802,0,15,14,0,0,18,7,8330222,5162231,5370050,3251302,4150171,0,0,0,4180051,0,0,0,0,0,0,0,0,4091080,0,0,0,-1071151,0,0,0,1170010,0,0,4200040,0,0,0,0,1191191,0,0,0,2060111,0,0
4,334,683.154793805443,1,0,342131.334637717,342132.381664548,0,15,14,1,1,22,7,1101111,7222323,7152152,3112081,0,1101111,0,0,0,0,0,0,0,0,0,4051061,2040091,0,0,0,0,1131171,0,0,0,-4091101,0,0,3061051,0,0,0,0,0,0,1101061,0,2011020,0,0
4,335,644.853487960063,1,0,342134.26395696,342135.31099149,0,15,14,1,1,20,7,2201361,2151161,11313423,6352211,1190200,0,0,0,0,1011161,0,0,0,0,0,0,0,0,0,2151161,0,0,4201061,-4051181,0,0,0,0,3061181,0,0,0,0,0,0,3191151,3161060,0,0,0
4,336,838.909998710733,1,0,342136.969773258,342138.016795469,0,15,14,1,1,26,3,4131081,4130121,4190070,3170200,0,4131081,0,0,0,0,0,0,0,0,0,0,0,0,0,0,4130121,0,0,0,0,0,0,0,0,-4190070,0,0,0,0,3170200,0,0,0,0,0
4,337,1077.35481800046,0,0,342173.004042482,342174.051078553,0,15,15,0,0,30,7,6202072,10281372,1120180,6251302,0,4101051,0,0,0,0,0,2101021,0,0,2020060,4120191,0,4141121,0,0,0,0,0,0,0,0,0,1120180,0,0,0,0,0,-4141181,0,0,0,0,2110121,0
4,338,687.844003317878,0,0,342176.321611023,342177.368652867,0,15,15,1,0,22,7,1101111,7222323,7152152,3112081,0,1101111,0,0,0,0,0,0,0,0,0,4051061,2040091,0,0,0,0,1131171,0,0,0,-4091101,0,0,3061051,0,0,0,0,0,0,1101061,0,2011020,0,0
4,339,891.496050986461,1,0,342179.109764311,342180.156789987,0,15,15,0,1,17,3,7082111,2171081,0,4110160,0,0,0,3071051,0,0,0,0,4011060,0,0,0,0,0,0,0,-2171081,0,0,0,0,0,0,0,0,0,0,0,0,0,4110160,0,0,0,0,0
4,340,641.420021129306,1,0,342182.050857585,342183.097875947,0,15,15,1,1,19,3,0,3131181,6261061,1140110,0,0,0,0,0,0,0,0,0,3131181,0,0,0,0,0,0,0,0,-3120020,3141041,0,0,0,0,0,0,0,0,0,0,1140110,0,0,0,0,0
4,341,650.548600475304,1,0,342184.897841377,342185.944863589,0,15,15,0,1,13,7,3201321,4142221,4150122,4250241,1180170,0,0,0,2021151,0,0,0,0,0,1091191,0,-3051030,0,0,0,0,0,1040061,3110061,0,0,0,0,0,0,0,0,1190091,3060150,0,0,0,0,0,0
4,342,658.169287606142,0,0,342187.674233338,342188.72125632,0,15,15,1,0,11,7,7100091,9372212,5222231,4180021,0,0,3060050,4040041,0,0,0,0,0,0,-3091081,4090111,0,0,0,2191020,0,0,0,0,0,0,0,0,1071140,4151091,0,4180021,0,0,0,0,0,0,0,0
4,343,1026.69934497681,0,0,342190.556520361,342191.603529099,0,15,15,1,0,25,7,1191131,2080141,7313553,3251170,0,0,0,0,0,0,1191131,0,0,0,0,0,2080141,0,0,0,0,0,0,0,0,1131140,0,2031181,-2010091,0,2141141,0,0,2050100,1201070,0,0,0,0,0
4,344,545.245994173456,1,0,342193.674057411,342194.721081548,0,15,15,0,1,3,3,9101173,0,3131080,0,0,0,-2020041,0,3020011,0,4061121,0,0,0,0,0,0,0,0,0,0,0,0,0,0,0,0,0,0,3131080,0,0,0,0,0,0,0,0,0,0
4,345,993.168090411928,0,0,342196.426923638,342197.473949699,0,15,15,0,0,31,3,1180130,0,0,8471343,0,0,0,0,0,0,0,0,1180130,0,0,0,0,0,0,0,0,0,0,0,0,0,0,0,0,0,0,0,4180011,0,-2191151,0,0,0,2100181,0
4,346,771.879826264922,1,0,342199.603306206,342200.650323798,0,15,15,1,1,29,3,9303301,0,0,2130110,0,0,3071041,0,2071150,0,4161110,0,0,0,0,0,0,0,0,0,0,0,0,0,0,0,0,0,0,0,0,0,-2130110,0,0,0,0,0,0,0
4,347,636.159144691192,1,0,342202.614988616,342203.662013523,0,15,15,1,1,2,3,4160170,1021031,0,3271190,0,-4160170,0,0,0,0,0,0,0,0,0,0,0,0,0,0,0,1021031,0,0,0,0,0,0,0,0,0,2180060,0,1091130,0,0,0,0,0,0
4,348,1166.17070120992,0,0,342205.509019258,342206.556044164,0,15,15,1,0,12,7,5351211,9282202,0,5293383,4170050,0,0,0,1181161,0,0,0,0,4021040,0,-3171131,0,0,0,2090031,0,0,0,0,0,0,0,0,0,0,0,0,1041091,0,0,0,0,3171121,1081171,0
4,349,666.905206744559,0,0,342208.897175395,342209.944181823,0,15,15,0,0,15,7,10393291,3050121,4170372,5080282,3181110,4131050,0,0,0,0,0,3081131,0,0,0,0,0,0,-3050121,0,0,0,0,3060181,0,0,0,0,0,0,1110191,0,0,0,0,0,0,4060141,1020141,0
4,350,485.021161613986,0,0,342211.802965054,342212.849987265,0,15,15,1,0,14,3,3191100,6221180,0,3181081,0,0,0,3191100,0,0,0,0,0,0,0,3061130,0,-3160050,0,0,0,0,0,0,0,0,0,0,0,0,0,0,3181081,0,0,0,0,0,0,0
4,351,915.253916697111,1,0,342214.461707941,342215.508733617,0,15,15,0,1,18,3,3060040,8280160,2051011,0,0,0,0,0,0,0,0,0,3060040,0,0,0,0,0,0,0,4160140,-4120020,0,0,0,0,0,2051011,0,0,0,0,0,0,0,0,0,0,0,0
4,352,818.633719929494,0,0,342217.473388426,342218.520414102,0,15,15,0,0,4,7,4201131,6171250,4091071,5232091,0,0,0,-2121061,0,0,0,2080070,0,0,0,1041020,4010050,0,0,0,1120180,0,0,0,0,0,0,0,4091071,0,0,0,0,0,0,4181041,0,0,0,1051050
4,353,564.052492030896,1,0,342220.543890177,342221.590911618,0,15,15,1,1,26,3,4131081,4130121,4190070,3170200,0,4131081,0,0,0,0,0,0,0,0,0,0,0,0,0,0,4130121,0,0,0,0,0,0,0,0,-4190070,0,0,0,0,3170200,0,0,0,0,0
4,354,536.061210616026,1,0,342223.190869041,342224.237889713,0,15,15,0,1,27,3,0,1121160,5261251,3101101,0,0,0,0,0,0,0,0,0,0,0,1121160,0,0,0,0,0,0,0,0,0,0,0,0,0,3080100,-2181151,0,0,0,0,0,0,3101101,0,0
4,355,797.673750494141,1,0,342225.920214923,342226.967281405,0,15,15,0,1,5,7,8252122,6352351,0,3140242,0,2161030,4011081,0,-2080011,0,0,0,0,0,1080060,0,0,0,0,4091121,1181170,0,0,0,0,0,0,0,0,0,0,0,1070101,0,0,0,0,0,2070141,0
4,356,1256.05562096462,1,0,342228.931885785,342229.978911846,0,15,15,0,1,36,7,11341191,1071021,9313332,2140151,0,0,0,4180040,4070040,0,3091111,0,0,1071021,0,0,0,0,0,0,0,0,2161121,0,0,0,0,3021120,4131091,0,0,0,0,0,0,0,0,0,0,-2140151
4,357,505.417548178229,1,0,342232.355324749,342233.402343496,0,15,15,0,1,10,3,4171011,4031061,2040121,3171120,4171011,0,0,0,0,0,0,0,0,-4031061,0,0,0,0,0,0,0,0,0,0,0,0,2040121,0,0,0,0,0,3171120,0,0,0,0,0,0,0
4,358,1161.96538764052,0,0,342235.072888131,342236.119915732,0,15,15,1,0,32,7,17681672,3131222,0,4120140,4060141,2090161,0,3181180,4200060,4150130,0,0,0,0,0,0,1081061,0,0,2050161,0,0,0,0,0,0,0,0,0,0,0,0,0,0,0,-4120140,0,0,0,0
4,359,610.480323724914,0,0,342238.402206835,342239.449238285,0,15,15,1,0,35,3,0,0,2130060,8281492,0,0,0,0,0,0,0,0,0,0,0,0,0,0,0,0,0,0,0,0,0,2130060,0,0,0,0,0,0,4160200,0,0,0,3100141,0,-1021151,0
4,360,569.096250517759,1,0,342241.11978677,342242.166800512,0,15,15,1,1,20,7,2201361,2151161,11313423,6352211,1190200,0,0,0,0,1011161,0,0,0,0,0,0,0,0,0,2151161,0,0,4201061,-4051181,0,0,0,0,3061181,0,0,0,0,0,0,3191151,3161060,0,0,0
4,361,968.033989251126,0,0,342276.989353527,342278.036378433,0,15,16,0,0,4,3,4150021,1171090,2060061,3051200,0,0,0,-4150021,0,0,0,0,0,0,0,0,0,0,1171090,0,0,0,0,0,0,0,0,0,0,0,2060061,0,0,3051200,0,0,0,0,0,0
4,362,740.085130557418,1,0,342280.14221729,342281.189233727,0,15,16,0,1,13,3,2242261,1031041,2111181,0,1171101,0,0,0,1071160,0,0,0,0,0,0,0,-1031041,0,0,0,0,0,0,0,0,0,0,2111181,0,0,0,0,0,0,0,0,0,0,0,0
4,363,646.116159914527,0,0,342283.083302095,342284.130325076,0,15,16,0,0,15,7,8111391,5181111,7101372,3101200,0,3010110,0,0,0,0,0,1061201,4040080,0,0,0,0,4170081,-1011030,0,0,0,0,4020181,0,0,0,0,0,3081191,0,3101200,0,0,0,0,0,0,0,0
4,364,1663.02634007297,1,0,342285.930282422,342286.977308869,0,15,16,1,1,20,7,2201361,2151161,11313423,6352211,1190200,0,0,0,0,1011161,0,0,0,0,0,0,0,0,0,2151161,0,0,4201061,-4051181,0,0,0,0,3061181,0,0,0,0,0,0,3191151,3161060,0,0,0
4,365,545.743363793008,0,0,342289.765465622,342290.812489373,0,15,16,1,0,22,7,1101111,7222323,7152152,3112081,0,1101111,0,0,0,0,0,0,0,0,0,4051061,2040091,0,0,0,0,1131171,0,0,0,-4091101,0,0,3061051,0,0,0,0,0,0,1101061,0,2011020,0,0
4,366,801.951821602415,1,0,342292.471278455,342293.518296817,0,15,16,1,1,25,7,1191131,2080141,7313553,3251170,0,0,0,0,0,0,1191131,0,0,0,0,0,2080141,0,0,0,0,0,0,0,0,1131140,0,2031181,-2010091,0,2141141,0,0,2050100,1201070,0,0,0,0,0
4,367,912.183468055446,0,0,342295.377075428,342296.424103799,0,15,16,1,0,19,3,0,3131181,6261061,1140110,0,0,0,0,0,0,0,0,0,3131181,0,0,0,0,0,0,0,0,-3120020,3141041,0,0,0,0,0,0,0,0,0,0,1140110,0,0,0,0,0
4,368,1492.9767647991,1,0,342298.518160541,342299.565187372,0,15,16,1,1,32,7,17681672,3131222,0,4120140,4060141,2090161,0,3181180,4200060,4150130,0,0,0,0,0,0,1081061,0,0,2050161,0,0,0,0,0,0,0,0,0,0,0,0,0,0,0,-4120140,0,0,0,0
4,369,2034.48017593473,1,0,342302.141587109,342303.18861394,0,15,16,0,1,27,3,0,3060191,7190182,0,0,0,0,0,0,0,0,0,0,0,0,0,0,3060191,0,0,0,0,0,4110061,0,0,0,0,0,2050010,-1030111,0,0,0,0,0,0,0,0,0
4,370,582.006301323418,0,0,342306.259125315,342307.306145216,0,15,16,1,0,14,3,3191100,6221180,0,3181081,0,0,0,3191100,0,0,0,0,0,0,0,3061130,0,-3160050,0,0,0,0,0,0,0,0,0,0,0,0,0,0,3181081,0,0,0,0,0,0,0
4,371,646.96191920666,0,0,342308.906110339,342309.953125236,0,15,16,1,0,35,3,0,0,2130060,8281492,0,0,0,0,0,0,0,0,0,0,0,0,0,0,0,0,0,0,0,0,0,2130060,0,0,0,0,0,0,4160200,0,0,0,3100141,0,-1021151,0
4,372,1022.29077211814,0,0,342311.764848529,342312.81187228,0,15,16,0,0,10,7,4351200,11422583,1091021,0,0,0,0,0,0,0,1160020,0,3191180,-2061161,0,1120190,1020091,4161101,0,3060040,0,0,0,0,0,1091021,0,0,0,0,0,0,0,0,0,0,0,0,0,0
4,373,671.712984156329,0,0,342314.882420611,342315.929427039,0,15,16,0,0,36,7,7132322,1201141,6291180,9432372,0,0,4091191,0,0,0,0,3041131,0,0,0,0,0,0,0,0,1201141,0,0,0,0,4131090,0,0,0,0,2160090,0,0,0,3171060,0,0,2190161,0,-4071151
4,374,896.547508717049,1,0,342317.682338307,342318.729351664,0,15,16,0,1,18,7,3180020,6551371,8182292,1190191,0,0,0,3180020,0,0,0,0,0,1180161,2090130,2141030,0,0,0,0,0,-1140050,4041151,0,0,0,4141141,0,0,0,0,1190191,0,0,0,0,0,0,0,0
4,375,1113.18698432297,1,0,342320.811657472,342321.858675834,0,15,16,1,1,12,7,5351211,9282202,0,5293383,4170050,0,0,0,1181161,0,0,0,0,4021040,0,-3171131,0,0,0,2090031,0,0,0,0,0,0,0,0,0,0,0,0,1041091,0,0,0,0,3171121,1081171,0
4,376,788.301875873003,0,0,342324.058617243,342325.105640224,0,15,16,1,0,26,3,4131081,4130121,4190070,3170200,0,4131081,0,0,0,0,0,0,0,0,0,0,0,0,0,0,4130121,0,0,0,0,0,0,0,0,-4190070,0,0,0,0,3170200,0,0,0,0,0
4,377,735.395151132252,0,0,342326.964418836,342328.011439507,0,15,16,0,0,30,3,0,5101112,0,8090262,0,0,0,0,0,0,0,0,0,0,3091071,0,0,0,0,2010041,0,0,0,0,0,0,0,0,0,0,0,0,0,-4030191,0,0,0,4060071,0,0
4,378,1271.94257488009,0,0,342329.787871119,342330.834896796,0,15,16,0,0,31,3,1071170,2091090,0,3201102,1071170,0,0,0,0,0,0,0,0,0,0,0,0,0,0,0,0,2091090,0,0,0,0,0,0,0,0,0,0,0,1171031,-2030071,0,0,0,0,0
4,379,673.574270389508,1,0,342333.270132888,342334.317209764,0,15,16,1,1,29,3,9303301,0,0,2130110,0,0,3071041,0,2071150,0,4161110,0,0,0,0,0,0,0,0,0,0,0,0,0,0,0,0,0,0,0,0,0,-2130110,0,0,0,0,0,0,0
4,380,929.478224134073,1,0,342336.105339955,342337.152362551,0,15,16,0,1,5,3,8251382,0,3200030,0,0,0,0,0,-4131100,1060131,0,3060151,0,0,0,0,0,0,0,0,0,0,0,0,0,0,0,0,0,3200030,0,0,0,0,0,0,0,0,0,0
4,381,860.940159647726,0,0,342339.128782538,342340.175814758,0,15,16,1,0,2,3,4160170,1021031,0,3271190,0,-4160170,0,0,0,0,0,0,0,0,0,0,0,0,0,0,0,1021031,0,0,0,0,0,0,0,0,0,2180060,0,1091130,0,0,0,0,0,0
4,382,659.671790257562,1,0,342342.116938444,342343.16400839,0,15,16,1,1,11,7,7100091,9372212,5222231,4180021,0,0,3060050,4040041,0,0,0,0,0,0,-3091081,4090111,0,0,0,2191020,0,0,0,0,0,0,0,0,1071140,4151091,0,4180021,0,0,0,0,0,0,0,0
4,383,1293.0765466881,0,0,342345.022732722,342346.069758013,0,15,16,0,0,3,7,4031200,11422442,7212211,1131091,0,0,-4031200,0,0,0,0,0,0,0,0,0,3120090,1131081,0,0,3141131,4030140,0,0,4071081,0,0,0,0,3141130,0,0,0,0,0,1131091,0,0,0,0
4,384,769.671305199154,1,0,342348.446170916,342349.493188123,0,15,16,0,1,17,7,0,6100121,10432462,4051302,0,0,0,0,0,0,0,0,0,0,3040071,0,0,0,0,0,-3060050,0,3190161,1030050,3121191,0,0,0,0,3091060,0,0,2040151,0,0,0,0,0,2011151,0
4,385,884.789646079298,1,0,342384.374562788,342385.421595008,0,15,17,0,1,15,7,6352192,6230092,3241350,1051010,3131071,0,0,2040031,0,0,1181090,0,0,2070061,0,0,0,0,-4160031,0,0,0,1050190,0,0,0,0,0,2191160,0,0,0,0,0,0,0,0,0,0,1051010
4,386,1063.39074415155,0,0,342387.456838569,342388.503860396,0,15,17,0,0,5,7,8563633,6162231,5131141,0,0,0,1170190,1041141,-2151111,0,4201191,0,0,0,0,2041071,0,0,0,0,0,4121160,1100071,0,0,0,4031070,0,0,0,0,0,0,0,0,0,0,0,0,0
4,387,947.092882881407,1,0,342390.680273376,342391.727291353,0,15,17,1,1,19,3,0,3131181,6261061,1140110,0,0,0,0,0,0,0,0,0,3131181,0,0,0,0,0,0,0,0,-3120020,3141041,0,0,0,0,0,0,0,0,0,0,1140110,0,0,0,0,0
4,388,847.471915418282,1,0,342393.856648245,342394.903671611,0,15,17,0,1,31,7,1030050,1040121,1171160,12572694,0,0,0,0,1030050,0,0,0,0,0,0,1040121,0,0,0,0,0,0,0,0,0,0,0,0,1171160,0,0,0,0,2161151,-3010111,4100191,1200150,2101091,0,0
4,389,1029.08417815343,0,0,342396.774215014,342397.82124223,0,15,17,0,0,10,7,2200020,6363352,9330340,3021030,2200020,0,0,0,0,0,0,0,0,-1081161,0,0,1121081,0,0,4161110,0,0,0,4030170,0,0,0,3110080,2190090,0,0,0,0,0,0,0,0,3021030,0,0
4,390,1086.36097970884,0,0,342399.891775162,342400.938798529,0,15,17,0,0,27,7,5290221,8210422,4202121,0,0,3190040,0,0,0,0,0,0,2100181,0,0,3020151,0,0,4120130,0,1070141,0,0,0,0,0,0,0,1051040,2031051,-1120030,0,0,0,0,0,0,0,0,0
4,391,813.613829028327,0,0,342403.197570057,342404.244590344,0,15,17,1,0,2,3,4160170,1021031,0,3271190,0,-4160170,0,0,0,0,0,0,0,0,0,0,0,0,0,0,0,1021031,0,0,0,0,0,0,0,0,0,2180060,0,1091130,0,0,0,0,0,0
4,392,680.850417586043,1,0,342406.16218791,342407.209209736,0,15,17,1,1,22,7,1101111,7222323,7152152,3112081,0,1101111,0,0,0,0,0,0,0,0,0,4051061,2040091,0,0,0,0,1131171,0,0,0,-4091101,0,0,3061051,0,0,0,0,0,0,1101061,0,2011020,0,0
4,393,575.426163617522,1,0,342408.938581026,342409.985598618,0,15,17,0,1,17,3,1150200,1141121,2211251,0,0,0,0,0,0,0,0,1150200,0,0,0,0,0,0,0,0,-1141121,0,0,0,0,0,1060050,0,0,0,1151201,0,0,0,0,0,0,0,0,0
4,394,777.956050005741,0,0,342411.60909063,342412.656112841,0,15,17,1,0,26,3,4131081,4130121,4190070,3170200,0,4131081,0,0,0,0,0,0,0,0,0,0,0,0,0,0,4130121,0,0,0,0,0,0,0,0,-4190070,0,0,0,0,3170200,0,0,0,0,0
4,395,1154.16222898057,0,0,342414.514892607,342415.561922133,0,15,17,1,0,32,7,17681672,3131222,0,4120140,4060141,2090161,0,3181180,4200060,4150130,0,0,0,0,0,0,1081061,0,0,2050161,0,0,0,0,0,0,0,0,0,0,0,0,0,0,0,-4120140,0,0,0,0
4,396,691.685528727248,0,0,342417.738392472,342418.785392356,0,15,17,0,0,36,3,4020181,2130081,0,3091230,4020181,0,0,0,0,0,0,0,0,0,0,0,0,2130081,0,0,0,0,0,0,0,0,0,0,0,0,0,0,0,1031100,0,0,0,0,0,-2060130
4,397,1393.76347104553,1,0,342420.538254733,342421.585278484,0,15,17,1,1,35,3,0,0,2130060,8281492,0,0,0,0,0,0,0,0,0,0,0,0,0,0,0,0,0,0,0,0,0,2130060,0,0,0,0,0,0,4160200,0,0,0,3100141,0,-1021151,0
4,398,898.35259062238,1,0,342424.161680916,342425.208703513,0,15,17,0,1,4,3,4190181,8241243,0,0,0,0,0,-4190181,0,0,0,0,0,0,2100011,0,0,2011031,0,0,4130201,0,0,0,0,0,0,0,0,0,0,0,0,0,0,0,0,0,0,0
4,399,644.841169239953,1,0,342427.138065486,342428.185090392,0,15,17,1,1,14,3,3191100,6221180,0,3181081,0,0,0,3191100,0,0,0,0,0,0,0,3061130,0,-3160050,0,0,0,0,0,0,0,0,0,0,0,0,0,0,3181081,0,0,0,0,0,0,0
4,400,692.557080357801,0,0,342429.914456292,342430.961484278,0,15,17,0,0,13,3,1021111,7132292,0,0,0,0,1021111,0,0,0,0,0,0,0,3071090,0,-1041151,0,0,3020051,0,0,0,0,0,0,0,0,0,0,0,0,0,0,0,0,0,0,0,0
4,401,739.697474869899,0,0,342432.679142361,342433.726111063,0,15,17,0,0,30,3,5261131,0,0,6241161,0,0,0,0,0,0,2140081,0,3121050,0,0,0,0,0,0,0,0,0,0,0,0,0,0,0,0,0,0,0,0,-2150020,0,0,0,0,0,4091141
4,402,780.805916059762,1,0,342435.479008471,342436.526031838,0,15,17,0,1,3,7,8211523,3130070,4021181,6181251,0,2130161,-2040111,0,2030051,0,0,0,2011200,0,0,0,3130070,0,0,0,0,0,0,0,0,0,4021181,0,0,0,0,0,0,0,0,0,4161131,2020120,0,0
4,403,618.148361158092,0,0,342438.443630174,342439.49065508,0,15,17,0,0,18,3,3210051,5321302,0,0,0,0,0,0,0,0,0,2050041,1160010,0,0,0,1151151,0,0,0,0,-4170151,0,0,0,0,0,0,0,0,0,0,0,0,0,0,0,0,0,0
4,404,695.102827216033,1,0,342441.290608192,342442.337631943,0,15,17,1,1,20,7,2201361,2151161,11313423,6352211,1190200,0,0,0,0,1011161,0,0,0,0,0,0,0,0,0,2151161,0,0,4201061,-4051181,0,0,0,0,3061181,0,0,0,0,0,0,3191151,3161060,0,0,0
4,405,836.14713390125,1,0,342444.13758698,342445.184610346,0,15,17,1,1,11,7,7100091,9372212,5222231,4180021,0,0,3060050,4040041,0,0,0,0,0,0,-3091081,4090111,0,0,0,2191020,0,0,0,0,0,0,0,0,1071140,4151091,0,4180021,0,0,0,0,0,0,0,0
4,406,998.770812235307,0,0,342447.113985023,342448.160998766,0,15,17,1,0,25,7,1191131,2080141,7313553,3251170,0,0,0,0,0,0,1191131,0,0,0,0,0,2080141,0,0,0,0,0,0,0,0,1131140,0,2031181,-2010091,0,2141141,0,0,2050100,1201070,0,0,0,0,0
4,407,1700.27862733696,1,0,342450.337413285,342451.384436652,0,15,17,1,1,12,7,5351211,9282202,0,5293383,4170050,0,0,0,1181161,0,0,0,0,4021040,0,-3171131,0,0,0,2090031,0,0,0,0,0,0,0,0,0,0,0,0,1041091,0,0,0,0,3171121,1081171,0
4,408,833.038189157378,0,0,342454.266711355,342455.313733182,0,15,17,1,0,29,3,9303301,0,0,2130110,0,0,3071041,0,2071150,0,4161110,0,0,0,0,0,0,0,0,0,0,0,0,0,0,0,0,0,0,0,0,0,-2130110,0,0,0,0,0,0,0
4,409,960.760151909199,1,0,342490.324567523,342491.371548544,0,15,18,1,1,25,7,1191131,2080141,7313553,3251170,0,0,0,0,0,0,1191131,0,0,0,0,0,2080141,0,0,0,0,0,0,0,0,1131140,0,2031181,-2010091,0,2141141,0,0,2050100,1201070,0,0,0,0,0
4,410,843.333585129585,0,0,342493.395025773,342494.442049524,0,15,18,0,0,3,7,3190180,6052240,6201282,7340352,0,0,-3190180,0,0,0,0,0,0,3011040,0,0,3041200,0,0,0,0,0,0,0,3091081,3110201,0,0,0,0,0,0,1040131,4160201,0,2140020,0,0,0,0
4,411,508.407924906351,1,0,342496.300820051,342497.347851887,0,15,18,1,1,20,7,2201361,2151161,11313423,6352211,1190200,0,0,0,0,1011161,0,0,0,0,0,0,0,0,0,2151161,0,0,4201061,-4051181,0,0,0,0,3061181,0,0,0,0,0,0,3191151,3161060,0,0,0
4,412,768.797058844939,0,0,342498.971332735,342500.018355331,0,15,18,0,0,5,7,5271071,4270251,7310131,4201060,0,0,0,3101031,-2170040,0,0,0,0,3130150,1140101,0,0,0,0,0,0,0,3140110,0,0,4170021,0,0,0,0,0,2030040,0,0,0,0,0,0,0,2171020
4,413,818.946308223531,1,0,342501.877133557,342502.924153844,0,15,18,1,1,26,3,4131081,4130121,4190070,3170200,0,4131081,0,0,0,0,0,0,0,0,0,0,0,0,0,0,4130121,0,0,0,0,0,0,0,0,-4190070,0,0,0,0,3170200,0,0,0,0,0
4,414,739.587760996073,0,0,342504.806470508,342505.853489255,0,15,18,1,0,35,3,0,0,2130060,8281492,0,0,0,0,0,0,0,0,0,0,0,0,0,0,0,0,0,0,0,0,0,2130060,0,0,0,0,0,0,4160200,0,0,0,3100141,0,-1021151,0
4,415,615.117178531364,0,0,342507.771085667,342508.818108263,0,15,18,0,0,15,7,4160160,5241261,5282271,10292341,0,0,0,0,0,4160160,0,0,0,3050141,0,0,0,0,-2191120,0,0,0,1201170,0,0,0,0,4081101,0,0,0,3020050,0,0,3141130,4131161,0,0,0,0
4,416,828.517977613956,0,0,342510.641592114,342511.68861625,0,15,18,1,0,11,7,7100091,9372212,5222231,4180021,0,0,3060050,4040041,0,0,0,0,0,0,-3091081,4090111,0,0,0,2191020,0,0,0,0,0,0,0,0,1071140,4151091,0,4180021,0,0,0,0,0,0,0,0
4,417,613.633154018316,0,0,342513.700336001,342514.747356673,0,15,18,0,0,10,7,6282311,6251560,3011150,4081100,0,0,0,0,0,0,4121201,0,2161110,-1141170,0,1040160,0,2060060,0,2010170,0,0,0,0,0,0,0,3011150,0,0,0,0,0,0,0,0,0,0,4081100,0
4,418,686.256424349267,1,0,342516.512019644,342517.559038775,0,15,18,0,1,4,3,4240130,0,0,6221371,0,0,0,-2100060,0,0,0,0,2140070,0,0,0,0,0,0,0,0,0,0,0,0,0,0,0,0,0,0,0,0,3180181,0,3041190,0,0,0,0
4,419,718.673601862974,1,0,342519.347275985,342520.394255081,0,15,18,0,1,30,3,0,1110100,0,8430272,0,0,0,0,0,0,0,0,0,0,1110100,0,0,0,0,0,0,0,0,0,0,0,0,0,0,0,0,0,0,-4170021,0,3110161,1150090,0,0,0
4,420,464.983943558764,0,0,342522.30008901,342523.347105447,0,15,18,0,0,27,3,3141170,1121051,3151160,3021101,0,0,0,0,0,0,0,0,3141170,0,0,0,0,0,0,0,0,1121051,0,0,0,0,0,0,0,0,-3151160,0,0,3021101,0,0,0,0,0,0
4,421,442.430620663799,0,0,342524.923544451,342525.970566662,0,15,18,1,0,22,7,1101111,7222323,7152152,3112081,0,1101111,0,0,0,0,0,0,0,0,0,4051061,2040091,0,0,0,0,1131171,0,0,0,-4091101,0,0,3061051,0,0,0,0,0,0,1101061,0,2011020,0,0
4,422,625.4984207917,1,0,342527.476409985,342528.523437201,0,15,18,0,1,17,3,0,4141101,5330051,4120131,0,0,0,0,0,0,0,0,0,0,0,0,0,0,0,0,-4141101,0,0,0,0,0,1150010,0,0,4180041,0,0,0,4120131,0,0,0,0,0,0
4,423,822.062567225657,1,0,342530.205748937,342531.252772304,0,15,18,0,1,31,3,1170081,4212142,0,3131130,0,0,0,0,1170081,0,0,0,0,0,0,0,0,3031111,0,1181031,0,0,0,0,0,0,0,0,0,0,0,0,0,0,-3131130,0,0,0,0,0
4,424,613.625454774592,1,0,342533.182141976,342534.229162263,0,15,18,1,1,2,3,4160170,1021031,0,3271190,0,-4160170,0,0,0,0,0,0,0,0,0,0,0,0,0,0,0,1021031,0,0,0,0,0,0,0,0,0,2180060,0,1091130,0,0,0,0,0,0
4,425,897.563805629034,0,0,342535.97029026,342537.017313627,0,15,18,1,0,29,3,9303301,0,0,2130110,0,0,3071041,0,2071150,0,4161110,0,0,0,0,0,0,0,0,0,0,0,0,0,0,0,0,0,0,0,0,0,-2130110,0,0,0,0,0,0,0
4,426,1651.01324830903,1,0,342538.934908113,342539.98193071,0,15,18,1,1,32,7,17681672,3131222,0,4120140,4060141,2090161,0,3181180,4200060,4150130,0,0,0,0,0,0,1081061,0,0,2050161,0,0,0,0,0,0,0,0,0,0,0,0,0,0,0,-4120140,0,0,0,0
4,427,721.115024294704,1,0,342542.687752013,342543.73476768,0,15,18,0,1,18,3,3340142,5230381,0,0,0,0,2200111,0,0,1140031,0,0,0,0,0,2050181,0,0,0,0,0,-3180200,0,0,0,0,0,0,0,0,0,0,0,0,0,0,0,0,0,0
4,428,729.996073641814,0,0,342545.487670478,342546.534696539,0,15,18,0,0,36,7,12391401,9252301,0,2190121,0,0,2111170,0,4170030,0,4100071,0,2010130,0,0,0,0,4120190,0,4091080,0,1041031,0,0,0,0,0,0,0,0,0,0,0,0,0,0,0,0,0,-2190121
4,429,724.430693080649,0,0,342548.29939993,342549.346377871,0,15,18,0,0,13,7,0,3251320,7382323,4271321,0,0,0,0,0,0,0,0,0,0,0,0,-2090120,1161200,0,0,0,0,2131121,0,1020130,2101061,0,0,0,2130011,0,0,2200140,0,2071181,0,0,0,0,0
4,430,988.86576667428,0,0,342551.275811832,342552.322765906,0,15,18,1,0,12,7,5351211,9282202,0,5293383,4170050,0,0,0,1181161,0,0,0,0,4021040,0,-3171131,0,0,0,2090031,0,0,0,0,0,0,0,0,0,0,0,0,1041091,0,0,0,0,3171121,1081171,0
4,431,928.762196796015,1,0,342554.358006002,342555.405028983,0,15,18,1,1,14,3,3191100,6221180,0,3181081,0,0,0,3191100,0,0,0,0,0,0,0,3061130,0,-3160050,0,0,0,0,0,0,0,0,0,0,0,0,0,0,3181081,0,0,0,0,0,0,0
4,432,562.251259689219,1,0,342557.53439396,342558.581412706,0,15,18,1,1,19,3,0,3131181,6261061,1140110,0,0,0,0,0,0,0,0,0,3131181,0,0,0,0,0,0,0,0,-3120020,3141041,0,0,0,0,0,0,0,0,0,0,1140110,0,0,0,0,0
4,433,600.831277261022,0,0,342593.227501926,342594.274531067,0,15,19,0,0,10,3,0,4071120,2040050,4031071,0,0,0,0,0,0,0,0,0,-1061070,0,3010050,0,0,0,0,0,0,0,0,0,0,0,2040050,0,0,0,0,0,0,0,4031071,0,0,0,0
4,434,1022.98716641963,1,0,342595.933303211,342596.980326193,0,15,19,0,1,36,3,4101040,0,0,8161381,4101040,0,0,0,0,0,0,0,0,0,0,0,0,0,0,0,0,0,0,0,0,0,0,0,0,0,0,4070160,0,2021040,0,0,0,0,0,-2070181
4,435,833.107482176274,0,0,342599.133219213,342600.18023411,0,15,19,1,0,12,7,5351211,9282202,0,5293383,4170050,0,0,0,1181161,0,0,0,0,4021040,0,-3171131,0,0,0,2090031,0,0,0,0,0,0,0,0,0,0,0,0,1041091,0,0,0,0,3171121,1081171,0
4,436,555.836655199528,0,0,342602.027250239,342603.07427399,0,15,19,1,0,14,3,3191100,6221180,0,3181081,0,0,0,3191100,0,0,0,0,0,0,0,3061130,0,-3160050,0,0,0,0,0,0,0,0,0,0,0,0,0,0,3181081,0,0,0,0,0,0,0
4,437,784.180483839009,0,0,342604.733058453,342605.780077585,0,15,19,1,0,32,7,17681672,3131222,0,4120140,4060141,2090161,0,3181180,4200060,4150130,0,0,0,0,0,0,1081061,0,0,2050161,0,0,0,0,0,0,0,0,0,0,0,0,0,0,0,-4120140,0,0,0,0
4,438,772.769086062908,1,0,342607.768265058,342608.815288809,0,15,19,1,1,25,7,1191131,2080141,7313553,3251170,0,0,0,0,0,0,1191131,0,0,0,0,0,2080141,0,0,0,0,0,0,0,0,1131140,0,2031181,-2010091,0,2141141,0,0,2050100,1201070,0,0,0,0,0
4,439,647.53743581241,1,0,342610.697598929,342611.744619986,0,15,19,1,1,29,3,9303301,0,0,2130110,0,0,3071041,0,2071150,0,4161110,0,0,0,0,0,0,0,0,0,0,0,0,0,0,0,0,0,0,0,0,0,-2130110,0,0,0,0,0,0,0
4,440,591.178381175268,1,0,342613.426935187,342614.473953934,0,15,19,0,1,15,7,5311181,9402392,0,5573302,0,4120081,0,0,0,0,1191100,0,0,0,0,3091150,0,0,-2130111,0,4181131,0,0,0,0,0,0,0,0,0,0,1181191,1201030,0,0,0,3191081,0,0,0
4,441,593.334162549581,0,0,342616.179787555,342617.226819776,0,15,19,0,0,13,3,6201102,4091030,2111100,0,4101021,0,0,2100081,0,0,0,0,0,0,0,0,-4091030,0,0,0,0,0,0,0,0,0,0,2111100,0,0,0,0,0,0,0,0,0,0,0,0
4,442,1040.47940752935,0,0,342618.932660326,342619.979679843,0,15,19,0,0,3,7,8371211,2170091,4170191,8322422,0,0,-1120020,3090010,0,0,4161181,0,0,0,0,2170091,0,0,0,0,0,0,0,0,0,0,0,4170191,0,0,0,0,2030201,3191141,0,3101080,0,0,0,0
4,443,644.268732285127,1,0,342622.179622022,342623.226643848,0,15,19,1,1,2,3,4160170,1021031,0,3271190,0,-4160170,0,0,0,0,0,0,0,0,0,0,0,0,0,0,0,1021031,0,0,0,0,0,0,0,0,0,2180060,0,1091130,0,0,0,0,0,0
4,444,687.406302662566,0,0,342624.932487094,342625.979511615,0,15,19,0,0,27,7,5380100,1111151,10181421,6110232,0,0,0,0,0,4190080,0,0,1190020,0,1111151,0,0,0,0,0,0,0,0,0,4140110,0,0,3021160,0,0,-3020151,0,2070131,4040101,0,0,0,0,0,0
4,445,829.991608101409,0,0,342627.708884829,342628.755900497,0,15,19,1,0,19,3,0,3131181,6261061,1140110,0,0,0,0,0,0,0,0,0,3131181,0,0,0,0,0,0,0,0,-3120020,3141041,0,0,0,0,0,0,0,0,0,0,1140110,0,0,0,0,0
4,446,628.638162394054,1,0,342630.779384655,342631.826407251,0,15,19,1,1,35,3,0,0,2130060,8281492,0,0,0,0,0,0,0,0,0,0,0,0,0,0,0,0,0,0,0,0,0,2130060,0,0,0,0,0,0,4160200,0,0,0,3100141,0,-1021151,0
4,447,818.520926404744,0,0,342633.626366138,342634.673385269,0,15,19,0,0,30,7,0,4120161,7222272,9621341,0,0,0,0,0,0,0,0,0,0,4120161,0,0,0,0,0,0,0,3161091,0,0,0,0,0,0,1041071,3020110,4180170,0,-2130111,0,0,0,2150050,0,1161010
4,448,957.849462109152,1,0,342636.543926363,342637.590943185,0,15,19,0,1,17,7,5371140,3112371,2181021,6262321,0,0,2180110,0,0,0,3191030,0,0,0,0,0,0,2051200,0,0,-1061171,0,0,0,0,0,0,2181021,0,0,0,4031101,0,0,0,0,1031110,0,0,1200110
4,449,760.729431989603,0,0,342639.57915491,342640.626206764,0,15,19,0,0,5,7,8323411,8572492,0,1151160,2191130,0,4101170,0,-2031111,0,0,0,0,0,1161080,0,0,3140160,1131141,0,0,3140111,0,0,0,0,0,0,0,0,0,0,0,0,0,0,0,1151160,0,0
4,450,671.483932412229,1,0,342642.520229706,342643.567246913,0,15,19,1,1,22,7,1101111,7222323,7152152,3112081,0,1101111,0,0,0,0,0,0,0,0,0,4051061,2040091,0,0,0,0,1131171,0,0,0,-4091101,0,0,3061051,0,0,0,0,0,0,1101061,0,2011020,0,0
4,451,468.10020256089,0,0,342645.343680065,342646.390694577,0,15,19,1,0,26,3,4131081,4130121,4190070,3170200,0,4131081,0,0,0,0,0,0,0,0,0,0,0,0,0,0,4130121,0,0,0,0,0,0,0,0,-4190070,0,0,0,0,3170200,0,0,0,0,0
4,452,517.56499131443,1,0,342647.920126767,342648.967121262,0,15,19,0,1,4,3,2060141,3160050,5031310,0,0,0,0,-2060141,0,0,0,0,0,0,0,0,3160050,0,0,0,0,0,0,0,0,2011200,0,0,3020110,0,0,0,0,0,0,0,0,0,0,0
4,453,672.368572675623,0,0,342650.602349963,342651.649371405,0,15,19,0,0,31,3,2060160,0,2151041,3101302,2060160,0,0,0,0,0,0,0,0,0,0,0,0,0,0,0,0,0,0,0,0,0,0,0,0,2151041,0,0,0,2090121,-1011181,0,0,0,0,0
4,454,557.414610171691,1,0,342653.508149246,342654.555172227,0,15,19,1,1,20,7,2201361,2151161,11313423,6352211,1190200,0,0,0,0,1011161,0,0,0,0,0,0,0,0,0,2151161,0,0,4201061,-4051181,0,0,0,0,3061181,0,0,0,0,0,0,3191151,3161060,0,0,0
4,455,554.316444322467,1,0,342656.249302266,342657.296274817,0,15,19,0,1,18,3,0,3161241,0,4290201,0,0,0,0,0,0,0,0,0,0,0,0,0,0,2141070,0,0,-1020171,0,0,0,0,0,0,0,0,0,0,0,2170190,2120011,0,0,0,0,0
4,456,642.306201334577,0,0,342658.896238785,342659.943260996,0,15,19,1,0,11,7,7100091,9372212,5222231,4180021,0,0,3060050,4040041,0,0,0,0,0,0,-3091081,4090111,0,0,0,2191020,0,0,0,0,0,0,0,0,1071140,4151091,0,4180021,0,0,0,0,0,0,0,0
4,457,1001.56254915055,0,0,342694.824664148,342695.871657103,0,15,20,1,0,29,3,9303301,0,0,2130110,0,0,3071041,0,2071150,0,4161110,0,0,0,0,0,0,0,0,0,0,0,0,0,0,0,0,0,0,0,0,0,-2130110,0,0,0,0,0,0,0
4,458,740.43198034633,0,0,342698.059838339,342699.106863245,0,15,20,1,0,19,3,0,3131181,6261061,1140110,0,0,0,0,0,0,0,0,0,3131181,0,0,0,0,0,0,0,0,-3120020,3141041,0,0,0,0,0,0,0,0,0,0,1140110,0,0,0,0,0
4,459,640.346750034951,1,0,342700.906847539,342701.953838569,0,15,20,0,1,36,3,0,3061071,0,7291181,0,0,0,0,0,0,0,0,0,0,0,0,3061071,0,0,0,0,0,0,0,0,0,0,0,0,0,0,1140130,0,0,0,0,0,3070010,0,-3081041
4,460,894.824423419777,1,0,342703.671444296,342704.718471897,0,15,20,1,1,25,7,1191131,2080141,7313553,3251170,0,0,0,0,0,0,1191131,0,0,0,0,0,2080141,0,0,0,0,0,0,0,0,1131140,0,2031181,-2010091,0,2141141,0,0,2050100,1201070,0,0,0,0,0
4,461,1163.62572426442,1,0,342706.659587499,342707.706616639,0,15,20,0,1,4,3,5301342,0,8140172,0,0,0,0,-3101141,0,2200201,0,0,0,0,0,0,0,0,0,0,0,0,0,0,4050021,0,0,0,4090151,0,0,0,0,0,0,0,0,0,0,0
4,462,937.458849919494,1,0,342709.906562283,342710.953586034,0,15,20,0,1,13,7,5211172,6290171,8332171,6291161,0,0,0,0,3091051,0,0,0,2120121,0,0,0,-3200141,3090030,0,0,0,0,0,0,0,0,0,4131120,0,4201051,0,0,2101080,4190081,0,0,0,0,0,0
4,463,1023.63775047706,0,0,342713.059420272,342714.106437864,0,15,20,0,0,17,7,2011161,10422373,5072061,3171150,0,0,0,0,0,0,0,2011161,0,0,2061081,0,3170061,0,0,0,-4181151,1010080,0,1031050,0,0,0,0,0,0,4041011,0,0,0,0,0,0,3171150,0,0
4,464,1389.61128209485,1,0,342716.20050038,342717.247521051,0,15,20,1,1,32,7,17681672,3131222,0,4120140,4060141,2090161,0,3181180,4200060,4150130,0,0,0,0,0,0,1081061,0,0,2050161,0,0,0,0,0,0,0,0,0,0,0,0,0,0,0,-4120140,0,0,0,0
4,465,1746.56479345867,0,0,342719.800420462,342720.847418421,0,15,20,0,0,30,3,0,0,2131050,7292462,0,0,0,0,0,0,0,0,0,0,0,0,0,0,0,0,0,0,2131050,0,0,0,0,0,0,0,0,0,3111141,-1011170,0,0,3170151,0,0,0
4,466,534.977545496076,0,0,342723.717939881,342724.764954778,0,15,20,1,0,22,7,1101111,7222323,7152152,3112081,0,1101111,0,0,0,0,0,0,0,0,0,4051061,2040091,0,0,0,0,1131171,0,0,0,-4091101,0,0,3061051,0,0,0,0,0,0,1101061,0,2011020,0,0
