sub_id,Trial,RT,Resp,Error,Fix_onset,Disp_onset,q1,q2,block,repeat,tid,tloc,d_setsize,quad1,quad2,quad3,quad4,loc1,loc2,loc3,loc4,loc5,loc6,loc7,loc8,loc9,loc10,loc11,loc12,loc13,loc14,loc15,loc16,loc17,loc18,loc19,loc20,loc21,loc22,loc23,loc24,loc25,loc26,loc27,loc28,loc29,loc30,loc31,loc32,loc33,loc34,loc35,loc36
5,1,1632.76438671164,1,0,516449.872645491,516450.919772978,0,30,1,1,1,28,7,8403452,10271492,0,5322331,2171161,0,0,0,0,0,3081201,3151090,0,0,0,3090131,4071160,0,3110201,0,0,0,0,0,0,0,0,0,0,0,0,-3171180,0,0,2151151,0,0,0,0,0
5,2,687.971850682516,0,0,516453.731539817,516454.77860802,0,30,1,0,0,9,7,11340441,6161361,3130031,4141141,2060110,4130031,0,3010160,0,0,0,0,-2140140,0,0,3061170,0,0,0,0,3100191,0,0,0,0,0,0,3130031,0,0,0,4141141,0,0,0,0,0,0,0,0
5,3,785.611029947177,1,0,516456.508051025,516457.555121538,0,30,1,1,1,26,7,10322252,0,9221363,5351222,3061010,0,0,3171091,0,4090151,0,0,0,0,0,0,0,0,0,0,0,0,0,0,0,4120181,0,0,0,-3010041,2091141,0,0,1160061,0,0,0,0,4191161,0
5,4,1439.29727637442,1,0,516459.343388345,516460.390452698,0,30,1,1,1,34,7,10251291,4241151,3321350,1141180,4061050,0,2040040,0,4150201,0,0,0,0,0,0,1091071,0,0,3150080,0,0,0,0,2201180,1120170,0,0,0,0,0,0,0,0,0,0,0,0,-1141180,0,0
5,5,860.684095881879,1,0,516463.025821277,516464.072867922,0,30,1,1,1,31,3,0,6281182,2131051,2151120,0,0,0,0,0,0,0,0,0,0,0,3110171,0,0,3171011,0,0,0,0,2131051,0,0,0,0,0,0,0,0,0,0,-2151120,0,0,0,0,0
5,6,957.495990907773,0,0,516466.11998925,516467.167035895,0,30,1,0,0,18,3,1050011,5172132,3011160,0,0,0,0,0,0,0,1050011,0,0,0,0,0,0,4101031,0,0,0,-1071101,0,0,0,0,0,3011160,0,0,0,0,0,0,0,0,0,0,0,0
5,7,917.322465218604,0,0,516469.261185005,516470.308253978,0,30,1,1,0,19,3,4121011,3111111,4041200,3190081,4121011,0,0,0,0,0,0,0,0,0,0,3111111,0,0,0,0,0,0,-4041200,0,0,0,0,0,0,0,0,0,0,0,0,3190081,0,0,0,0
5,8,754.242365306709,1,0,516472.261223886,516473.308301713,0,30,1,0,1,4,7,12372371,4151181,2290251,4040160,0,0,0,-3021150,0,4070050,0,4140111,1141060,0,0,0,4151181,0,0,0,0,0,0,0,0,1140170,0,0,0,0,1150081,0,0,0,0,0,0,4040160,0,0
5,9,542.024119291455,0,0,516475.096609711,516476.143645962,0,30,1,1,0,14,3,1161030,1031130,3141071,2180080,0,0,0,0,0,1161030,0,0,0,0,0,0,0,-1031130,0,0,0,0,0,0,0,3141071,0,0,0,0,0,0,0,0,0,0,0,0,0,2180080
5,10,989.253467647359,0,0,516477.873086273,516478.920147161,0,30,1,0,0,24,3,4081061,0,5311230,4071011,0,0,0,0,0,0,4081061,0,0,0,0,0,0,0,0,0,0,0,0,0,0,0,0,-1171110,0,4140120,0,0,0,0,0,4071011,0,0,0,0
5,11,589.034962933511,1,0,516480.955482864,516482.00257455,0,30,1,0,1,29,7,6180351,4180110,4311240,8342303,4100200,0,0,0,0,0,0,2080151,0,4180110,0,0,0,0,0,0,0,0,0,0,3191070,0,1120170,0,0,0,0,0,-2101091,2050031,0,0,0,0,0,4191181
5,12,2135.32977644354,1,0,516483.72022731,516484.767296668,0,30,1,0,1,12,7,3151180,9263362,4191160,5351282,0,0,3151180,0,0,0,0,0,0,0,1051201,-1090080,0,0,0,3041061,0,4081020,0,0,0,0,0,0,0,4191160,0,0,0,0,1160191,4191091,0,0,0,0
5,13,639.499689568765,0,0,516488.096760231,516489.143833053,0,30,1,1,0,16,3,1170091,4110061,1140040,2181160,0,0,0,0,0,0,0,1170091,0,0,0,0,0,0,0,-4110061,0,0,0,0,0,1140040,0,0,0,0,0,0,0,0,0,0,2181160,0,0,0
5,14,1704.30195750669,0,0,516490.93210525,516491.979173068,0,30,1,0,0,35,7,6252350,9431331,0,2172201,0,0,3111090,2121140,0,0,0,0,1020120,0,0,0,0,4140150,0,1111031,0,4180150,0,0,0,0,0,0,0,0,0,0,1051030,0,0,0,0,0,-1121171,0
5,15,789.138440857641,0,0,516494.838043141,516495.885117889,0,30,1,1,0,11,7,2161131,9371301,4313352,2181151,0,0,0,0,0,0,2161131,0,0,0,-2140080,0,3170031,0,0,0,0,4061190,2071061,1101181,0,0,0,0,0,0,1141110,0,0,0,2181151,0,0,0,0,0
5,16,1442.532500776,0,0,516497.74395678,516498.791033453,0,30,1,1,0,13,7,6331270,4131232,6262492,0,1180120,3060140,0,0,0,0,0,0,2091010,0,0,0,-1050061,0,3081171,0,0,0,0,2040191,0,2161121,0,0,0,2061180,0,0,0,0,0,0,0,0,0,0
5,17,671.392288175412,1,0,516501.402843869,516502.449919772,0,30,1,1,1,30,3,0,0,7201240,5082211,0,0,0,0,0,0,0,0,0,0,0,0,0,0,0,0,0,0,0,0,0,0,3040080,4161160,0,0,0,0,0,-4041191,0,1041020,0,0,0,0
5,18,1332.32198789483,0,0,516504.155831563,516505.20290477,0,30,1,1,0,1,7,9430453,8501232,0,2311081,-4160191,0,0,2200181,0,0,0,0,3070081,3170091,2151111,3180030,0,0,0,0,0,0,0,0,0,0,0,0,0,0,0,1200021,0,1111060,0,0,0,0,0,0
5,19,987.027229799423,1,0,516507.638236854,516508.685292739,0,30,1,0,1,33,7,3171111,6151281,4091331,5392360,0,0,3171111,0,0,0,0,0,0,3061081,0,0,0,0,0,3090200,0,0,1070201,0,0,0,0,3021130,0,0,0,0,0,0,0,3200060,-1041100,1151200,0,0
5,20,463.288135826588,1,0,516510.850032797,516511.897117553,0,30,1,0,1,3,3,8101221,4070110,3061061,0,0,4010070,-4091151,0,0,0,0,0,0,0,0,4070110,0,0,0,0,0,0,0,0,0,0,3061061,0,0,0,0,0,0,0,0,0,0,0,0,0
5,21,698.840110388119,0,0,516513.391265354,516514.438372053,0,30,1,0,0,25,3,0,0,2212251,5221212,0,0,0,0,0,0,0,0,0,0,0,0,0,0,0,0,0,0,0,0,0,1061090,0,0,-1151161,0,0,0,0,0,0,2091141,3130071,0,0,0
5,22,610.335704870522,0,0,516516.261887176,516517.308963078,0,30,1,1,0,7,3,4261221,0,3090131,4040090,2060181,0,0,0,0,0,-2201040,0,0,0,0,0,0,0,0,0,0,0,0,0,0,0,3090131,0,0,0,0,0,0,0,0,0,0,0,0,4040090
5,23,665.427295083646,1,0,516519.026645481,516520.073722153,0,30,1,0,1,36,3,2180140,5311341,0,4161131,0,0,0,0,0,0,2180140,0,0,0,3150201,0,2161140,0,0,0,0,0,0,0,0,0,0,0,0,0,0,0,0,0,0,0,0,0,0,-4161131
5,24,1059.28968492663,1,0,516521.92082277,516522.967914841,0,30,1,0,1,6,3,4021071,5171031,1080130,0,0,0,0,0,0,-4021071,0,0,0,3140010,0,0,0,0,2031021,0,0,0,1080130,0,0,0,0,0,0,0,0,0,0,0,0,0,0,0,0,0
5,25,854.908504290506,1,0,516535.168047961,516536.215122323,0,30,2,1,1,26,7,10322252,0,9221363,5351222,3061010,0,0,3171091,0,4090151,0,0,0,0,0,0,0,0,0,0,0,0,0,0,0,4120181,0,0,0,-3010041,2091141,0,0,1160061,0,0,0,0,4191161,0
5,26,578.865410119761,1,0,516538.109292298,516539.156355882,0,30,2,1,1,19,3,4121011,3111111,4041200,3190081,4121011,0,0,0,0,0,0,0,0,0,0,3111111,0,0,0,0,0,0,-4041200,0,0,0,0,0,0,0,0,0,0,0,0,3190081,0,0,0,0
5,27,1347.7805397124,1,0,516540.909319323,516541.956426022,0,30,2,0,1,35,7,8321332,5192271,0,4250250,0,0,4080101,0,0,0,3181181,1060050,0,0,4101140,0,1091131,0,0,0,0,0,0,0,0,0,0,0,0,0,0,0,2060130,0,1180090,0,0,0,-1010030,0
5,28,635.193114751019,0,0,516544.379966321,516545.42702875,0,30,2,1,0,16,3,1170091,4110061,1140040,2181160,0,0,0,0,0,0,0,1170091,0,0,0,0,0,0,0,-4110061,0,0,0,0,0,1140040,0,0,0,0,0,0,0,0,0,0,2181160,0,0,0
5,29,759.475544735324,0,0,516547.203528795,516548.250607777,0,30,2,0,0,3,7,6290272,7262171,5241141,2071010,0,0,-2080080,0,0,2140171,0,0,2070021,0,0,4161081,0,0,0,0,0,3101090,1061071,4180070,0,0,0,0,0,0,0,0,2071010,0,0,0,0,0,0,0
5,30,1356.76979774144,1,0,516550.062400023,516551.109470921,0,30,2,1,1,1,7,9430453,8501232,0,2311081,-4160191,0,0,2200181,0,0,0,0,3070081,3170091,2151111,3180030,0,0,0,0,0,0,0,0,0,0,0,0,0,0,0,1200021,0,1111060,0,0,0,0,0,0
5,31,1307.25207872456,1,0,516553.603663762,516554.650707713,0,30,2,0,1,36,7,0,4050030,13432351,5212161,0,0,0,0,0,0,0,0,0,0,0,0,0,0,0,0,0,4050030,1031021,1051050,4160060,0,0,0,3110140,4080080,0,0,0,0,0,0,0,2201130,0,-3011031
5,32,616.374225704931,0,0,516557.015451158,516558.062521286,0,30,2,1,0,7,3,4261221,0,3090131,4040090,2060181,0,0,0,0,0,-2201040,0,0,0,0,0,0,0,0,0,0,0,0,0,0,0,3090131,0,0,0,0,0,0,0,0,0,0,0,0,4040090
5,33,638.935719616711,1,0,516559.744896859,516560.791961212,0,30,2,0,1,4,3,5071252,4111010,1190040,0,0,4061061,0,-1010191,0,0,0,0,0,0,0,0,0,4111010,0,0,0,0,0,0,0,0,0,1190040,0,0,0,0,0,0,0,0,0,0,0,0
5,34,1458.83065566886,0,0,516562.533185608,516563.580233793,0,30,2,0,0,18,3,0,5082360,3041180,2081051,0,0,0,0,0,0,0,0,0,0,0,0,3071200,0,0,0,0,-2011160,0,0,0,0,0,0,0,3041180,0,0,0,2081051,0,0,0,0,0,0
5,35,1523.8973927917,0,0,516566.239120112,516567.286188315,0,30,2,1,0,13,7,6331270,4131232,6262492,0,1180120,3060140,0,0,0,0,0,0,2091010,0,0,0,-1050061,0,3081171,0,0,0,0,2040191,0,2161121,0,0,0,2061180,0,0,0,0,0,0,0,0,0,0
5,36,666.041310236324,0,0,516569.898001042,516570.945061546,0,30,2,0,0,9,7,11373592,2190021,3232100,4140110,0,0,0,3201091,0,2111180,0,2030160,-4031161,0,0,0,0,2190021,0,0,0,0,2111070,0,0,0,0,0,1121030,0,0,0,0,0,4140110,0,0,0,0,0
5,37,990.852216666099,0,0,516572.745101659,516573.792161778,0,30,2,0,0,24,7,9292322,5141271,5261222,3020160,0,0,0,0,0,1151071,0,4110091,4031160,1110101,0,0,4031170,0,0,0,0,0,0,3080161,0,0,0,-2181061,0,0,0,0,0,0,0,0,0,0,0,3020160
5,38,683.99711343227,1,1,516575.862790837,516576.90985365,0,30,2,1,0,11,7,2161131,9371301,4313352,2181151,0,0,0,0,0,0,2161131,0,0,0,-2140080,0,3170031,0,0,0,0,4061190,2071061,1101181,0,0,0,0,0,0,1141110,0,0,0,2181151,0,0,0,0,0
5,39,1006.14831433631,1,0,516578.674598482,516579.721665915,0,30,2,1,1,31,3,0,6281182,2131051,2151120,0,0,0,0,0,0,0,0,0,0,0,3110171,0,0,3171011,0,0,0,0,2131051,0,0,0,0,0,0,0,0,0,0,-2151120,0,0,0,0,0
5,40,974.577544431668,1,0,516581.792288045,516582.839353938,0,30,2,0,1,29,3,4151241,4181180,0,3201040,0,0,1131090,0,0,0,3020151,0,0,0,0,0,0,4181180,0,0,0,0,0,0,0,0,0,0,0,0,0,0,-3201040,0,0,0,0,0,0,0
5,41,1941.70791120268,1,0,516584.957082383,516586.004110935,0,30,2,0,1,12,7,3041040,4192132,4070030,11440512,0,0,0,0,0,0,3041040,0,0,0,1101071,-3091061,0,0,0,0,0,0,0,0,0,0,4070030,0,0,0,0,4110201,0,3030020,0,0,2200161,2100130,0,0
5,42,1836.95655071642,0,0,516589.074749618,516590.121818206,0,30,2,1,0,34,7,10251291,4241151,3321350,1141180,4061050,0,2040040,0,4150201,0,0,0,0,0,0,1091071,0,0,3150080,0,0,0,0,2201180,1120170,0,0,0,0,0,0,0,0,0,0,0,0,-1141180,0,0
5,43,1427.56131134229,1,0,516593.051280383,516594.098369374,0,30,2,1,1,28,7,8403452,10271492,0,5322331,2171161,0,0,0,0,0,3081201,3151090,0,0,0,3090131,4071160,0,3110201,0,0,0,0,0,0,0,0,0,0,0,0,-3171180,0,0,2151151,0,0,0,0,0
5,44,866.579795721918,0,1,516596.604280087,516597.651342901,0,30,2,0,1,33,3,0,2371101,0,7080170,0,0,0,0,0,0,0,0,0,1170061,0,0,0,0,0,1201040,0,0,0,0,0,0,0,0,0,0,0,0,0,0,0,0,-3020130,4060040,0,0
5,45,892.93008990353,1,0,516599.68665897,516600.733744497,0,30,2,1,1,14,3,1161030,1031130,3141071,2180080,0,0,0,0,0,1161030,0,0,0,0,0,0,0,-1031130,0,0,0,0,0,0,0,3141071,0,0,0,0,0,0,0,0,0,0,0,0,0,2180080
5,46,898.482018266805,0,0,516602.663192815,516603.710257553,0,30,2,0,0,6,3,7181350,2111011,0,3060120,0,0,0,3091150,0,-4090200,0,0,0,2111011,0,0,0,0,0,0,0,0,0,0,0,0,0,0,0,0,0,3060120,0,0,0,0,0,0,0,0
5,47,677.50626167981,1,0,516605.76912832,516606.816183434,0,30,2,1,1,30,3,0,0,7201240,5082211,0,0,0,0,0,0,0,0,0,0,0,0,0,0,0,0,0,0,0,0,0,0,3040080,4161160,0,0,0,0,0,-4041191,0,1041020,0,0,0,0
5,48,836.460719117895,0,0,516608.569158809,516609.616228552,0,30,2,0,0,25,3,7131202,0,6160231,0,0,0,4080051,0,0,0,3051151,0,0,0,0,0,0,0,0,0,0,0,0,0,4010031,0,0,0,-2150200,0,0,0,0,0,0,0,0,0,0,0
5,49,636.120489274617,1,0,516615.451610912,516616.498686429,0,30,3,1,1,30,3,0,0,7201240,5082211,0,0,0,0,0,0,0,0,0,0,0,0,0,0,0,0,0,0,0,0,0,0,3040080,4161160,0,0,0,0,0,-4041191,0,1041020,0,0,0,0
5,50,1492.31006944319,1,0,516618.275199177,516619.322261991,0,30,3,1,1,34,7,10251291,4241151,3321350,1141180,4061050,0,2040040,0,4150201,0,0,0,0,0,0,1091071,0,0,3150080,0,0,0,0,2201180,1120170,0,0,0,0,0,0,0,0,0,0,0,0,-1141180,0,0
5,51,1033.22580270469,0,0,516621.922290632,516622.96935691,0,30,3,1,0,28,7,8403452,10271492,0,5322331,2171161,0,0,0,0,0,3081201,3151090,0,0,0,3090131,4071160,0,3110201,0,0,0,0,0,0,0,0,0,0,0,0,-3171180,0,0,2151151,0,0,0,0,0
5,52,1412.7929971437,0,0,516625.204692536,516626.251815019,0,30,3,1,0,1,7,9430453,8501232,0,2311081,-4160191,0,0,2200181,0,0,0,0,3070081,3170091,2151111,3180030,0,0,0,0,0,0,0,0,0,0,0,0,0,0,0,1200021,0,1111060,0,0,0,0,0,0
5,53,698.37199599715,1,0,516628.781228074,516629.828300512,0,30,3,0,1,9,7,5221361,5251140,5321171,1040050,4110161,0,0,0,0,0,0,0,-1111200,4121030,0,0,0,0,1130110,0,0,0,0,0,0,1010040,1120050,0,3191081,0,0,0,0,0,0,0,0,1040050,0,0
5,54,1331.52665547095,0,0,516631.54597637,516632.593036489,0,30,3,0,0,6,3,4171151,2121201,0,4141141,0,0,0,0,0,-3021041,0,1150110,0,0,0,0,0,0,0,0,0,2121201,0,0,0,0,0,0,0,0,0,0,0,0,0,0,0,0,0,4141141
5,55,614.728511252906,0,0,516635.016656476,516636.063681948,0,30,3,1,0,14,3,1161030,1031130,3141071,2180080,0,0,0,0,0,1161030,0,0,0,0,0,0,0,-1031130,0,0,0,0,0,0,0,3141071,0,0,0,0,0,0,0,0,0,0,0,0,0,2180080
5,56,1098.88615191448,0,1,516637.72253901,516638.769632235,0,30,3,1,1,13,7,6331270,4131232,6262492,0,1180120,3060140,0,0,0,0,0,0,2091010,0,0,0,-1050061,0,3081171,0,0,0,0,2040191,0,2161121,0,0,0,2061180,0,0,0,0,0,0,0,0,0,0
5,57,1024.0444483934,1,0,516640.92262016,516641.969657951,0,30,3,1,1,16,3,1170091,4110061,1140040,2181160,0,0,0,0,0,0,0,1170091,0,0,0,0,0,0,0,-4110061,0,0,0,0,0,1140040,0,0,0,0,0,0,0,0,0,0,2181160,0,0,0
5,58,635.884507326409,1,0,516644.134401859,516645.181465827,0,30,3,1,1,7,3,4261221,0,3090131,4040090,2060181,0,0,0,0,0,-2201040,0,0,0,0,0,0,0,0,0,0,0,0,0,0,0,3090131,0,0,0,0,0,0,0,0,0,0,0,0,4040090
5,59,648.609440831933,0,0,516646.969731094,516648.016806611,0,30,3,0,0,25,3,3031041,2060151,5291241,0,0,0,0,0,0,0,0,0,3031041,0,0,0,2060151,0,0,0,0,0,0,0,0,0,3161061,0,-2130180,0,0,0,0,0,0,0,0,0,0,0
5,60,1510.83022763487,0,0,516649.7344817,516650.781552213,0,30,3,0,0,33,7,9462372,0,3041131,6261251,2170151,0,0,0,0,1030031,2061090,0,4201100,0,0,0,0,0,0,0,0,0,0,0,3041131,0,0,0,0,0,0,2080090,0,0,2161010,0,-2020151,0,0,0
5,61,1075.59515413595,1,0,516653.416888839,516654.463955502,0,30,3,1,1,11,7,2161131,9371301,4313352,2181151,0,0,0,0,0,0,2161131,0,0,0,-2140080,0,3170031,0,0,0,0,4061190,2071061,1101181,0,0,0,0,0,0,1141110,0,0,0,2181151,0,0,0,0,0
5,62,577.810228045564,0,0,516656.593411058,516657.640524686,0,30,3,0,0,4,7,8322292,0,16634633,0,4100021,0,0,-1091130,3131141,0,0,0,0,0,0,0,0,0,0,0,0,0,3151101,0,0,1130130,0,4091141,0,4201101,4061160,0,0,0,0,0,0,0,0,0
5,63,889.808044536039,0,0,516659.240514446,516660.287624995,0,30,3,0,0,36,3,0,2181130,3020150,4271171,0,0,0,0,0,0,0,0,0,0,0,0,0,0,0,0,0,2181130,0,0,0,3020150,0,0,0,0,0,0,0,0,0,0,0,0,3100030,-1171141
5,64,742.562604777049,1,0,516662.381766791,516663.428794958,0,30,3,0,1,18,3,2110200,7301182,0,1161161,0,0,2110200,0,0,0,0,0,0,0,4121051,0,0,0,0,0,0,-3180131,0,0,0,0,0,0,0,0,0,0,0,1161161,0,0,0,0,0,0
5,65,1110.22560560377,1,0,516665.35824674,516666.405313403,0,30,3,0,1,24,7,7332341,8330321,4030130,1130061,0,0,1120110,0,4051060,2161171,0,0,0,0,0,0,0,3020150,0,1120131,0,4190040,0,0,0,0,0,-4030130,0,0,0,0,0,0,1130061,0,0,0,0,0
5,66,745.060626068152,1,0,516668.664180628,516669.711241517,0,30,3,1,1,31,3,0,6281182,2131051,2151120,0,0,0,0,0,0,0,0,0,0,0,3110171,0,0,3171011,0,0,0,0,2131051,0,0,0,0,0,0,0,0,0,0,-2151120,0,0,0,0,0
5,67,1542.39483817946,0,0,516671.628927693,516672.675995896,0,30,3,1,0,26,7,10322252,0,9221363,5351222,3061010,0,0,3171091,0,4090151,0,0,0,0,0,0,0,0,0,0,0,0,0,0,0,4120181,0,0,0,-3010041,2091141,0,0,1160061,0,0,0,0,4191161,0
5,68,650.336767314002,0,0,516675.287800153,516676.334873361,0,30,3,0,0,29,3,0,1050140,1071050,5381292,0,0,0,0,0,0,0,0,0,1050140,0,0,0,0,0,0,0,0,0,0,0,0,0,0,0,1071050,0,0,-2200171,0,0,0,3181121,0,0,0
5,69,513.315930089448,1,0,516678.134907314,516679.181964353,0,30,3,1,1,19,3,4121011,3111111,4041200,3190081,4121011,0,0,0,0,0,0,0,0,0,0,3111111,0,0,0,0,0,0,-4041200,0,0,0,0,0,0,0,0,0,0,0,0,3190081,0,0,0,0
5,70,1249.35372726759,1,0,516680.793771305,516681.840841048,0,30,3,0,1,12,7,10552443,7432431,0,4090080,0,0,4140131,1190011,0,2061141,3161160,0,0,0,2160140,-4161120,0,0,1111171,0,0,0,0,0,0,0,0,0,0,0,0,0,0,4090080,0,0,0,0,0,0
5,71,957.405524735805,0,0,516684.193841985,516685.24088863,0,30,3,0,0,3,7,8332422,6182231,6301201,3090160,0,0,-3170150,0,3111101,0,0,2051171,0,0,0,0,0,0,0,3151160,3031071,0,0,0,0,0,0,0,4110161,0,2191040,3090160,0,0,0,0,0,0,0,0
5,72,763.59656767454,0,0,516687.252684264,516688.299765171,0,30,3,0,0,35,3,2171161,2171050,0,4192221,0,0,0,0,0,0,0,2171161,0,2171050,0,0,0,0,0,0,0,0,0,0,0,0,0,0,0,0,0,0,0,0,0,1101120,0,0,-3091101,0
5,73,920.907235471532,1,0,516693.276310949,516694.323415338,0,30,4,0,1,36,7,5380352,7082100,0,13552543,0,3180201,0,0,0,0,0,0,2200151,0,0,0,4041010,0,0,0,0,3041090,0,0,0,0,0,0,0,0,0,4200101,0,0,1141061,0,0,4090180,0,-4121201
5,74,547.529852192383,0,0,516696.311647037,516697.358717549,0,30,4,1,0,14,3,1161030,1031130,3141071,2180080,0,0,0,0,0,1161030,0,0,0,0,0,0,0,-1031130,0,0,0,0,0,0,0,3141071,0,0,0,0,0,0,0,0,0,0,0,0,0,2180080
5,75,1336.5119191003,1,0,516699.017569607,516700.064644354,0,30,4,1,1,1,7,9430453,8501232,0,2311081,-4160191,0,0,2200181,0,0,0,0,3070081,3170091,2151111,3180030,0,0,0,0,0,0,0,0,0,0,0,0,0,0,0,1200021,0,1111060,0,0,0,0,0,0
5,76,721.700720081571,0,0,516702.476449843,516703.523516122,0,30,4,0,0,29,3,6141380,0,1021150,2170011,0,0,0,0,2100180,0,0,0,4041200,0,0,0,0,0,0,0,0,0,0,0,0,0,0,0,1021150,0,0,0,-2170011,0,0,0,0,0,0,0
5,77,1072.35954480711,1,0,516705.417667233,516706.464740826,0,30,4,1,1,34,7,10251291,4241151,3321350,1141180,4061050,0,2040040,0,4150201,0,0,0,0,0,0,1091071,0,0,3150080,0,0,0,0,2201180,1120170,0,0,0,0,0,0,0,0,0,0,0,0,-1141180,0,0
5,78,624.598563357722,0,0,516708.676537923,516709.723604586,0,30,4,1,0,7,3,4261221,0,3090131,4040090,2060181,0,0,0,0,0,-2201040,0,0,0,0,0,0,0,0,0,0,0,0,0,0,0,3090131,0,0,0,0,0,0,0,0,0,0,0,0,4040090
5,79,567.481300735381,0,0,516711.535405302,516712.582461571,0,30,4,0,0,3,3,3200081,0,5270333,0,0,0,-3200081,0,0,0,0,0,0,0,0,0,0,0,0,0,0,0,0,0,3050131,0,1200051,0,1020151,0,0,0,0,0,0,0,0,0,0,0
5,80,866.459687415045,0,0,516714.276627003,516715.323697131,0,30,4,1,0,11,7,2161131,9371301,4313352,2181151,0,0,0,0,0,0,2161131,0,0,0,-2140080,0,3170031,0,0,0,0,4061190,2071061,1101181,0,0,0,0,0,0,1141110,0,0,0,2181151,0,0,0,0,0
5,81,1328.60094087664,1,0,516717.335485836,516718.382564433,0,30,4,1,1,28,7,8403452,10271492,0,5322331,2171161,0,0,0,0,0,3081201,3151090,0,0,0,3090131,4071160,0,3110201,0,0,0,0,0,0,0,0,0,0,0,0,-3171180,0,0,2151151,0,0,0,0,0
5,82,1086.70940482989,1,0,516720.794366072,516721.841436585,0,30,4,0,1,18,7,11562442,7141233,0,2070041,4171171,0,0,0,3180100,2041161,2170010,0,0,1040031,0,0,0,0,0,3061171,0,-3040031,0,0,0,0,0,0,0,0,0,0,0,0,2070041,0,0,0,0,0
5,83,638.162715069484,0,0,516723.982641579,516725.029712092,0,30,4,0,0,12,3,1131141,1061100,3200041,1180150,0,0,1131141,0,0,0,0,0,0,0,0,-1061100,0,0,0,0,0,0,0,0,3200041,0,0,0,0,0,0,0,0,0,0,0,0,1180150,0,0
5,84,679.77792507736,1,0,516726.817981594,516727.865076359,0,30,4,0,1,24,7,3310101,6261231,4181320,6202191,1200050,0,0,0,0,2110051,0,0,0,0,0,0,0,2121061,4140170,0,0,0,0,1071190,0,0,0,-3110130,0,0,0,0,0,0,2171030,0,0,0,4031161,0
5,85,1627.38145689946,0,0,516729.594492417,516730.641567934,0,30,4,0,0,33,7,7191031,6302372,0,7222232,0,3011010,0,0,0,0,4180021,0,0,0,0,0,3110201,0,2071081,1121090,0,0,0,0,0,0,0,0,0,0,0,4021041,0,0,0,0,-1141171,0,0,2060020
5,86,843.530169338919,1,0,516733.359253802,516734.406320465,0,30,4,0,1,4,3,4282171,1131170,4060151,0,0,1131011,0,-3151160,0,0,0,0,0,0,0,0,0,0,0,0,0,1131170,4060151,0,0,0,0,0,0,0,0,0,0,0,0,0,0,0,0,0
5,87,562.097216024995,0,0,516736.382837756,516737.429901725,0,30,4,0,0,35,3,0,0,4172060,6160292,0,0,0,0,0,0,0,0,0,0,0,0,0,0,0,0,0,0,3161030,0,0,0,0,0,0,1011030,0,0,3140091,0,0,0,0,0,-3020201,0
5,88,1599.90668727551,0,1,516739.029930751,516740.077017047,0,30,4,1,1,26,7,10322252,0,9221363,5351222,3061010,0,0,3171091,0,4090151,0,0,0,0,0,0,0,0,0,0,0,0,0,0,0,4120181,0,0,0,-3010041,2091141,0,0,1160061,0,0,0,0,4191161,0
5,89,1659.89615471335,1,0,516742.87705562,516743.924117279,0,30,4,0,1,6,3,1110151,2161041,0,7202332,0,0,0,0,0,-1110151,0,0,0,0,2161041,0,0,0,0,0,0,0,0,0,0,0,0,0,0,0,0,0,0,0,0,4071161,0,0,3131171,0
5,90,619.579038117081,1,0,516746.66534129,516747.712409493,0,30,4,1,1,30,3,0,0,7201240,5082211,0,0,0,0,0,0,0,0,0,0,0,0,0,0,0,0,0,0,0,0,0,0,3040080,4161160,0,0,0,0,0,-4041191,0,1041020,0,0,0,0
5,91,950.939310539979,0,0,516749.394791995,516750.441858273,0,30,4,1,0,13,7,6331270,4131232,6262492,0,1180120,3060140,0,0,0,0,0,0,2091010,0,0,0,-1050061,0,3081171,0,0,0,0,2040191,0,2161121,0,0,0,2061180,0,0,0,0,0,0,0,0,0,0
5,92,1096.92977269879,0,0,516752.488966127,516753.536024321,0,30,4,0,0,9,7,6192341,4132230,6201231,3180160,0,0,0,3071180,0,0,0,0,-3121161,0,0,3081060,0,0,0,1051170,0,0,0,1130030,0,0,0,0,4051031,0,1020170,0,0,0,3180160,0,0,0,0,0
5,93,678.497924935073,1,0,516755.724297903,516756.771366106,0,30,4,1,1,16,3,1170091,4110061,1140040,2181160,0,0,0,0,0,0,0,1170091,0,0,0,0,0,0,0,-4110061,0,0,0,0,0,1140040,0,0,0,0,0,0,0,0,0,0,2181160,0,0,0
5,94,621.142370509915,1,0,516758.606675708,516759.653753151,0,30,4,1,1,19,3,4121011,3111111,4041200,3190081,4121011,0,0,0,0,0,0,0,0,0,0,3111111,0,0,0,0,0,0,-4041200,0,0,0,0,0,0,0,0,0,0,0,0,3190081,0,0,0,0
5,95,843.647582922131,0,0,516761.395019893,516762.442038051,0,30,4,0,0,25,7,1030021,6212061,8411322,5281221,0,0,0,1030021,0,0,0,0,0,0,0,0,0,0,0,3141050,3071011,0,4170190,0,0,0,0,0,-2090071,2151061,0,0,0,0,0,1110131,4171090,0,0,0
5,96,683.790388633497,1,0,516764.442086556,516765.489150524,0,30,4,1,1,31,3,0,6281182,2131051,2151120,0,0,0,0,0,0,0,0,0,0,0,3110171,0,0,3171011,0,0,0,0,2131051,0,0,0,0,0,0,0,0,0,0,-2151120,0,0,0,0,0
5,97,605.636468331795,1,0,516770.300981267,516771.348052935,0,30,5,0,1,6,3,4041060,3110140,7120131,0,0,0,0,0,0,-4041060,0,0,0,0,0,0,3110140,0,0,0,0,0,0,3060071,0,0,0,4060060,0,0,0,0,0,0,0,0,0,0,0,0
5,98,534.007661393844,1,0,516773.065737262,516774.112805466,0,30,5,0,1,3,3,5191252,0,5320150,0,0,0,-1040161,0,0,0,0,4151091,0,0,0,0,0,0,0,0,0,0,0,2170030,0,0,0,0,0,3150120,0,0,0,0,0,0,0,0,0,0
5,99,1671.36457085144,1,0,516775.748126694,516776.795192587,0,30,5,1,1,7,3,4261221,0,3090131,4040090,2060181,0,0,0,0,0,-2201040,0,0,0,0,0,0,0,0,0,0,0,0,0,0,0,3090131,0,0,0,0,0,0,0,0,0,0,0,0,4040090
5,100,701.823569310363,1,0,516779.571771934,516780.618779698,0,30,5,0,1,25,7,4191281,2140050,8332380,6281092,3051130,0,0,0,1140151,0,0,0,0,0,0,0,0,0,0,0,0,2140050,0,0,3160100,0,1111170,0,-4061110,0,0,0,0,4100061,0,2181031,0,0,0,0
5,101,1281.0857964796,0,0,516782.38351837,516783.430586958,0,30,5,0,0,12,7,6092262,9282390,5122201,2110131,0,0,0,0,0,0,2021071,0,4071191,0,0,-3181100,0,3070160,0,0,3031130,0,1011150,0,0,0,0,4111051,0,0,0,0,0,0,0,0,0,0,2110131,0
5,102,1476.91734612454,1,0,516785.771605928,516786.81889126,0,30,5,1,1,28,7,8403452,10271492,0,5322331,2171161,0,0,0,0,0,3081201,3151090,0,0,0,3090131,4071160,0,3110201,0,0,0,0,0,0,0,0,0,0,0,0,-3171180,0,0,2151151,0,0,0,0,0
5,103,830.271677870769,0,0,516789.501272222,516790.548346969,0,30,5,1,0,34,7,10251291,4241151,3321350,1141180,4061050,0,2040040,0,4150201,0,0,0,0,0,0,1091071,0,0,3150080,0,0,0,0,2201180,1120170,0,0,0,0,0,0,0,0,0,0,0,0,-1141180,0,0
5,104,1821.77247706568,1,0,516792.57190821,516793.618974874,0,30,5,0,1,9,3,2080061,3140091,0,5181191,0,0,0,0,0,0,0,0,-2080061,0,0,0,0,0,0,0,3140091,0,0,0,0,0,0,0,0,0,0,1061130,0,4120061,0,0,0,0,0,0
5,105,1393.80626444472,1,0,516796.536686457,516797.583745421,0,30,5,1,1,13,7,6331270,4131232,6262492,0,1180120,3060140,0,0,0,0,0,0,2091010,0,0,0,-1050061,0,3081171,0,0,0,0,2040191,0,2161121,0,0,0,2061180,0,0,0,0,0,0,0,0,0,0
5,106,1771.04828576557,1,0,516800.007307663,516801.05438703,0,30,5,1,1,26,7,10322252,0,9221363,5351222,3061010,0,0,3171091,0,4090151,0,0,0,0,0,0,0,0,0,0,0,0,0,0,0,4120181,0,0,0,-3010041,2091141,0,0,1160061,0,0,0,0,4191161,0
5,107,709.53436702257,0,0,516803.830895544,516804.877964902,0,30,5,1,0,14,3,1161030,1031130,3141071,2180080,0,0,0,0,0,1161030,0,0,0,0,0,0,0,-1031130,0,0,0,0,0,0,0,3141071,0,0,0,0,0,0,0,0,0,0,0,0,0,2180080
5,108,708.473410573788,0,0,516806.78388316,516807.830958677,0,30,5,0,0,33,3,2141171,0,3131010,5311200,0,0,0,0,0,2141171,0,0,0,0,0,0,0,0,0,0,0,0,0,0,0,0,0,3131010,0,0,0,2200050,0,0,0,0,-3111150,0,0,0
5,109,891.208537854254,0,0,516809.666284833,516810.713344567,0,30,5,1,0,19,3,4121011,3111111,4041200,3190081,4121011,0,0,0,0,0,0,0,0,0,0,3111111,0,0,0,0,0,0,-4041200,0,0,0,0,0,0,0,0,0,0,0,0,3190081,0,0,0,0
5,110,580.648941046093,0,0,516812.795742698,516813.842806282,0,30,5,1,0,16,3,1170091,4110061,1140040,2181160,0,0,0,0,0,0,0,1170091,0,0,0,0,0,0,0,-4110061,0,0,0,0,0,1140040,0,0,0,0,0,0,0,0,0,0,2181160,0,0,0
5,111,722.139962250367,1,0,516815.478127125,516816.525201872,0,30,5,0,1,35,3,2140111,1081091,2070201,4051181,0,0,0,0,0,0,0,0,2140111,0,0,0,0,0,0,0,1081091,0,0,0,0,0,0,0,2070201,0,0,0,0,0,0,0,0,0,-4051181,0
5,112,1598.85766467778,0,0,516818.360542271,516819.407650895,0,30,5,1,0,1,7,9430453,8501232,0,2311081,-4160191,0,0,2200181,0,0,0,0,3070081,3170091,2151111,3180030,0,0,0,0,0,0,0,0,0,0,0,0,0,0,0,1200021,0,1111060,0,0,0,0,0,0
5,113,783.693532051984,1,0,516822.148817162,516823.1958896,0,30,5,0,1,4,7,6532152,2151141,2171080,5501200,0,0,0,-1181041,0,4171041,1180070,0,0,0,0,0,0,2151141,0,0,0,0,0,0,2171080,0,0,0,0,0,0,0,1200070,0,0,0,3171030,0,0,1130100
5,114,1000.07206719602,0,0,516825.125354471,516826.172408816,0,30,5,0,0,18,7,4150160,4242140,6331243,4201121,0,0,0,0,4150160,0,0,0,0,0,0,0,0,0,0,0,2151060,-2091080,0,0,3150031,0,1161021,0,0,2020191,0,0,0,0,3041021,0,0,1160100,0,0
5,115,479.911199072376,1,0,516828.26661028,516829.313629978,0,30,5,1,1,11,7,2161131,9371301,4313352,2181151,0,0,0,0,0,0,2161131,0,0,0,-2140080,0,3170031,0,0,0,0,4061190,2071061,1101181,0,0,0,0,0,0,1141110,0,0,0,2181151,0,0,0,0,0
5,116,697.38957186928,1,1,516830.984243023,516832.031315076,0,30,5,1,0,30,3,0,0,7201240,5082211,0,0,0,0,0,0,0,0,0,0,0,0,0,0,0,0,0,0,0,0,0,0,3040080,4161160,0,0,0,0,0,-4041191,0,1041020,0,0,0,0
5,117,1010.30475384323,0,0,516833.796086085,516834.843125416,0,30,5,0,0,36,7,2160071,6211372,9363470,2331182,0,0,2160071,0,0,0,0,0,0,0,0,4141171,0,0,0,2070201,0,0,0,2111100,3081180,0,0,0,0,0,4171190,0,0,0,1190111,0,0,0,0,-1141071
5,118,798.3783094096,1,0,516837.054928287,516838.101989176,0,30,5,0,1,29,3,4131170,4201101,3050081,3021130,0,0,0,0,4131170,0,0,0,0,0,0,0,0,0,0,0,0,4201101,0,0,0,0,0,3050081,0,0,0,0,-3021130,0,0,0,0,0,0,0
5,119,741.889690456446,0,0,516840.031435954,516841.078505697,0,30,5,1,0,31,3,0,6281182,2131051,2151120,0,0,0,0,0,0,0,0,0,0,0,3110171,0,0,3171011,0,0,0,0,2131051,0,0,0,0,0,0,0,0,0,0,-2151120,0,0,0,0,0
5,120,1470.44843726326,0,0,516843.00795286,516844.055029147,0,30,5,0,0,24,7,5062142,1011120,6241160,9211152,0,0,0,0,0,0,0,1031011,4031131,0,1011120,0,0,0,0,0,0,0,0,0,4071090,0,0,-2170070,0,0,0,0,0,0,0,0,4060040,3081041,2070071,0
5,121,1207.48944656225,0,0,516857.13756548,516858.184644847,0,30,6,0,0,18,7,11121513,3260300,2010010,4192251,4061171,3050171,0,0,0,0,0,4010171,0,0,2140160,0,0,0,0,0,0,-1120140,2010010,0,0,0,0,0,0,0,0,0,0,0,0,0,0,1131081,3061170,0
5,122,1506.54444069369,0,0,516860.584686269,516861.631758321,0,30,6,0,0,24,7,3261200,6222471,1030190,5200321,0,0,0,2091060,0,0,0,0,1170140,2141140,2011200,0,2070131,0,0,0,0,0,0,0,0,0,0,-1030190,0,0,0,0,0,0,0,3090150,0,0,0,2110171
5,123,805.062412284315,1,0,516864.314156992,516865.36127447,0,30,6,1,1,30,3,0,0,7201240,5082211,0,0,0,0,0,0,0,0,0,0,0,0,0,0,0,0,0,0,0,0,0,0,3040080,4161160,0,0,0,0,0,-4041191,0,1041020,0,0,0,0
5,124,1024.88982595969,0,0,516867.208373932,516868.255371687,0,30,6,1,0,31,3,0,6281182,2131051,2151120,0,0,0,0,0,0,0,0,0,0,0,3110171,0,0,3171011,0,0,0,0,2131051,0,0,0,0,0,0,0,0,0,0,-2151120,0,0,0,0,0
5,125,549.817683990113,1,0,516870.314248613,516871.361314506,0,30,6,0,1,4,3,3192091,2141101,4081111,0,0,0,0,-1021021,0,2171070,0,0,0,0,0,0,0,0,0,2141101,0,0,4081111,0,0,0,0,0,0,0,0,0,0,0,0,0,0,0,0,0
5,126,741.985546075739,1,0,516873.031930631,516874.078995369,0,30,6,1,1,34,7,10251291,4241151,3321350,1141180,4061050,0,2040040,0,4150201,0,0,0,0,0,0,1091071,0,0,3150080,0,0,0,0,2201180,1120170,0,0,0,0,0,0,0,0,0,0,0,0,-1141180,0,0
5,127,755.468085699249,0,0,516875.84374328,516876.890807249,0,30,6,0,0,9,7,8352563,2060151,1120140,5281220,0,0,2020200,0,0,1041201,0,1200141,-4091021,0,0,0,2060151,0,0,0,0,0,0,0,1120140,0,0,0,0,0,0,0,0,0,3201060,2080160,0,0,0,0
5,128,590.833507478237,1,0,516878.820338334,516879.867321075,0,30,6,1,1,19,3,4121011,3111111,4041200,3190081,4121011,0,0,0,0,0,0,0,0,0,0,3111111,0,0,0,0,0,0,-4041200,0,0,0,0,0,0,0,0,0,0,0,0,3190081,0,0,0,0
5,129,789.875643968116,0,0,516881.632057052,516882.679160287,0,30,6,0,0,35,3,0,5271351,0,6131331,0,0,0,0,0,0,0,0,0,0,0,2171170,0,0,0,3100181,0,0,0,0,0,0,0,0,0,0,0,0,0,0,0,0,4080141,0,-2051190,0
5,130,859.229322755709,1,0,516884.655630612,516885.702701125,0,30,6,1,1,13,7,6331270,4131232,6262492,0,1180120,3060140,0,0,0,0,0,0,2091010,0,0,0,-1050061,0,3081171,0,0,0,0,2040191,0,2161121,0,0,0,2061180,0,0,0,0,0,0,0,0,0,0
5,131,784.41418177681,0,0,516887.608624003,516888.655686432,0,30,6,0,0,29,3,0,2020141,7171301,2201060,0,0,0,0,0,0,0,0,0,0,0,0,0,0,0,0,2020141,0,0,0,3041181,0,4130120,0,0,0,0,0,-2201060,0,0,0,0,0,0,0
5,132,855.919030727819,1,0,516890.596895738,516891.643975105,0,30,6,1,1,28,7,8403452,10271492,0,5322331,2171161,0,0,0,0,0,3081201,3151090,0,0,0,3090131,4071160,0,3110201,0,0,0,0,0,0,0,0,0,0,0,0,-3171180,0,0,2151151,0,0,0,0,0
5,133,992.160319059622,1,0,516893.549889129,516894.596951557,0,30,6,0,1,36,3,3160021,1161191,2020050,1190171,0,0,0,3160021,0,0,0,0,0,0,0,0,0,0,0,0,0,1161191,0,0,0,2020050,0,0,0,0,0,0,0,0,0,0,0,0,0,-1190171
5,134,828.224832599517,1,0,516896.608751811,516897.655820784,0,30,6,0,1,12,7,0,2231210,12582431,3151271,0,0,0,0,0,0,0,0,0,0,0,-1040110,0,0,0,0,1191100,0,0,0,3141080,4160140,0,2091140,3190071,0,0,0,0,0,1100190,0,2051081,0,0,0
5,135,1377.29522527661,0,0,516899.526443376,516900.573513889,0,30,6,1,0,26,7,10322252,0,9221363,5351222,3061010,0,0,3171091,0,4090151,0,0,0,0,0,0,0,0,0,0,0,0,0,0,0,4120181,0,0,0,-3010041,2091141,0,0,1160061,0,0,0,0,4191161,0
5,136,926.29593971651,0,0,516903.114729893,516904.1618031,0,30,6,1,0,7,3,4261221,0,3090131,4040090,2060181,0,0,0,0,0,-2201040,0,0,0,0,0,0,0,0,0,0,0,0,0,0,0,3090131,0,0,0,0,0,0,0,0,0,0,0,0,4040090
5,137,1541.61721403943,1,0,516906.197126869,516907.244205466,0,30,6,0,1,6,7,3272381,0,3331181,7262451,0,0,0,0,0,-1071170,1021141,1180070,0,0,0,0,0,0,0,0,0,0,0,0,0,0,0,0,2201031,0,1130150,0,0,3150170,1071181,3041100,0,0,0,0
5,138,1322.80764111783,0,0,516909.950126496,516910.997193545,0,30,6,1,0,1,7,9430453,8501232,0,2311081,-4160191,0,0,2200181,0,0,0,0,3070081,3170091,2151111,3180030,0,0,0,0,0,0,0,0,0,0,0,0,0,0,0,1200021,0,1111060,0,0,0,0,0,0
5,139,1172.90596046951,0,0,516913.467832459,516914.514898352,0,30,6,0,0,3,7,3242260,6242140,4212171,5272391,0,0,-1041100,0,0,0,0,0,2201160,0,0,0,0,0,4141050,0,2101090,0,2131101,0,0,0,0,0,0,2081070,0,0,0,1141201,0,0,4131190,0,0,0
5,140,576.998342236038,0,0,516916.867944329,516917.914968262,0,30,6,1,0,16,3,1170091,4110061,1140040,2181160,0,0,0,0,0,0,0,1170091,0,0,0,0,0,0,0,-4110061,0,0,0,0,0,1140040,0,0,0,0,0,0,0,0,0,0,2181160,0,0,0
5,141,657.828906434588,0,0,516919.620921244,516920.667926698,0,30,6,0,0,25,3,1030101,0,4100151,5111331,0,0,0,0,0,0,0,0,1030101,0,0,0,0,0,0,0,0,0,0,0,0,0,0,0,-4100151,0,0,0,0,0,4021171,1090160,0,0,0,0
5,142,967.414548271336,0,0,516922.503256703,516923.550327216,0,30,6,0,0,33,3,3201091,0,4121090,2131160,2150061,0,0,1051030,0,0,0,0,0,0,0,0,0,0,0,0,0,0,0,0,0,0,4121090,0,0,0,0,0,0,0,0,0,-2131160,0,0,0
5,143,1524.74738989258,1,0,516925.620948961,516926.668016779,0,30,6,1,1,11,7,2161131,9371301,4313352,2181151,0,0,0,0,0,0,2161131,0,0,0,-2140080,0,3170031,0,0,0,0,4061190,2071061,1101181,0,0,0,0,0,0,1141110,0,0,0,2181151,0,0,0,0,0
5,144,564.067453728057,1,0,516929.279828351,516930.326894629,0,30,6,1,1,14,3,1161030,1031130,3141071,2180080,0,0,0,0,0,1161030,0,0,0,0,0,0,0,-1031130,0,0,0,0,0,0,0,3141071,0,0,0,0,0,0,0,0,0,0,0,0,0,2180080
5,145,847.739733697381,0,0,516935.279923821,516936.326985865,0,30,7,1,0,13,7,6331270,4131232,6262492,0,1180120,3060140,0,0,0,0,0,0,2091010,0,0,0,-1050061,0,3081171,0,0,0,0,2040191,0,2161121,0,0,0,2061180,0,0,0,0,0,0,0,0,0,0
5,146,521.130282722879,1,0,516938.256429179,516939.303499306,0,30,7,1,1,14,3,1161030,1031130,3141071,2180080,0,0,0,0,0,1161030,0,0,0,0,0,0,0,-1031130,0,0,0,0,0,0,0,3141071,0,0,0,0,0,0,0,0,0,0,0,0,0,2180080
5,147,1127.62090354227,1,0,516940.88003523,516941.927064936,0,30,7,0,1,33,7,3120101,3170141,14734362,2021061,3120101,0,0,0,0,0,0,0,0,0,0,0,0,0,0,3170141,0,0,0,4111090,2131100,2160121,0,0,0,2161011,4171040,0,0,0,0,0,-2021061,0,0,0
5,148,708.299022575375,0,0,516944.068294183,516945.115357382,0,30,7,1,0,1,7,9430453,8501232,0,2311081,-4160191,0,0,2200181,0,0,0,0,3070081,3170091,2151111,3180030,0,0,0,0,0,0,0,0,0,0,0,0,0,0,0,1200021,0,1111060,0,0,0,0,0,0
5,149,913.523270864971,0,0,516947.021271021,516948.068334989,0,30,7,0,0,18,3,1160100,1150180,0,3301202,0,0,0,0,0,0,0,1160100,0,0,0,0,0,0,0,0,0,-1150180,0,0,0,0,0,0,0,0,0,0,0,2171061,0,0,0,0,1130141,0
5,150,661.36632632697,1,0,516950.127193437,516951.17426472,0,30,7,1,1,30,3,0,0,7201240,5082211,0,0,0,0,0,0,0,0,0,0,0,0,0,0,0,0,0,0,0,0,0,0,3040080,4161160,0,0,0,0,0,-4041191,0,1041020,0,0,0,0
5,151,1159.99816980911,1,0,516952.915461013,516953.962538071,0,30,7,0,1,36,7,8281092,4101131,9102192,7131282,0,4090031,0,0,4191061,0,0,0,0,0,0,0,4101131,0,0,0,0,0,0,0,4021021,3051021,0,0,0,2030150,0,0,0,0,0,0,0,4030081,0,-3101201
5,152,504.637336765882,0,1,516956.292003558,516957.339064062,0,30,7,0,1,24,3,3101151,3110200,3111200,0,0,0,0,3101151,0,0,0,0,0,0,0,0,0,0,3110200,0,0,0,0,0,0,0,0,-2091010,0,0,1020190,0,0,0,0,0,0,0,0,0
5,153,542.645448702388,0,0,516959.00969058,516960.056810368,0,30,7,1,0,16,3,1170091,4110061,1140040,2181160,0,0,0,0,0,0,0,1170091,0,0,0,0,0,0,0,-4110061,0,0,0,0,0,1140040,0,0,0,0,0,0,0,0,0,0,2181160,0,0,0
5,154,911.263926303945,0,0,516961.633269299,516962.68031248,0,30,7,1,0,19,3,4121011,3111111,4041200,3190081,4121011,0,0,0,0,0,0,0,0,0,0,3111111,0,0,0,0,0,0,-4041200,0,0,0,0,0,0,0,0,0,0,0,0,3190081,0,0,0,0
5,155,939.341931953095,1,0,516964.645066088,516965.692131981,0,30,7,1,1,31,3,0,6281182,2131051,2151120,0,0,0,0,0,0,0,0,0,0,0,3110171,0,0,3171011,0,0,0,0,2131051,0,0,0,0,0,0,0,0,0,0,-2151120,0,0,0,0,0
5,156,1012.79777067248,1,0,516967.762751032,516968.809822315,0,30,7,0,1,3,7,5250191,2271272,2011031,8472411,0,0,-1140141,4110050,0,0,0,0,0,0,0,1120171,0,1151101,0,0,0,0,0,0,0,0,0,0,0,2011031,0,0,0,4170200,0,0,0,1101080,0,3201131
5,157,816.451526188757,0,0,516970.85692093,516971.903982973,0,30,7,1,0,11,7,2161131,9371301,4313352,2181151,0,0,0,0,0,0,2161131,0,0,0,-2140080,0,3170031,0,0,0,0,4061190,2071061,1101181,0,0,0,0,0,0,1141110,0,0,0,2181151,0,0,0,0,0
5,158,1589.37411487568,1,0,516973.751065882,516974.798142554,0,30,7,1,1,34,7,10251291,4241151,3321350,1141180,4061050,0,2040040,0,4150201,0,0,0,0,0,0,1091071,0,0,3150080,0,0,0,0,2201180,1120170,0,0,0,0,0,0,0,0,0,0,0,0,-1141180,0,0
5,159,613.658315734938,1,0,516977.51584305,516978.562912793,0,30,7,1,1,28,7,8403452,10271492,0,5322331,2171161,0,0,0,0,0,3081201,3151090,0,0,0,3090131,4071160,0,3110201,0,0,0,0,0,0,0,0,0,0,0,0,-3171180,0,0,2151151,0,0,0,0,0
5,160,882.165385119151,0,0,516980.351179985,516981.398247803,0,30,7,1,0,26,7,10322252,0,9221363,5351222,3061010,0,0,3171091,0,4090151,0,0,0,0,0,0,0,0,0,0,0,0,0,0,0,4120181,0,0,0,-3010041,2091141,0,0,1160061,0,0,0,0,4191161,0
5,161,787.185526394751,1,1,516983.445342568,516984.492408846,0,30,7,0,0,6,3,5141061,4170130,4050121,0,0,0,0,0,3010050,-2131011,0,0,0,0,0,0,0,0,0,4170130,0,0,0,0,0,0,0,0,4050121,0,0,0,0,0,0,0,0,0,0,0
5,162,581.543978711125,0,1,516986.374782032,516987.421866404,0,30,7,0,1,29,3,0,0,4150031,6422400,0,0,0,0,0,0,0,0,0,0,0,0,0,0,0,0,0,0,0,0,0,0,0,0,0,4150031,0,0,-2201140,0,0,2020090,0,0,0,2201170
5,163,1030.58419039007,1,0,516989.174837159,516990.221906902,0,30,7,1,1,7,3,4261221,0,3090131,4040090,2060181,0,0,0,0,0,-2201040,0,0,0,0,0,0,0,0,0,0,0,0,0,0,0,3090131,0,0,0,0,0,0,0,0,0,0,0,0,4040090
5,164,2452.39985804074,0,0,516992.280756495,516993.327836247,0,30,7,0,0,4,7,8341261,1050030,3021030,10702472,0,0,0,-4141150,0,0,4200111,0,0,0,0,1050030,0,0,0,0,0,0,3021030,0,0,0,0,0,0,0,0,3131071,0,0,1190171,0,4191030,0,0,2190200
5,165,1065.13726443518,0,0,516996.869067265,516997.916144707,0,30,7,0,0,25,3,1170090,0,2161071,4182080,0,0,0,0,0,1170090,0,0,0,0,0,0,0,0,0,0,0,0,0,0,0,0,0,0,-2161071,0,0,0,0,0,0,0,2101030,0,0,2081050
5,166,2158.04679517169,1,0,517000.104459095,517001.151482257,0,30,7,0,1,9,7,7352372,4200140,5201142,5141222,0,4011070,0,0,2191121,0,0,0,-1150181,0,0,0,0,0,0,0,0,4200140,0,3061031,2140111,0,0,0,0,0,0,0,1060061,0,0,4081161,0,0,0,0
5,167,1078.72836349998,0,0,517004.504539783,517005.551546392,0,30,7,0,0,35,7,3131120,4161240,6141132,5522340,0,0,0,0,0,0,0,3131120,0,2090060,0,2071180,0,0,0,0,0,0,0,3070041,3071091,0,0,0,0,0,0,0,0,2201160,0,0,0,0,-1150070,2171110
5,168,916.890537308063,1,0,517007.704517378,517008.751587121,0,30,7,0,1,12,3,0,4192281,6200272,0,0,0,0,0,0,0,0,0,0,0,0,-2131120,0,2061161,0,0,0,0,0,0,2090161,0,0,0,4110111,0,0,0,0,0,0,0,0,0,0,0
5,169,1340.50013002707,0,0,517018.210560518,517019.257631801,0,30,8,1,0,28,7,8403452,10271492,0,5322331,2171161,0,0,0,0,0,3081201,3151090,0,0,0,3090131,4071160,0,3110201,0,0,0,0,0,0,0,0,0,0,0,0,-3171180,0,0,2151151,0,0,0,0,0
5,170,702.78405060526,1,0,517021.728265326,517022.77532891,0,30,8,0,1,18,7,4160041,9363393,6111270,3190131,0,0,0,0,0,4160041,0,0,0,0,0,0,0,2051171,2131041,0,3111011,-2070170,0,4020080,2091190,0,0,0,0,0,0,3190131,0,0,0,0,0,0,0,0
5,171,907.774626743048,0,0,517024.669484641,517025.716558233,0,30,8,1,0,30,3,0,0,7201240,5082211,0,0,0,0,0,0,0,0,0,0,0,0,0,0,0,0,0,0,0,0,0,0,3040080,4161160,0,0,0,0,0,-4041191,0,1041020,0,0,0,0
5,172,1333.88686017133,1,0,517027.681298753,517028.728410457,0,30,8,0,1,12,3,4030090,4071081,3161081,4150130,0,0,0,0,0,0,0,0,4030090,0,0,-4071081,0,0,0,0,0,0,0,0,3161081,0,0,0,0,0,0,0,0,0,0,0,0,4150130,0,0
5,173,687.792073178571,0,0,517031.175460798,517032.222529001,0,30,8,0,0,24,3,0,3231102,1041051,2091081,0,0,0,0,0,0,0,0,0,2081071,0,0,0,0,1150031,0,0,0,0,0,0,0,0,-1041051,0,0,0,0,0,0,0,0,0,0,2091081,0
5,174,1241.73147085821,1,0,517033.97551015,517035.022579123,0,30,8,1,1,7,3,4261221,0,3090131,4040090,2060181,0,0,0,0,0,-2201040,0,0,0,0,0,0,0,0,0,0,0,0,0,0,0,3090131,0,0,0,0,0,0,0,0,0,0,0,0,4040090
5,175,632.786329602823,1,0,517037.340268994,517038.387346436,0,30,8,0,1,4,3,1140061,4171171,2131141,3091151,0,0,0,-1140061,0,0,0,0,0,0,0,0,0,0,0,0,0,4171171,0,0,0,0,0,0,2131141,0,0,3091151,0,0,0,0,0,0,0,0
5,176,919.990639900789,1,0,517040.057943313,517041.105008436,0,30,8,1,1,31,3,0,6281182,2131051,2151120,0,0,0,0,0,0,0,0,0,0,0,3110171,0,0,3171011,0,0,0,0,2131051,0,0,0,0,0,0,0,0,0,0,-2151120,0,0,0,0,0
5,177,685.561985766981,0,0,517043.187410032,517044.23448016,0,30,8,0,0,33,3,0,4061080,4050191,6151182,0,0,0,0,0,0,0,0,0,4061080,0,0,0,0,0,0,0,0,0,0,4050191,0,0,0,0,0,0,0,4061131,0,0,0,-2090051,0,0,0
5,178,1520.70643909974,0,0,517045.952172957,517046.999281966,0,30,8,1,0,34,7,10251291,4241151,3321350,1141180,4061050,0,2040040,0,4150201,0,0,0,0,0,0,1091071,0,0,3150080,0,0,0,0,2201180,1120170,0,0,0,0,0,0,0,0,0,0,0,0,-1141180,0,0
5,179,813.398004102055,1,0,517049.540439456,517050.587510738,0,30,8,1,1,26,7,10322252,0,9221363,5351222,3061010,0,0,3171091,0,4090151,0,0,0,0,0,0,0,0,0,0,0,0,0,0,0,4120181,0,0,0,-3010041,2091141,0,0,1160061,0,0,0,0,4191161,0
5,180,1160.46243446181,0,0,517052.493461719,517053.540497585,0,30,8,0,0,9,7,7300231,3171221,3201081,3032251,0,0,0,0,4120080,0,0,0,-3180151,0,2080100,0,0,1091121,0,0,0,0,0,0,0,1050071,2151010,0,0,0,0,2021170,0,0,1011081,0,0,0,0,0
5,181,1057.69517045701,1,0,517055.834650852,517056.881724445,0,30,8,0,1,3,7,10333393,0,0,10453432,4021201,0,-1060041,0,3091131,0,0,2161020,0,0,0,0,0,0,0,0,0,0,0,0,0,0,0,0,0,0,0,2111081,0,1170110,0,0,0,3151141,4021100,0
5,182,1760.16231777612,0,0,517059.128809509,517060.175877327,0,30,8,0,0,29,7,0,4170320,10332462,7061330,0,0,0,0,0,0,0,0,0,0,0,0,0,2050160,0,0,2120160,0,2020140,4111201,2050060,0,0,0,0,2151061,0,0,-4031160,0,0,3030170,0,0,0,0
5,183,1507.75591749698,0,0,517062.964195334,517064.011239669,0,30,8,0,0,6,7,3261381,10292321,0,7322341,0,0,0,0,0,-2080181,1181200,0,0,0,0,0,4151050,0,0,3021080,3120191,0,0,0,0,0,0,0,0,0,0,0,3030171,0,1141010,0,3151160,0,0,0
5,184,836.655510065611,1,0,517066.611286404,517067.658358071,0,30,8,1,1,1,7,9430453,8501232,0,2311081,-4160191,0,0,2200181,0,0,0,0,3070081,3170091,2151111,3180030,0,0,0,0,0,0,0,0,0,0,0,0,0,0,0,1200021,0,1111060,0,0,0,0,0,0
5,185,1497.69107444445,0,0,517069.517213516,517070.56428018,0,30,8,0,0,36,7,4151231,7262211,4172101,5302290,1060100,0,0,0,0,0,3091131,0,0,0,0,0,0,0,0,3061121,0,4201090,0,0,0,3161031,1011070,0,0,0,0,0,0,0,0,0,0,0,1191130,-4111160
5,186,669.860137684736,0,0,517073.176184142,517074.223156875,0,30,8,0,0,35,3,2201111,4041120,4051111,3060191,2201111,0,0,0,0,0,0,0,0,4041120,0,0,0,0,0,0,0,0,0,4051111,0,0,0,0,0,0,0,0,0,0,0,0,0,0,-3060191,0
5,187,1293.27255248791,1,0,517076.011424836,517077.058495349,0,30,8,1,1,19,3,4121011,3111111,4041200,3190081,4121011,0,0,0,0,0,0,0,0,0,0,3111111,0,0,0,0,0,0,-4041200,0,0,0,0,0,0,0,0,0,0,0,0,3190081,0,0,0,0
5,188,550.681154767517,1,0,517079.52912079,517080.576196307,0,30,8,1,1,14,3,1161030,1031130,3141071,2180080,0,0,0,0,0,1161030,0,0,0,0,0,0,0,-1031130,0,0,0,0,0,0,0,3141071,0,0,0,0,0,0,0,0,0,0,0,0,0,2180080
5,189,950.90466394322,0,0,517082.187988246,517083.235052214,0,30,8,1,0,11,7,2161131,9371301,4313352,2181151,0,0,0,0,0,0,2161131,0,0,0,-2140080,0,3170031,0,0,0,0,4061190,2071061,1101181,0,0,0,0,0,0,1141110,0,0,0,2181151,0,0,0,0,0
5,190,964.254006568808,1,0,517085.21156758,517086.258631164,0,30,8,1,1,13,7,6331270,4131232,6262492,0,1180120,3060140,0,0,0,0,0,0,2091010,0,0,0,-1050061,0,3081171,0,0,0,0,2040191,0,2161121,0,0,0,2061180,0,0,0,0,0,0,0,0,0,0
5,191,861.178002669476,1,0,517088.270436037,517089.31750424,0,30,8,0,1,25,3,1181100,4110161,3090050,4070160,0,0,0,0,0,0,0,1181100,0,0,0,0,0,0,0,4110161,0,0,0,0,0,0,0,0,-3090050,0,0,0,0,0,0,0,0,4070160,0,0
5,192,601.546627294738,1,0,517091.341070871,517092.38812945,0,30,8,1,1,16,3,1170091,4110061,1140040,2181160,0,0,0,0,0,0,0,1170091,0,0,0,0,0,0,0,-4110061,0,0,0,0,0,1140040,0,0,0,0,0,0,0,0,0,0,2181160,0,0,0
5,193,1729.03964412399,1,0,517127.094541692,517128.141597961,0,30,9,0,1,36,7,6280351,4121201,8111201,4102102,0,0,0,0,0,0,1070070,4170141,1040140,0,4121201,0,0,0,0,0,0,0,0,0,0,4010061,0,0,4101140,0,0,0,0,0,2081051,0,0,0,0,-2021051
5,194,666.94404714508,1,0,517130.894601438,517131.941665022,0,30,9,1,1,31,3,0,6281182,2131051,2151120,0,0,0,0,0,0,0,0,0,0,0,3110171,0,0,3171011,0,0,0,0,2131051,0,0,0,0,0,0,0,0,0,0,-2151120,0,0,0,0,0
5,195,592.521567770746,1,0,517133.635811591,517134.682879024,0,30,9,1,1,28,7,8403452,10271492,0,5322331,2171161,0,0,0,0,0,3081201,3151090,0,0,0,3090131,4071160,0,3110201,0,0,0,0,0,0,0,0,0,0,0,0,-3171180,0,0,2151151,0,0,0,0,0
5,196,1531.53196792118,0,0,517136.4123228,517137.459390233,0,30,9,0,0,6,7,7482483,2010040,6460230,3050050,0,0,1201121,0,0,-2130181,0,4151181,0,0,0,2010040,0,0,0,0,0,0,0,0,1190200,0,0,0,2160020,3110010,0,0,0,0,0,0,0,3050050,0,0
5,197,561.787321232259,1,0,517140.106498626,517141.15360263,0,30,9,0,1,29,3,3060120,0,4030341,1190140,0,0,3060120,0,0,0,0,0,0,0,0,0,0,0,0,0,0,0,0,0,2020141,2010200,0,0,0,0,0,0,-1190140,0,0,0,0,0,0,0
5,198,961.895726621151,1,0,517142.741831788,517143.800707174,0,30,9,1,1,26,7,10322252,0,9221363,5351222,3061010,0,0,3171091,0,4090151,0,0,0,0,0,0,0,0,0,0,0,0,0,0,0,4120181,0,0,0,-3010041,2091141,0,0,1160061,0,0,0,0,4191161,0
5,199,559.361287916545,0,0,517145.788939642,517146.836011695,0,30,9,1,0,11,7,2161131,9371301,4313352,2181151,0,0,0,0,0,0,2161131,0,0,0,-2140080,0,3170031,0,0,0,0,4061190,2071061,1101181,0,0,0,0,0,0,1141110,0,0,0,2181151,0,0,0,0,0
5,200,895.892760891002,0,0,517148.565440841,517149.612547926,0,30,9,0,0,9,3,4181251,2061200,2091151,0,0,0,0,0,2091111,0,0,0,-2090140,0,0,0,2061200,0,0,0,0,0,2091151,0,0,0,0,0,0,0,0,0,0,0,0,0,0,0,0,0
5,201,1457.31043902924,0,0,517151.541966217,517152.589034805,0,30,9,1,0,7,3,4261221,0,3090131,4040090,2060181,0,0,0,0,0,-2201040,0,0,0,0,0,0,0,0,0,0,0,0,0,0,0,3090131,0,0,0,0,0,0,0,0,0,0,0,0,4040090
5,202,1288.44050393673,1,0,517155.047893483,517156.094963611,0,30,9,0,1,24,3,3081021,1201100,1141130,1201170,3081021,0,0,0,0,0,0,0,0,0,0,0,0,0,0,0,0,1201100,0,0,0,0,0,-1141130,0,0,0,0,0,0,0,0,0,1201170,0,0
5,203,498.226557218004,1,0,517158.542069002,517159.589139514,0,30,9,1,1,16,3,1170091,4110061,1140040,2181160,0,0,0,0,0,0,0,1170091,0,0,0,0,0,0,0,-4110061,0,0,0,0,0,1140040,0,0,0,0,0,0,0,0,0,0,2181160,0,0,0
5,204,1323.29423358897,1,0,517161.247991572,517162.29505631,0,30,9,0,1,3,7,7293142,9361241,4160251,0,0,1091030,-4011071,0,0,0,0,0,2191041,0,4150120,0,0,1050110,0,0,4161011,0,0,2060141,0,0,0,2100110,0,0,0,0,0,0,0,0,0,0,0,0
5,205,1402.66886982135,0,0,517164.624516023,517165.671582686,0,30,9,1,0,34,7,10251291,4241151,3321350,1141180,4061050,0,2040040,0,4150201,0,0,0,0,0,0,1091071,0,0,3150080,0,0,0,0,2201180,1120170,0,0,0,0,0,0,0,0,0,0,0,0,-1141180,0,0
5,206,735.174020577688,1,0,517168.201034238,517169.248100131,0,30,9,0,1,33,3,0,5092221,2050091,3161071,0,0,0,0,0,0,0,0,0,0,0,0,3011061,2081160,0,0,0,0,0,0,2050091,0,0,0,0,0,0,0,0,0,0,0,-3161071,0,0,0
5,207,870.72661111597,0,0,517171.024599406,517172.071679158,0,30,9,0,0,25,3,2050161,2051101,3282311,0,0,2050161,0,0,0,0,0,0,0,0,2051101,0,0,0,0,0,0,0,0,0,0,0,0,0,-1161181,2121130,0,0,0,0,0,0,0,0,0,0
5,208,648.551311576739,1,0,517173.977610505,517175.024674089,0,30,9,0,1,35,3,1110161,4281351,0,4200010,0,0,0,0,0,0,0,0,1110161,0,3171190,0,1110161,0,0,0,0,0,0,0,0,0,0,0,0,0,0,0,0,0,0,0,0,0,-4200010,0
5,209,1449.98344877968,1,0,517176.801169514,517177.848224628,0,30,9,1,1,13,7,6331270,4131232,6262492,0,1180120,3060140,0,0,0,0,0,0,2091010,0,0,0,-1050061,0,3081171,0,0,0,0,2040191,0,2161121,0,0,0,2061180,0,0,0,0,0,0,0,0,0,0
5,210,1110.87432637578,0,0,517180.43651384,517181.483372179,0,30,9,0,0,4,7,2070150,7212191,5220360,5231141,0,0,0,-2070150,0,0,0,0,0,0,3101110,2101020,0,0,0,0,0,2010061,4120160,0,0,0,0,0,0,1100200,0,4170030,0,0,0,0,0,0,1061111,0
5,211,1177.96975641977,0,0,517183.660085013,517184.707156296,0,30,9,0,0,18,7,6322131,9182401,5100211,1151040,3121041,0,0,3201090,0,0,0,0,0,0,0,0,0,4081131,0,3010100,0,-2091170,3020120,0,2080091,0,0,0,0,0,0,0,0,0,0,0,0,0,0,1151040
5,212,1045.07764143636,1,0,517186.966015436,517188.01307748,0,30,9,1,1,30,3,0,0,7201240,5082211,0,0,0,0,0,0,0,0,0,0,0,0,0,0,0,0,0,0,0,0,0,0,3040080,4161160,0,0,0,0,0,-4041191,0,1041020,0,0,0,0
5,213,2343.42776943231,0,0,517190.236652503,517191.283722246,0,30,9,0,0,12,7,9543483,3131141,3200170,3111111,0,0,1091110,3161061,1130080,2071201,0,0,2090031,0,0,-3131141,0,0,0,0,0,0,0,3200170,0,0,0,0,0,0,0,0,0,0,3111111,0,0,0,0,0
5,214,2030.72855132632,0,0,517194.64848109,517195.695555452,0,30,9,1,0,1,7,9430453,8501232,0,2311081,-4160191,0,0,2200181,0,0,0,0,3070081,3170091,2151111,3180030,0,0,0,0,0,0,0,0,0,0,0,0,0,0,0,1200021,0,1111060,0,0,0,0,0,0
5,215,823.953674233053,0,0,517198.825016782,517199.87208614,0,30,9,1,0,19,3,4121011,3111111,4041200,3190081,4121011,0,0,0,0,0,0,0,0,0,0,3111111,0,0,0,0,0,0,-4041200,0,0,0,0,0,0,0,0,0,0,0,0,3190081,0,0,0,0
5,216,476.473484421149,0,0,517201.801527144,517202.848600351,0,30,9,1,0,14,3,1161030,1031130,3141071,2180080,0,0,0,0,0,1161030,0,0,0,0,0,0,0,-1031130,0,0,0,0,0,0,0,3141071,0,0,0,0,0,0,0,0,0,0,0,0,0,2180080
5,217,1336.75444545224,0,0,517207.578084163,517208.625197791,0,30,10,1,0,30,3,0,0,7201240,5082211,0,0,0,0,0,0,0,0,0,0,0,0,0,0,0,0,0,0,0,0,0,0,3040080,4161160,0,0,0,0,0,-4041191,0,1041020,0,0,0,0
5,218,1176.04378936812,1,0,517210.989903896,517212.036964784,0,30,10,1,1,13,7,6331270,4131232,6262492,0,1180120,3060140,0,0,0,0,0,0,2091010,0,0,0,-1050061,0,3081171,0,0,0,0,2040191,0,2161121,0,0,0,2061180,0,0,0,0,0,0,0,0,0,0
5,219,619.50050573796,0,0,517214.413483076,517215.460552819,0,30,10,1,0,14,3,1161030,1031130,3141071,2180080,0,0,0,0,0,1161030,0,0,0,0,0,0,0,-1031130,0,0,0,0,0,0,0,3141071,0,0,0,0,0,0,0,0,0,0,0,0,0,2180080
5,220,1283.68352307007,0,0,517217.131173948,517218.178262939,0,30,10,0,0,18,3,3070060,7080162,0,3131060,0,0,0,3070060,0,0,0,0,0,0,0,0,3030041,0,0,0,0,-4050121,0,0,0,0,0,0,0,0,0,0,0,3131060,0,0,0,0,0,0
5,221,537.440371466801,1,0,517220.660635509,517221.707698323,0,30,10,1,1,16,3,1170091,4110061,1140040,2181160,0,0,0,0,0,0,0,1170091,0,0,0,0,0,0,0,-4110061,0,0,0,0,0,1140040,0,0,0,0,0,0,0,0,0,0,2181160,0,0,0
5,222,1966.82440076256,1,0,517223.331264723,517224.378329846,0,30,10,0,1,33,7,5140330,5251160,5351202,8092270,0,0,0,0,0,3130130,0,0,2010200,0,0,0,0,0,0,1131110,4120050,0,0,0,2161191,0,0,0,3190011,0,0,0,0,0,0,0,-4071070,0,0,4021200
5,223,1402.47985324822,1,0,517227.519599129,517228.566626911,0,30,10,1,1,11,7,2161131,9371301,4313352,2181151,0,0,0,0,0,0,2161131,0,0,0,-2140080,0,3170031,0,0,0,0,4061190,2071061,1101181,0,0,0,0,0,0,1141110,0,0,0,2181151,0,0,0,0,0
5,224,904.417754209135,0,0,517231.178429628,517232.22550938,0,30,10,0,0,36,7,0,3221260,13463524,3301160,0,0,0,0,0,0,0,0,0,0,0,1060090,0,0,0,2161170,0,0,0,0,3161071,4141201,3040191,0,0,3121061,0,0,0,0,0,0,0,2100140,0,-1201020
5,225,1233.0659662839,0,0,517234.213763406,517235.260855092,0,30,10,0,0,4,7,6301161,7081201,1030140,8492351,0,0,4150051,-2151110,0,0,0,0,0,0,0,0,3070130,0,4011071,0,0,0,0,0,0,0,1030140,0,0,0,0,0,0,0,4181171,0,0,2130090,2181090,0
5,226,1125.44971535681,1,1,517237.637352596,517238.684430038,0,30,10,0,0,12,3,5232052,1130061,0,3201141,0,4181041,0,0,1051011,0,0,0,0,0,0,-1130061,0,0,0,0,0,0,0,0,0,0,0,0,0,0,0,0,0,0,0,3201141,0,0,0,0
5,227,1331.10550651327,1,0,517240.919755654,517241.966823473,0,30,10,1,1,34,7,10251291,4241151,3321350,1141180,4061050,0,2040040,0,4150201,0,0,0,0,0,0,1091071,0,0,3150080,0,0,0,0,2201180,1120170,0,0,0,0,0,0,0,0,0,0,0,0,-1141180,0,0
5,228,1808.95091791172,1,0,517244.472750739,517245.519818557,0,30,10,1,1,1,7,9430453,8501232,0,2311081,-4160191,0,0,2200181,0,0,0,0,3070081,3170091,2151111,3180030,0,0,0,0,0,0,0,0,0,0,0,0,0,0,0,1200021,0,1111060,0,0,0,0,0,0
5,229,2955.8098554262,1,0,517248.519931351,517249.56693873,0,30,10,1,1,28,7,8403452,10271492,0,5322331,2171161,0,0,0,0,0,3081201,3151090,0,0,0,3090131,4071160,0,3110201,0,0,0,0,0,0,0,0,0,0,0,0,-3171180,0,0,2151151,0,0,0,0,0
5,230,1103.44295226969,1,0,517253.555237797,517254.602309849,0,30,10,1,1,7,3,4261221,0,3090131,4040090,2060181,0,0,0,0,0,-2201040,0,0,0,0,0,0,0,0,0,0,0,0,0,0,0,3090131,0,0,0,0,0,0,0,0,0,0,0,0,4040090
5,231,1310.20666548284,0,0,517256.849404538,517257.896474281,0,30,10,0,0,6,3,1080070,0,5311281,2111101,0,0,0,0,0,-1080070,0,0,0,0,0,0,0,0,0,0,0,0,0,0,1171131,0,0,0,0,4140150,0,0,0,0,0,0,2111101,0,0,0
5,232,984.683193499222,1,0,517260.367102031,517261.414179858,0,30,10,0,1,24,7,4051090,6212050,6270261,12362402,0,0,0,0,4051090,0,0,0,0,0,0,4141040,0,2071010,0,0,0,0,0,3170171,0,0,0,-3100090,0,0,0,0,0,4111181,0,0,4110101,0,0,4141120
5,233,843.177928763907,0,0,517263.402441584,517264.449518641,0,30,10,0,0,29,3,0,4201101,2161101,8231200,0,0,0,0,0,0,0,0,0,0,0,0,4201101,0,0,0,0,0,0,0,0,0,0,0,0,2161101,0,0,-4151140,0,0,0,4080060,0,0,0
5,234,697.021932748612,1,0,517266.449549053,517267.496616101,0,30,10,0,1,9,3,5262060,3181021,0,2180130,0,0,0,0,2111040,0,0,0,-3151020,0,3181021,0,0,0,0,0,0,0,0,0,0,0,0,0,0,0,0,0,0,0,0,0,2180130,0,0,0
5,235,1047.29310033144,0,0,517269.214291959,517270.261362472,0,30,10,0,0,25,3,0,3191110,9540360,0,0,0,0,0,0,0,0,0,0,0,0,0,0,0,0,3191110,0,0,0,0,0,0,0,3200160,-4170180,0,2170020,0,0,0,0,0,0,0,0,0
5,236,801.383711164817,0,0,517272.473172658,517273.520232392,0,30,10,1,0,31,3,0,6281182,2131051,2151120,0,0,0,0,0,0,0,0,0,0,0,3110171,0,0,3171011,0,0,0,0,2131051,0,0,0,0,0,0,0,0,0,0,-2151120,0,0,0,0,0
5,237,781.280972412787,1,0,517275.520273198,517276.567338706,0,30,10,1,1,19,3,4121011,3111111,4041200,3190081,4121011,0,0,0,0,0,0,0,0,0,0,3111111,0,0,0,0,0,0,-4041200,0,0,0,0,0,0,0,0,0,0,0,0,3190081,0,0,0,0
5,238,1357.50892566284,0,0,517278.532076916,517279.579145889,0,30,10,0,0,35,7,4170061,4171131,4141222,6480402,0,0,0,0,0,0,4170061,0,0,3141110,0,0,0,1030021,0,0,0,0,0,0,1080181,0,0,0,0,3061041,0,2120141,0,0,0,0,0,1160080,-3200181,0
5,239,928.222291811835,1,0,517282.02625205,517283.073321023,0,30,10,0,1,3,7,7362391,3260270,2101100,4240211,0,1141041,-4200190,0,2021160,0,0,0,0,0,0,1090090,0,0,0,0,2170180,0,0,0,2101100,0,0,0,0,0,0,0,0,0,0,2150121,0,0,0,2090090
5,240,899.127215379849,1,0,517285.120409629,517286.167474752,0,30,10,1,1,26,7,10322252,0,9221363,5351222,3061010,0,0,3171091,0,4090151,0,0,0,0,0,0,0,0,0,0,0,0,0,0,0,4120181,0,0,0,-3010041,2091141,0,0,1160061,0,0,0,0,4191161,0
5,241,751.632704923395,1,0,517291.955812392,517293.002875205,0,30,11,1,1,11,7,2161131,9371301,4313352,2181151,0,0,0,0,0,0,2161131,0,0,0,-2140080,0,3170031,0,0,0,0,4061190,2071061,1101181,0,0,0,0,0,0,1141110,0,0,0,2181151,0,0,0,0,0
5,242,564.535568119027,0,0,517294.791140857,517295.83820983,0,30,11,0,0,29,3,0,4051140,2180151,6070221,0,0,0,0,0,0,0,0,0,0,0,0,0,4051140,0,0,0,0,0,0,0,0,0,0,0,2180151,0,0,-2010131,0,0,0,0,0,0,4060090
5,243,1001.99110497488,1,0,517297.567655145,517298.614729508,0,30,11,1,1,13,7,6331270,4131232,6262492,0,1180120,3060140,0,0,0,0,0,0,2091010,0,0,0,-1050061,0,3081171,0,0,0,0,2040191,0,2161121,0,0,0,2061180,0,0,0,0,0,0,0,0,0,0
5,244,645.282595418394,0,0,517300.685351253,517301.732417531,0,30,11,0,0,33,3,2201041,1090041,0,6300231,2201041,0,0,0,0,0,0,0,0,0,0,0,0,0,1090041,0,0,0,0,0,0,0,0,0,0,0,0,0,0,0,0,0,-4150101,2150130,0,0
5,245,1489.10140746739,0,0,517303.544211318,517304.591281445,0,30,11,0,0,12,7,1201130,7332241,3021070,12190182,0,0,0,0,0,0,0,0,1201130,1111070,0,-3071050,0,0,0,0,0,3150121,0,0,0,0,3021070,0,0,0,0,4020021,0,0,0,0,4010101,4160060,0,0
5,246,620.975681813434,0,0,517307.191325485,517308.238395613,0,30,11,0,0,35,3,0,2100080,0,9402321,0,0,0,0,0,0,0,0,0,0,0,2100080,0,0,0,0,0,0,0,0,0,0,0,0,0,0,0,0,0,0,0,4110080,0,0,-2141180,3151061
5,247,583.186613512225,0,0,517309.991369063,517311.038429567,0,30,11,0,0,4,3,6331150,2161110,0,4160031,4160050,0,0,-2171100,0,0,0,0,0,0,0,0,0,2161110,0,0,0,0,0,0,0,0,0,0,0,0,0,0,4160031,0,0,0,0,0,0,0
5,248,579.864772560541,1,0,517312.791409176,517313.838482383,0,30,11,1,1,19,3,4121011,3111111,4041200,3190081,4121011,0,0,0,0,0,0,0,0,0,0,3111111,0,0,0,0,0,0,-4041200,0,0,0,0,0,0,0,0,0,0,0,0,3190081,0,0,0,0
5,249,534.968912601471,0,0,517315.591453909,517316.63853982,0,30,11,1,0,16,3,1170091,4110061,1140040,2181160,0,0,0,0,0,0,0,1170091,0,0,0,0,0,0,0,-4110061,0,0,0,0,0,1140040,0,0,0,0,0,0,0,0,0,0,2181160,0,0,0
5,250,776.640250172932,0,0,517318.226781681,517319.273863358,0,30,11,1,0,28,7,8403452,10271492,0,5322331,2171161,0,0,0,0,0,3081201,3151090,0,0,0,3090131,4071160,0,3110201,0,0,0,0,0,0,0,0,0,0,0,0,-3171180,0,0,2151151,0,0,0,0,0
5,251,760.241620067973,0,0,517321.215060344,517322.262135092,0,30,11,1,0,7,3,4261221,0,3090131,4040090,2060181,0,0,0,0,0,-2201040,0,0,0,0,0,0,0,0,0,0,0,0,0,0,0,3090131,0,0,0,0,0,0,0,0,0,0,0,0,4040090
5,252,1774.01057176758,1,0,517324.097498204,517325.144532145,0,30,11,0,1,6,7,7441393,10270350,2180201,1151050,4070081,1180141,0,0,0,-2191171,0,0,0,3190070,0,0,0,4050200,0,0,3030080,0,0,0,0,0,0,0,0,0,2180201,0,0,0,0,0,0,1151050,0,0
5,253,948.41126218671,0,0,517328.085744146,517329.132864704,0,30,11,0,0,25,3,5291230,0,5270161,0,0,0,4101190,0,0,0,0,0,1190040,0,0,0,0,0,0,0,0,0,0,0,0,0,2090031,0,-3180130,0,0,0,0,0,0,0,0,0,0,0
5,254,978.642747795675,1,0,517331.250589683,517332.297577429,0,30,11,0,1,3,7,10373331,5211101,4061021,1101131,3141010,0,-2160091,2061180,0,0,0,0,3011050,0,0,0,4120051,0,0,0,0,1091050,0,0,0,0,0,0,0,4061021,0,1101131,0,0,0,0,0,0,0,0
5,255,660.178717167582,1,0,517334.427029135,517335.474096568,0,30,11,0,1,18,3,0,1170191,3151180,6251251,0,0,0,0,0,0,0,0,0,0,0,0,0,0,0,0,0,-1170191,0,0,3151180,0,0,0,0,0,0,3090080,0,0,0,0,0,0,0,3161171
5,256,959.777663287241,1,0,517337.262363375,517338.309436197,0,30,11,1,1,1,7,9430453,8501232,0,2311081,-4160191,0,0,2200181,0,0,0,0,3070081,3170091,2151111,3180030,0,0,0,0,0,0,0,0,0,0,0,0,0,0,0,1200021,0,1111060,0,0,0,0,0,0
5,257,821.27241085982,0,0,517340.427112287,517341.474177025,0,30,11,1,0,31,3,0,6281182,2131051,2151120,0,0,0,0,0,0,0,0,0,0,0,3110171,0,0,3171011,0,0,0,0,2131051,0,0,0,0,0,0,0,0,0,0,-2151120,0,0,0,0,0
5,258,852.480161236599,1,0,517343.356572539,517344.403645361,0,30,11,0,1,36,7,3150100,0,11342501,12522402,0,0,0,0,0,3150100,0,0,0,0,0,0,0,0,0,0,0,0,4191180,4071131,0,3080190,0,0,0,0,0,0,0,2130030,0,0,0,4051181,4141050,-2200141
5,259,710.746613738593,1,0,517346.35661219,517347.403683088,0,30,11,1,1,30,3,0,0,7201240,5082211,0,0,0,0,0,0,0,0,0,0,0,0,0,0,0,0,0,0,0,0,0,0,3040080,4161160,0,0,0,0,0,-4041191,0,1041020,0,0,0,0
5,260,830.268213234376,1,0,517349.133122243,517350.180192756,0,30,11,1,1,34,7,10251291,4241151,3321350,1141180,4061050,0,2040040,0,4150201,0,0,0,0,0,0,1091071,0,0,3150080,0,0,0,0,2201180,1120170,0,0,0,0,0,0,0,0,0,0,0,0,-1141180,0,0
5,261,950.343773700297,1,0,517352.15673199,517353.203770166,0,30,11,1,1,14,3,1161030,1031130,3141071,2180080,0,0,0,0,0,1161030,0,0,0,0,0,0,0,-1031130,0,0,0,0,0,0,0,3141071,0,0,0,0,0,0,0,0,0,0,0,0,0,2180080
5,262,2066.66210060939,1,0,517355.21556657,517356.262637083,0,30,11,0,1,9,7,1101090,4122262,7221171,7181250,0,0,0,0,0,0,0,0,-1101090,0,0,0,1060201,0,0,2031041,1031020,0,0,4200141,0,0,0,0,0,0,3021030,4111100,0,0,0,0,3070150,0,0,0
5,263,925.489058485255,0,0,517359.521509312,517360.56858252,0,30,11,1,0,26,7,10322252,0,9221363,5351222,3061010,0,0,3171091,0,4090151,0,0,0,0,0,0,0,0,0,0,0,0,0,0,0,4120181,0,0,0,-3010041,2091141,0,0,1160061,0,0,0,0,4191161,0
5,264,1179.29441219894,1,0,517362.662741254,517363.709817926,0,30,11,0,1,24,7,12321230,3070140,4281182,4020162,4080030,0,4130090,0,0,0,4111110,0,0,0,0,0,0,0,0,0,0,3070140,0,0,2161141,0,0,-2120041,0,0,0,1010011,0,0,3010151,0,0,0,0,0
5,265,887.751960079186,0,0,517369.333422437,517370.3804891,0,30,12,0,0,25,3,1011011,4150100,7131240,0,1011011,0,0,0,0,0,0,0,0,0,0,0,4150100,0,0,0,0,0,0,0,0,3110090,0,0,-4021150,0,0,0,0,0,0,0,0,0,0,0
5,266,1205.01105836593,1,0,517372.404049187,517373.451182448,0,30,12,0,1,6,7,4261251,11543351,1151150,4051090,0,0,0,0,0,-1121050,0,3140201,0,0,1081041,3130180,0,4171070,0,3161060,0,0,0,0,0,0,0,0,1151150,0,0,0,0,0,0,4051090,0,0,0,0
5,267,842.760629486293,1,0,517375.804168756,517376.85117806,0,30,12,1,1,11,7,2161131,9371301,4313352,2181151,0,0,0,0,0,0,2161131,0,0,0,-2140080,0,3170031,0,0,0,0,4061190,2071061,1101181,0,0,0,0,0,0,1141110,0,0,0,2181151,0,0,0,0,0
5,268,603.926080162637,1,0,517378.804158362,517379.851280845,0,30,12,1,1,28,7,8403452,10271492,0,5322331,2171161,0,0,0,0,0,3081201,3151090,0,0,0,3090131,4071160,0,3110201,0,0,0,0,0,0,0,0,0,0,0,0,-3171180,0,0,2151151,0,0,0,0,0
5,269,926.314417971298,0,0,517381.486552413,517382.533618691,0,30,12,0,0,12,3,0,4201030,4011021,6381380,0,0,0,0,0,0,0,0,0,0,0,-4201030,0,0,0,0,0,0,0,0,0,0,0,4011021,0,0,0,0,0,0,4190200,0,0,2191180,0,0
5,270,767.055455304217,1,0,517384.62777473,517385.674841393,0,30,12,0,1,18,7,0,4051331,12583412,6211171,0,0,0,0,0,0,0,0,0,0,0,0,0,0,0,0,2030161,-2021170,4081181,0,0,0,4151101,0,2180100,2171030,0,2131080,0,0,0,0,0,4080091,0,0
5,271,1213.08218088234,0,0,517387.521927382,517388.568994045,0,30,12,1,0,13,7,6331270,4131232,6262492,0,1180120,3060140,0,0,0,0,0,0,2091010,0,0,0,-1050061,0,3081171,0,0,0,0,2040191,0,2161121,0,0,0,2061180,0,0,0,0,0,0,0,0,0,0
5,272,1253.13097873004,0,0,517390.874917539,517391.921982662,0,30,12,0,0,33,7,0,7392283,5252292,4242542,0,0,0,0,0,0,0,0,0,0,0,1120091,4171141,2101051,0,0,0,0,0,0,0,0,0,4101181,0,1151111,0,1100181,0,0,0,0,-1011171,0,0,2131190
5,273,700.396128522698,0,0,517394.251440065,517395.298507113,0,30,12,1,0,16,3,1170091,4110061,1140040,2181160,0,0,0,0,0,0,0,1170091,0,0,0,0,0,0,0,-4110061,0,0,0,0,0,1140040,0,0,0,0,0,0,0,0,0,0,2181160,0,0,0
5,274,995.797444193158,1,0,517397.169141254,517398.216200988,0,30,12,0,1,4,7,5351202,5302182,7112212,6231270,2171141,0,0,-3180061,0,0,0,0,0,0,0,0,0,2151061,0,3151121,0,0,4031141,0,0,0,0,0,3081071,0,0,0,0,0,2031150,0,4200120,0,0,0
5,275,605.543307436164,0,0,517400.357420611,517401.404485349,0,30,12,0,0,9,3,4040181,2160011,1061111,1061011,0,0,0,0,0,0,0,0,-4040181,0,0,0,0,0,0,0,2160011,0,0,0,0,0,0,1061111,0,0,0,0,0,0,0,0,0,1061011,0,0
5,276,853.98959898157,1,0,517403.039809657,517404.086870931,0,30,12,0,1,3,7,2160031,6112170,6401271,7332201,0,0,-2160031,0,0,0,0,0,0,0,2101100,0,0,0,4011070,0,0,0,0,3150070,0,0,1141010,0,2110191,0,0,3131061,0,0,4201140,0,0,0,0,0
5,277,1167.76671190746,1,0,517406.122205863,517407.169278301,0,30,12,0,1,24,3,1030081,2200100,4061190,3021171,0,0,0,1030081,0,0,0,0,0,0,0,0,0,0,0,0,2200100,0,0,0,0,0,0,-4061190,0,0,0,3021171,0,0,0,0,0,0,0,0
5,278,641.991551499814,0,0,517409.545785814,517410.592848243,0,30,12,1,0,31,3,0,6281182,2131051,2151120,0,0,0,0,0,0,0,0,0,0,0,3110171,0,0,3171011,0,0,0,0,2131051,0,0,0,0,0,0,0,0,0,0,-2151120,0,0,0,0,0
5,279,601.530458836351,1,0,517412.4164188,517413.463486618,0,30,12,1,1,14,3,1161030,1031130,3141071,2180080,0,0,0,0,0,1161030,0,0,0,0,0,0,0,-1031130,0,0,0,0,0,0,0,3141071,0,0,0,0,0,0,0,0,0,0,0,0,0,2180080
5,280,808.095916407183,1,0,517415.110575763,517416.157642041,0,30,12,1,1,26,7,10322252,0,9221363,5351222,3061010,0,0,3171091,0,4090151,0,0,0,0,0,0,0,0,0,0,0,0,0,0,0,4120181,0,0,0,-3010041,2091141,0,0,1160061,0,0,0,0,4191161,0
5,281,1004.2161878664,1,0,517418.157678228,517419.204747201,0,30,12,1,1,1,7,9430453,8501232,0,2311081,-4160191,0,0,2200181,0,0,0,0,3070081,3170091,2151111,3180030,0,0,0,0,0,0,0,0,0,0,0,0,0,0,0,1200021,0,1111060,0,0,0,0,0,0
5,282,2174.76802377496,0,0,517421.310672697,517422.357885261,0,30,12,1,0,34,7,10251291,4241151,3321350,1141180,4061050,0,2040040,0,4150201,0,0,0,0,0,0,1091071,0,0,3150080,0,0,0,0,2201180,1120170,0,0,0,0,0,0,0,0,0,0,0,0,-1141180,0,0
5,283,1197.57781847147,0,0,517425.546023721,517426.593094234,0,30,12,0,0,29,3,0,2071041,1051031,7260352,0,0,0,0,0,0,0,0,0,0,2071041,0,0,0,0,0,0,0,1051031,0,0,0,0,0,0,0,0,0,-4200151,0,3060201,0,0,0,0,0
5,284,1423.64624323091,0,0,517428.851956069,517429.899026582,0,30,12,0,0,36,7,3190192,1161190,4263312,5140270,0,0,0,0,0,2040101,1150091,0,0,0,0,0,0,0,0,0,1161190,0,0,0,2161061,1061101,0,0,0,1041150,0,0,0,0,0,0,0,1100120,0,-4040150
5,285,1113.92470967257,0,0,517432.36973325,517433.416720226,0,30,12,1,0,30,3,0,0,7201240,5082211,0,0,0,0,0,0,0,0,0,0,0,0,0,0,0,0,0,0,0,0,0,0,3040080,4161160,0,0,0,0,0,-4041191,0,1041020,0,0,0,0
5,286,704.773151548579,1,0,517435.616814464,517436.663836087,0,30,12,0,1,35,3,4020010,3201190,3071030,4131161,0,0,0,4020010,0,0,0,0,0,0,0,0,0,3201190,0,0,0,0,0,0,0,0,0,0,0,3071030,0,0,0,0,0,0,0,0,-4131161,0
5,287,1221.87318326905,1,0,517438.522692687,517439.569802466,0,30,12,1,1,19,3,4121011,3111111,4041200,3190081,4121011,0,0,0,0,0,0,0,0,0,0,3111111,0,0,0,0,0,0,-4041200,0,0,0,0,0,0,0,0,0,0,0,0,3190081,0,0,0,0
5,288,899.619197298307,1,0,517441.910976201,517442.958042864,0,30,12,1,1,7,3,4261221,0,3090131,4040090,2060181,0,0,0,0,0,-2201040,0,0,0,0,0,0,0,0,0,0,0,0,0,0,0,3090131,0,0,0,0,0,0,0,0,0,0,0,0,4040090
5,289,1169.34929252602,0,0,517448.711071364,517449.758147266,0,30,13,0,0,12,3,0,4170020,2131212,4171150,0,0,0,0,0,0,0,0,0,0,0,-4170020,0,0,0,0,0,0,0,1010201,0,0,0,0,0,1121011,0,0,0,0,0,0,4171150,0,0,0
5,290,974.741153477225,1,0,517451.981724599,517453.028835148,0,30,13,1,1,19,3,4121011,3111111,4041200,3190081,4121011,0,0,0,0,0,0,0,0,0,0,3111111,0,0,0,0,0,0,-4041200,0,0,0,0,0,0,0,0,0,0,0,0,3190081,0,0,0,0
5,291,896.631118899677,0,0,517455.181818838,517456.228834301,0,30,13,0,0,24,7,4200171,1020121,11391353,5261321,0,0,0,0,0,0,4200171,0,0,0,0,0,0,0,1020121,0,0,0,4070071,0,0,0,1200131,-3101131,0,3020020,0,2090131,0,0,0,0,0,0,0,3171190
5,292,1515.60106716352,1,0,517458.228863558,517459.275932531,0,30,13,1,1,34,7,10251291,4241151,3321350,1141180,4061050,0,2040040,0,4150201,0,0,0,0,0,0,1091071,0,0,3150080,0,0,0,0,2201180,1120170,0,0,0,0,0,0,0,0,0,0,0,0,-1141180,0,0
5,293,1035.45165550895,0,0,517461.875979265,517462.923049393,0,30,13,1,0,26,7,10322252,0,9221363,5351222,3061010,0,0,3171091,0,4090151,0,0,0,0,0,0,0,0,0,0,0,0,0,0,0,4120181,0,0,0,-3010041,2091141,0,0,1160061,0,0,0,0,4191161,0
5,294,810.360265430063,1,0,517465.064263241,517466.111325285,0,30,13,0,1,36,3,2071081,3011020,0,7112300,0,0,2071081,0,0,0,0,0,0,0,3011020,0,0,0,0,0,0,0,0,0,0,0,0,0,0,0,0,0,0,0,0,0,0,3011200,0,-4101100
5,295,979.731421626639,1,0,517467.934890068,517468.981950572,0,30,13,0,1,35,7,6251321,1121070,5221321,9222412,0,0,0,0,2161181,0,0,4090140,0,0,0,0,0,1121070,0,0,0,0,0,0,1121191,4100130,0,0,0,0,0,0,0,0,3161191,2050031,0,0,-4011190,0
5,296,776.496274222154,0,0,517470.981993688,517472.029060736,0,30,13,0,0,33,3,4101311,0,1121060,3010031,0,0,0,2061191,0,0,0,2040120,0,0,0,0,0,0,0,0,0,0,0,0,0,0,1121060,0,0,0,0,0,0,0,0,0,-3010031,0,0,0
5,297,1068.20810982026,1,1,517473.876155963,517474.923228401,0,30,13,0,0,6,7,6331150,3091061,5250090,7351231,0,0,3141130,0,0,-3190020,0,0,0,0,0,3091061,0,0,0,0,0,0,0,3050020,0,0,0,2200070,0,0,0,2080031,0,0,0,0,2101020,3170180,0,0
5,298,1894.18737730011,0,0,517477.182089466,517478.229159209,0,30,13,0,0,4,3,1060150,1021040,4101021,2060090,0,0,0,-1060150,0,0,0,0,0,0,0,1021040,0,0,0,0,0,0,4101021,0,0,0,0,0,0,0,0,2060090,0,0,0,0,0,0,0,0
5,299,955.613909522071,1,0,517481.158622541,517482.205684584,0,30,13,1,1,30,3,0,0,7201240,5082211,0,0,0,0,0,0,0,0,0,0,0,0,0,0,0,0,0,0,0,0,0,0,3040080,4161160,0,0,0,0,0,-4041191,0,1041020,0,0,0,0
5,300,987.539229856338,1,0,517484.193971332,517485.241044924,0,30,13,1,1,1,7,9430453,8501232,0,2311081,-4160191,0,0,2200181,0,0,0,0,3070081,3170091,2151111,3180030,0,0,0,0,0,0,0,0,0,0,0,0,0,0,0,1200021,0,1111060,0,0,0,0,0,0
5,301,741.145173087716,0,0,517487.429342759,517488.476360917,0,30,13,0,0,18,3,3180141,2051141,2131141,3171201,0,0,0,0,3180141,0,0,0,0,0,0,0,0,0,0,0,0,-2051141,0,2131141,0,0,0,0,0,0,0,0,0,0,0,3171201,0,0,0,0
5,302,497.736884979531,1,0,517490.370527042,517491.417581387,0,30,13,1,1,16,3,1170091,4110061,1140040,2181160,0,0,0,0,0,0,0,1170091,0,0,0,0,0,0,0,-4110061,0,0,0,0,0,1140040,0,0,0,0,0,0,0,0,0,0,2181160,0,0,0
5,303,707.517548755277,1,0,517493.052909929,517494.099980057,0,30,13,0,1,29,3,5202191,0,2040140,2160071,0,0,3051160,0,0,2151031,0,0,0,0,0,0,0,0,0,0,0,0,0,0,0,0,0,0,0,2040140,0,0,-2160071,0,0,0,0,0,0,0
5,304,595.424569561146,1,0,517495.958839736,517497.00590178,0,30,13,1,1,28,7,8403452,10271492,0,5322331,2171161,0,0,0,0,0,3081201,3151090,0,0,0,3090131,4071160,0,3110201,0,0,0,0,0,0,0,0,0,0,0,0,-3171180,0,0,2151151,0,0,0,0,0
5,305,905.45022347942,0,0,517498.617699493,517499.664771546,0,30,13,1,0,31,3,0,6281182,2131051,2151120,0,0,0,0,0,0,0,0,0,0,0,3110171,0,0,3171011,0,0,0,0,2131051,0,0,0,0,0,0,0,0,0,0,-2151120,0,0,0,0,0
5,306,1567.81005859375,1,0,517501.735430632,517502.78245418,0,30,13,0,1,3,7,6071241,8442130,2040100,7160232,0,0,-2010181,0,0,0,4061060,0,0,3190030,0,0,0,4091080,0,0,0,1161020,0,0,0,0,0,0,2040100,0,0,0,3040151,4120081,0,0,0,0,0,0
5,307,1283.4367621108,0,0,517505.464865554,517506.511933757,0,30,13,0,0,25,7,0,10191261,2031111,10390392,0,0,0,0,0,0,0,0,0,0,0,4071171,0,0,2080030,0,4040060,0,0,0,0,0,0,0,-2031111,0,0,0,1090151,4170120,0,4010030,0,0,0,1120091
5,308,898.386547574773,0,0,517508.97079359,517510.017860638,0,30,13,1,0,11,7,2161131,9371301,4313352,2181151,0,0,0,0,0,0,2161131,0,0,0,-2140080,0,3170031,0,0,0,0,4061190,2071061,1101181,0,0,0,0,0,0,1141110,0,0,0,2181151,0,0,0,0,0
5,309,886.87116606161,1,0,517512.053197496,517513.100254535,0,30,13,1,1,7,3,4261221,0,3090131,4040090,2060181,0,0,0,0,0,-2201040,0,0,0,0,0,0,0,0,0,0,0,0,0,0,0,3090131,0,0,0,0,0,0,0,0,0,0,0,0,4040090
5,310,635.934937396087,1,0,517515.159119527,517516.206183881,0,30,13,0,1,9,7,7190171,8423243,3312210,3140150,0,0,0,0,0,0,0,3100091,-4090080,0,4191041,0,1061171,0,3171031,0,0,0,0,0,0,0,0,0,1131160,2181050,0,0,0,0,0,0,3140150,0,0,0
5,311,1446.43448007992,0,0,517517.923872443,517518.970935256,0,30,13,1,0,13,7,6331270,4131232,6262492,0,1180120,3060140,0,0,0,0,0,0,2091010,0,0,0,-1050061,0,3081171,0,0,0,0,2040191,0,2161121,0,0,0,2061180,0,0,0,0,0,0,0,0,0,0
5,312,494.250280142296,0,0,517521.570985455,517522.618045574,0,30,13,1,0,14,3,1161030,1031130,3141071,2180080,0,0,0,0,0,1161030,0,0,0,0,0,0,0,-1031130,0,0,0,0,0,0,0,3141071,0,0,0,0,0,0,0,0,0,0,0,0,0,2180080
5,313,754.083375853952,0,0,517527.618125646,517528.665198854,0,30,14,1,0,30,3,0,0,7201240,5082211,0,0,0,0,0,0,0,0,0,0,0,0,0,0,0,0,0,0,0,0,0,0,3040080,4161160,0,0,0,0,0,-4041191,0,1041020,0,0,0,0
5,314,804.128878342453,1,0,517530.524061613,517531.571119037,0,30,14,1,1,1,7,9430453,8501232,0,2311081,-4160191,0,0,2200181,0,0,0,0,3070081,3170091,2151111,3180030,0,0,0,0,0,0,0,0,0,0,0,0,0,0,0,1200021,0,1111060,0,0,0,0,0,0
5,315,1712.25759136723,1,0,517533.394676891,517534.441757798,0,30,14,0,1,24,7,9252382,5232301,2091090,3141101,4141110,0,2031061,2040180,0,1040031,0,0,0,0,0,0,0,0,0,1151110,0,4081191,0,0,0,0,0,-2091090,0,0,0,0,0,0,0,3141101,0,0,0,0
5,316,906.653616111726,0,1,517537.218278631,517538.265338749,0,30,14,0,1,33,7,2071200,7163342,3181170,10412331,0,0,0,0,2071200,0,0,0,0,2091061,0,3041111,0,0,0,0,2031170,0,0,0,0,0,0,0,0,3181170,0,0,0,0,0,0,-3191050,3101160,0,4120121
5,317,845.009195094462,1,0,517540.28890692,517541.335972813,0,30,14,0,1,25,7,4121180,8351232,7251120,5161331,4121180,0,0,0,0,0,0,0,0,0,0,3071101,3160110,0,0,0,0,2120021,0,3141040,0,0,0,0,-4110080,0,0,0,0,0,0,3041170,0,0,0,2120161
5,318,1025.64743207768,0,0,517543.371308901,517544.418374024,0,30,14,0,0,36,3,3090071,0,0,6243413,0,3090071,0,0,0,0,0,0,0,0,0,0,0,0,0,0,0,0,0,0,0,0,0,0,0,0,0,3101161,0,0,0,1021121,0,0,0,-2121131
5,319,732.192486466374,0,0,517546.6537058,517547.700782088,0,30,14,0,0,29,3,0,2030200,0,9322322,0,0,0,0,0,0,0,0,0,0,0,0,0,2030200,0,0,0,0,0,0,0,0,0,0,0,0,0,0,-4141161,1021021,0,0,0,4160140,0,0
5,320,845.930025272537,1,0,517549.594929734,517550.641990238,0,30,14,1,1,26,7,10322252,0,9221363,5351222,3061010,0,0,3171091,0,4090151,0,0,0,0,0,0,0,0,0,0,0,0,0,0,0,4120181,0,0,0,-3010041,2091141,0,0,1160061,0,0,0,0,4191161,0
5,321,652.146860724315,0,0,517552.559676799,517553.606745387,0,30,14,0,0,3,3,1180191,2100151,0,7330251,0,0,-1180191,0,0,0,0,0,0,0,0,0,0,0,0,2100151,0,0,0,0,0,0,0,0,0,0,0,0,3180150,0,4150101,0,0,0,0,0
5,322,656.28482203465,1,0,517555.406777801,517556.453848313,0,30,14,0,1,9,7,4131201,6101332,8593422,4060111,0,0,0,0,0,0,0,0,-4131201,0,0,0,0,4021201,2080131,0,0,0,0,2201060,2141111,3180061,1071190,0,0,0,0,0,0,0,0,0,0,4060111,0,0
5,323,1686.64950464154,1,0,517558.230343738,517559.277420026,0,30,14,0,1,18,7,8471361,10592313,2070131,0,2190130,3190120,0,0,0,0,0,0,3091111,0,4121201,0,0,0,2151021,0,3180011,-1140080,2070131,0,0,0,0,0,0,0,0,0,0,0,0,0,0,0,0,0
5,324,568.240446678828,1,0,517562.112763505,517563.159824778,0,30,14,1,1,16,3,1170091,4110061,1140040,2181160,0,0,0,0,0,0,0,1170091,0,0,0,0,0,0,0,-4110061,0,0,0,0,0,1140040,0,0,0,0,0,0,0,0,0,0,2181160,0,0,0
5,325,713.776268181391,0,0,517564.748157491,517565.795162945,0,30,14,1,0,31,3,0,6281182,2131051,2151120,0,0,0,0,0,0,0,0,0,0,0,3110171,0,0,3171011,0,0,0,0,2131051,0,0,0,0,0,0,0,0,0,0,-2151120,0,0,0,0,0
5,326,5000,-1,-1,517567.665784767,517568.712846425,0,30,14,1,0,7,3,4261221,0,3090131,4040090,2060181,0,0,0,0,0,-2201040,0,0,0,0,0,0,0,0,0,0,0,0,0,0,0,3090131,0,0,0,0,0,0,0,0,0,0,0,0,4040090
5,327,1005.73024514597,0,0,517574.760012024,517575.807077532,0,30,14,1,0,13,7,6331270,4131232,6262492,0,1180120,3060140,0,0,0,0,0,0,2091010,0,0,0,-1050061,0,3081171,0,0,0,0,2040191,0,2161121,0,0,0,2061180,0,0,0,0,0,0,0,0,0,0
5,328,1480.41434498737,0,0,517577.889470274,517578.936530393,0,30,14,1,0,14,3,1161030,1031130,3141071,2180080,0,0,0,0,0,1161030,0,0,0,0,0,0,0,-1031130,0,0,0,0,0,0,0,3141071,0,0,0,0,0,0,0,0,0,0,0,0,0,2180080
5,329,655.24696331704,1,0,517581.536584057,517582.58364456,0,30,14,0,1,35,3,0,4290211,0,5212230,0,0,0,0,0,0,0,0,0,0,2200101,0,0,0,0,0,0,2090110,0,0,0,0,0,0,0,0,0,0,0,0,0,0,2051040,0,-3161190,0
5,330,789.211968658492,1,0,517584.348380538,517585.395468374,0,30,14,1,1,34,7,10251291,4241151,3321350,1141180,4061050,0,2040040,0,4150201,0,0,0,0,0,0,1091071,0,0,3150080,0,0,0,0,2201180,1120170,0,0,0,0,0,0,0,0,0,0,0,0,-1141180,0,0
5,331,2648.34227692336,1,0,517587.195486159,517588.242560522,0,30,14,1,1,11,7,2161131,9371301,4313352,2181151,0,0,0,0,0,0,2161131,0,0,0,-2140080,0,3170031,0,0,0,0,4061190,2071061,1101181,0,0,0,0,0,0,1141110,0,0,0,2181151,0,0,0,0,0
5,332,4315.79362537013,1,1,517591.972029705,517593.019094828,0,30,14,1,0,19,3,4121011,3111111,4041200,3190081,4121011,0,0,0,0,0,0,0,0,0,0,3111111,0,0,0,0,0,0,-4041200,0,0,0,0,0,0,0,0,0,0,0,0,3190081,0,0,0,0
5,333,708.752123289742,0,0,517598.383892553,517599.430956522,0,30,14,1,0,28,7,8403452,10271492,0,5322331,2171161,0,0,0,0,0,3081201,3151090,0,0,0,3090131,4071160,0,3110201,0,0,0,0,0,0,0,0,0,0,0,0,-3171180,0,0,2151151,0,0,0,0,0
5,334,1274.09526350675,0,0,517601.348641542,517602.395703586,0,30,14,0,0,12,3,0,6122192,1031020,2130171,0,0,0,0,0,0,0,0,0,3041151,0,-3081041,0,0,0,0,0,0,0,0,0,0,0,0,0,0,1031020,0,0,0,0,0,0,0,2130171,0
5,335,864.42015634384,1,0,517604.866336341,517605.913404544,0,30,14,0,1,4,3,2100040,5111230,0,4201011,0,0,0,-2100040,0,0,0,0,0,1101090,0,0,0,0,0,4010140,0,0,0,0,0,0,0,0,0,0,0,0,0,4201011,0,0,0,0,0,0
5,336,1797.14989423519,0,0,517607.807553346,517608.854626938,0,30,14,0,0,6,7,7221482,0,8410370,7222290,0,0,0,4030170,0,-2131171,0,1060141,0,0,0,0,0,0,0,0,0,0,1190050,0,0,0,0,0,4160120,3060200,0,3131090,4091200,0,0,0,0,0,0,0
5,337,675.384348724037,1,0,517614.984137543,517616.031205746,0,30,15,0,1,12,3,3070061,4251220,0,4120120,0,0,0,0,0,0,0,3070061,0,0,0,-2121030,0,0,0,0,0,2130190,0,0,0,0,0,0,0,0,0,0,0,0,0,0,0,4120120,0,0
5,338,1101.64787241956,1,0,517617.901851821,517618.948898081,0,30,15,0,1,18,3,1010060,4191232,4131190,0,0,0,0,1010060,0,0,0,0,0,0,1140071,0,0,0,0,0,0,-3051161,0,0,0,0,0,0,0,0,4131190,0,0,0,0,0,0,0,0,0
5,339,801.591205934528,1,0,517621.243046729,517622.290123401,0,30,15,1,1,28,7,8403452,10271492,0,5322331,2171161,0,0,0,0,0,3081201,3151090,0,0,0,3090131,4071160,0,3110201,0,0,0,0,0,0,0,0,0,0,0,0,-3171180,0,0,2151151,0,0,0,0,0
5,340,875.09939953452,0,0,517624.184274513,517625.231346951,0,30,15,1,0,31,3,0,6281182,2131051,2151120,0,0,0,0,0,0,0,0,0,0,0,3110171,0,0,3171011,0,0,0,0,2131051,0,0,0,0,0,0,0,0,0,0,-2151120,0,0,0,0,0
5,341,466.084118001163,1,0,517627.125510381,517628.172555101,0,30,15,1,1,16,3,1170091,4110061,1140040,2181160,0,0,0,0,0,0,0,1170091,0,0,0,0,0,0,0,-4110061,0,0,0,0,0,1140040,0,0,0,0,0,0,0,0,0,0,2181160,0,0,0
5,342,693.623484286945,1,0,517629.749062537,517630.796131895,0,30,15,1,1,7,3,4261221,0,3090131,4040090,2060181,0,0,0,0,0,-2201040,0,0,0,0,0,0,0,0,0,0,0,0,0,0,0,3090131,0,0,0,0,0,0,0,0,0,0,0,0,4040090
5,343,667.964967491571,0,0,517632.67850893,517633.725633338,0,30,15,0,0,29,3,0,0,2060030,8283361,0,0,0,0,0,0,0,0,0,0,0,0,0,0,0,0,0,0,0,0,0,0,0,2060030,0,0,0,0,-4181151,2021020,0,0,0,2081190,0,0
5,344,495.051002071705,0,0,517635.478609483,517636.525621866,0,30,15,0,0,9,3,1141120,0,1080081,6140220,0,0,0,0,0,0,0,0,-1141120,0,0,0,0,0,0,0,0,0,0,0,1080081,0,0,0,0,0,0,0,2040040,0,0,0,0,4100180,0,0
5,345,1544.37623982085,1,0,517638.102135076,517639.149203665,0,30,15,0,1,6,7,10322400,1140181,5091240,3020161,3090030,0,2081140,0,0,-1061130,4090100,0,0,0,0,0,0,1140181,0,0,0,0,0,0,0,3011180,0,2080060,0,0,0,3020161,0,0,0,0,0,0,0,0
5,346,556.473684613593,0,0,517641.866890302,517642.9139612,0,30,15,1,0,11,7,2161131,9371301,4313352,2181151,0,0,0,0,0,0,2161131,0,0,0,-2140080,0,3170031,0,0,0,0,4061190,2071061,1101181,0,0,0,0,0,0,1141110,0,0,0,2181151,0,0,0,0,0
5,347,631.620663276408,0,0,517644.678712961,517645.725762685,0,30,15,1,0,14,3,1161030,1031130,3141071,2180080,0,0,0,0,0,1161030,0,0,0,0,0,0,0,-1031130,0,0,0,0,0,0,0,3141071,0,0,0,0,0,0,0,0,0,0,0,0,0,2180080
5,348,1339.65321263531,0,0,517647.384668253,517648.431689875,0,30,15,0,0,24,7,4110171,8091240,3312171,7121181,0,3030081,0,0,1080090,0,0,0,0,4011170,0,0,4080070,0,0,0,0,0,0,0,0,0,0,-2151020,1161151,0,0,3030080,0,0,0,0,4091101,0,0,0
5,349,812.896782997996,1,0,517650.937624071,517651.98468342,0,30,15,0,1,3,7,8172212,4141161,8442311,0,0,0,-4081071,0,0,0,0,0,4091141,0,0,0,0,0,0,1070021,3071140,0,0,2150050,0,1070010,0,3191081,0,0,2031170,0,0,0,0,0,0,0,0,0
5,350,1447.44885608088,0,0,517653.867067385,517654.914129428,0,30,15,1,0,34,7,10251291,4241151,3321350,1141180,4061050,0,2040040,0,4150201,0,0,0,0,0,0,1091071,0,0,3150080,0,0,0,0,2201180,1120170,0,0,0,0,0,0,0,0,0,0,0,0,-1141180,0,0
5,351,1299.1459245095,0,0,517657.420065549,517658.467127978,0,30,15,0,0,33,7,5372350,0,4341353,10321202,0,0,0,3191190,0,0,2181160,0,0,0,0,0,0,0,0,0,0,0,0,1140141,1071131,0,0,2130081,0,0,0,0,2020131,4171011,0,0,-4130060,0,0,0
5,352,900.484592886642,1,0,517660.878935777,517661.926002055,0,30,15,1,1,19,3,4121011,3111111,4041200,3190081,4121011,0,0,0,0,0,0,0,0,0,0,3111111,0,0,0,0,0,0,-4041200,0,0,0,0,0,0,0,0,0,0,0,0,3190081,0,0,0,0
5,353,847.235432942398,1,0,517664.020166563,517665.067226682,0,30,15,1,1,13,7,6331270,4131232,6262492,0,1180120,3060140,0,0,0,0,0,0,2091010,0,0,0,-1050061,0,3081171,0,0,0,0,2040191,0,2161121,0,0,0,2061180,0,0,0,0,0,0,0,0,0,0
5,354,1346.84931556694,0,0,517667.008437143,517668.055550386,0,30,15,1,0,1,7,9430453,8501232,0,2311081,-4160191,0,0,2200181,0,0,0,0,3070081,3170091,2151111,3180030,0,0,0,0,0,0,0,0,0,0,0,0,0,0,0,1200021,0,1111060,0,0,0,0,0,0
5,355,825.814197713044,1,0,517670.51441484,517671.561443006,0,30,15,1,1,30,3,0,0,7201240,5082211,0,0,0,0,0,0,0,0,0,0,0,0,0,0,0,0,0,0,0,0,0,0,3040080,4161160,0,0,0,0,0,-4041191,0,1041020,0,0,0,0
5,356,992.719284549821,1,0,517673.514423309,517674.5615123,0,30,15,0,1,25,7,7140240,5071151,4292331,3160040,0,0,0,0,0,4110060,0,3030180,0,4051101,0,0,0,0,0,1020050,0,0,0,1080181,0,0,0,0,-1131020,0,2081130,0,0,0,0,3160040,0,0,0,0
5,357,712.0081356843,0,0,517676.632111717,517677.67917838,0,30,15,0,0,36,7,6161232,7231232,0,10423462,0,3140041,0,0,0,0,3021191,0,0,0,0,3110031,0,0,4121201,0,0,0,0,0,0,0,0,0,0,0,0,0,2021160,4111120,0,0,0,2121141,0,-2170041
5,358,884.743093687575,1,0,517679.573351435,517680.620459674,0,30,15,1,1,26,7,10322252,0,9221363,5351222,3061010,0,0,3171091,0,4090151,0,0,0,0,0,0,0,0,0,0,0,0,0,0,0,4120181,0,0,0,-3010041,2091141,0,0,1160061,0,0,0,0,4191161,0
5,359,677.022748859599,1,0,517682.691019825,517683.738093802,0,30,15,0,1,4,3,2200171,7451231,0,0,0,0,0,-2200171,0,0,0,0,0,0,0,3190081,0,0,0,2091040,2170110,0,0,0,0,0,0,0,0,0,0,0,0,0,0,0,0,0,0,0
5,360,746.670539025217,0,0,517685.502827855,517686.549905682,0,30,15,0,0,35,3,3060081,4161190,0,4211171,0,0,0,0,0,0,0,3060081,0,0,0,4161190,0,0,0,0,0,0,0,0,0,0,0,0,0,0,0,0,0,0,0,3050130,0,0,-1161041,0
5,361,518.427076458465,1,0,517691.714688471,517692.76174551,0,30,16,0,1,3,3,5140191,3051242,0,0,0,0,-3020140,0,0,0,0,0,2120051,0,0,0,0,0,0,2041101,1010141,0,0,0,0,0,0,0,0,0,0,0,0,0,0,0,0,0,0,0
5,362,1226.70099727111,0,0,517694.432374723,517695.479444851,0,30,16,0,0,4,7,16910713,1060121,2120100,0,2190070,4200031,4150120,-3120201,0,2200181,0,1050110,0,0,0,0,0,0,0,0,0,1060121,0,0,0,0,0,0,0,0,2120100,0,0,0,0,0,0,0,0,0
5,363,924.083945574239,1,0,517697.80889263,517698.855963913,0,30,16,1,1,26,7,10322252,0,9221363,5351222,3061010,0,0,3171091,0,4090151,0,0,0,0,0,0,0,0,0,0,0,0,0,0,0,4120181,0,0,0,-3010041,2091141,0,0,1160061,0,0,0,0,4191161,0
5,364,686.183315119706,1,0,517700.867763782,517701.914831215,0,30,16,1,1,11,7,2161131,9371301,4313352,2181151,0,0,0,0,0,0,2161131,0,0,0,-2140080,0,3170031,0,0,0,0,4061190,2071061,1101181,0,0,0,0,0,0,1141110,0,0,0,2181151,0,0,0,0,0
5,365,771.819750487339,0,0,517703.691338574,517704.738422945,0,30,16,0,0,12,3,0,3041131,5331151,1201040,0,0,0,0,0,0,0,0,0,0,0,-3041131,0,0,0,0,0,0,0,0,1181021,0,0,0,0,4150130,0,0,0,0,0,0,0,0,1201040,0
5,366,893.716953170951,0,0,517706.585498925,517707.632562123,0,30,16,1,0,19,3,4121011,3111111,4041200,3190081,4121011,0,0,0,0,0,0,0,0,0,0,3111111,0,0,0,0,0,0,-4041200,0,0,0,0,0,0,0,0,0,0,0,0,3190081,0,0,0,0
5,367,850.040269258898,1,0,517709.667890896,517710.714958329,0,30,16,1,1,31,3,0,6281182,2131051,2151120,0,0,0,0,0,0,0,0,0,0,0,3110171,0,0,3171011,0,0,0,0,2131051,0,0,0,0,0,0,0,0,0,0,-2151120,0,0,0,0,0
5,368,601.414200267755,1,0,517712.738522651,517713.785596628,0,30,16,0,1,18,3,7181262,2191021,0,3121130,0,0,0,0,0,3171061,0,0,4010201,0,0,0,0,0,0,0,0,-2191021,0,0,0,0,0,0,0,0,0,0,0,3121130,0,0,0,0,0,0
5,369,1048.57310041552,1,0,517715.503278261,517716.550348389,0,30,16,0,1,33,3,0,6190262,0,4181230,0,0,0,0,0,0,0,0,0,0,0,0,2150121,0,0,0,4040141,0,0,0,0,0,0,0,0,0,0,0,0,0,0,0,-1141050,0,0,3040180
5,370,1710.79781377921,0,0,517718.668030638,517719.715100766,0,30,16,0,0,6,7,8402333,3120091,1070010,6281311,0,3161201,0,0,0,-4181061,1060071,0,0,0,0,0,0,0,3120091,0,0,0,1070010,0,0,0,0,0,0,0,0,0,3091200,0,0,0,0,2110091,1080020,0
5,371,777.879444241989,1,0,517722.573970839,517723.621082928,0,30,16,1,1,7,3,4261221,0,3090131,4040090,2060181,0,0,0,0,0,-2201040,0,0,0,0,0,0,0,0,0,0,0,0,0,0,0,3090131,0,0,0,0,0,0,0,0,0,0,0,0,4040090
5,372,514.993981400039,1,0,517725.479898722,517726.526948447,0,30,16,1,1,16,3,1170091,4110061,1140040,2181160,0,0,0,0,0,0,0,1170091,0,0,0,0,0,0,0,-4110061,0,0,0,0,0,1140040,0,0,0,0,0,0,0,0,0,0,2181160,0,0,0
5,373,577.33710919274,0,0,517728.150521391,517729.197593829,0,30,16,0,0,24,3,4010090,1070140,6230231,0,0,0,0,0,0,0,0,4010090,0,0,0,0,1070140,0,0,0,0,0,0,0,0,4070080,0,-2160151,0,0,0,0,0,0,0,0,0,0,0,0
5,374,1031.15239500767,1,0,517730.79761554,517731.844690673,0,30,16,0,1,36,7,4130170,7392221,4191171,7493331,4130170,0,0,0,0,0,0,0,0,0,3170010,0,0,2051180,0,2171031,0,0,0,0,0,0,0,4191171,0,0,0,0,0,2141030,2181120,0,0,0,0,-3171181
5,375,555.470857420005,0,0,517734.05649162,517735.103557513,0,30,16,0,0,29,3,0,4150021,2121191,3030131,0,0,0,0,0,0,0,0,0,0,0,4150021,0,0,0,0,0,0,0,0,1081021,0,0,1040170,0,0,0,0,-3030131,0,0,0,0,0,0,0
5,376,437.009829562157,1,0,517736.785946944,517737.833010912,0,30,16,1,1,28,7,8403452,10271492,0,5322331,2171161,0,0,0,0,0,3081201,3151090,0,0,0,3090131,4071160,0,3110201,0,0,0,0,0,0,0,0,0,0,0,0,-3171180,0,0,2151151,0,0,0,0,0
5,377,687.10337538505,1,0,517739.397744272,517740.4448144,0,30,16,1,1,30,3,0,0,7201240,5082211,0,0,0,0,0,0,0,0,0,0,0,0,0,0,0,0,0,0,0,0,0,0,3040080,4161160,0,0,0,0,0,-4041191,0,1041020,0,0,0,0
5,378,1382.91529199341,1,0,517742.19778862,517743.244852588,0,30,16,0,1,25,7,3121171,2121111,3271142,7230392,0,2071091,0,0,0,0,0,0,1050080,0,0,0,0,0,2121111,0,0,0,0,0,2191121,0,0,0,-1080021,0,0,0,0,0,0,2030141,3110141,0,0,2090110
5,379,596.298049378674,0,0,517745.809610585,517746.856675324,0,30,16,0,0,9,7,6372141,12260433,4232202,0,4181111,0,0,0,0,0,0,0,-2191030,3070131,0,0,0,0,0,4110170,2020061,3060071,0,1191051,0,0,0,0,0,0,3041151,0,0,0,0,0,0,0,0,0
5,380,647.671287355479,0,0,517748.644936741,517749.692058069,0,30,16,1,0,34,7,10251291,4241151,3321350,1141180,4061050,0,2040040,0,4150201,0,0,0,0,0,0,1091071,0,0,3150080,0,0,0,0,2201180,1120170,0,0,0,0,0,0,0,0,0,0,0,0,-1141180,0,0
5,381,900.24437638931,1,0,517751.409688887,517752.456757475,0,30,16,0,1,35,7,4251222,6282302,9191331,4010061,0,0,3190151,0,0,0,0,1061071,0,0,4141171,0,2141131,0,0,0,0,0,2160111,0,0,0,0,0,0,3011130,4020090,0,0,0,0,0,0,0,-4010061,0
5,382,482.78147901874,0,0,517754.550921598,517755.597983257,0,30,16,1,0,14,3,1161030,1031130,3141071,2180080,0,0,0,0,0,1161030,0,0,0,0,0,0,0,-1031130,0,0,0,0,0,0,0,3141071,0,0,0,0,0,0,0,0,0,0,0,0,0,2180080
5,383,1364.71580754733,0,0,517757.150955244,517758.198021907,0,30,16,1,0,13,7,6331270,4131232,6262492,0,1180120,3060140,0,0,0,0,0,0,2091010,0,0,0,-1050061,0,3081171,0,0,0,0,2040191,0,2161121,0,0,0,2061180,0,0,0,0,0,0,0,0,0,0
5,384,1367.51948896563,0,0,517760.598067178,517761.645119213,0,30,16,1,0,1,7,9430453,8501232,0,2311081,-4160191,0,0,2200181,0,0,0,0,3070081,3170091,2151111,3180030,0,0,0,0,0,0,0,0,0,0,0,0,0,0,0,1200021,0,1111060,0,0,0,0,0,0
5,385,1124.31831069989,1,0,517767.292279576,517768.339347779,0,30,17,0,1,36,3,3110130,3071151,0,5280301,0,0,0,3110130,0,0,0,0,0,0,0,0,0,0,0,3071151,0,0,0,0,0,0,0,0,0,0,0,0,0,3080160,0,0,0,0,0,-2200141
5,386,500.742671778426,0,0,517770.551149881,517771.598225013,0,30,17,0,0,9,3,4251300,2101120,0,3090081,0,0,0,0,2191150,0,0,0,-2060150,2101120,0,0,0,0,0,0,0,0,0,0,0,0,0,0,0,0,0,0,0,0,0,0,3090081,0,0,0
5,387,688.189739419613,0,0,517773.233547396,517774.280613289,0,30,17,1,0,34,7,10251291,4241151,3321350,1141180,4061050,0,2040040,0,4150201,0,0,0,0,0,0,1091071,0,0,3150080,0,0,0,0,2201180,1120170,0,0,0,0,0,0,0,0,0,0,0,0,-1141180,0,0
5,388,517.953572620172,1,0,517775.98653124,517777.033593283,0,30,17,0,1,29,7,4121160,5111140,3290270,6322350,0,0,0,4121160,0,0,0,0,0,0,0,4020060,0,0,1091080,0,0,0,0,0,0,0,1150140,0,0,0,2140130,1040050,-4161140,1121160,0,0,0,0,0,0
5,389,812.505661160685,0,0,517778.657157758,517779.704226731,0,30,17,1,0,11,7,2161131,9371301,4313352,2181151,0,0,0,0,0,0,2161131,0,0,0,-2140080,0,3170031,0,0,0,0,4061190,2071061,1101181,0,0,0,0,0,0,1141110,0,0,0,2181151,0,0,0,0,0
5,390,582.804730802309,1,0,517781.621903668,517782.668978415,0,30,17,1,1,19,3,4121011,3111111,4041200,3190081,4121011,0,0,0,0,0,0,0,0,0,0,3111111,0,0,0,0,0,0,-4041200,0,0,0,0,0,0,0,0,0,0,0,0,3190081,0,0,0,0
5,391,731.643915059976,1,0,517784.374884817,517785.42195225,0,30,17,0,1,35,3,1071181,3031120,3170021,4201100,0,0,0,1071181,0,0,0,0,0,0,0,0,0,0,0,0,3031120,0,0,0,0,3170021,0,0,0,0,0,0,0,0,0,0,0,0,-4201100,0
5,392,650.649741815869,1,0,517787.269044013,517788.316109906,0,30,17,1,1,28,7,8403452,10271492,0,5322331,2171161,0,0,0,0,0,3081201,3151090,0,0,0,3090131,4071160,0,3110201,0,0,0,0,0,0,0,0,0,0,0,0,-3171180,0,0,2151151,0,0,0,0,0
5,393,442.899369925726,0,0,517789.998503572,517791.045572545,0,30,17,1,0,7,3,4261221,0,3090131,4040090,2060181,0,0,0,0,0,-2201040,0,0,0,0,0,0,0,0,0,0,0,0,0,0,0,3090131,0,0,0,0,0,0,0,0,0,0,0,0,4040090
5,394,1094.96723423945,1,0,517792.64566047,517793.692673239,0,30,17,0,1,24,7,7312351,3190051,5070031,5020272,3101110,0,1071100,3140141,0,0,0,0,0,0,0,0,0,0,0,0,0,3190051,0,2010020,0,0,0,-3060011,0,0,0,0,0,4010101,0,0,0,0,1010171,0
5,395,744.652180932462,1,0,517795.833884777,517796.88095452,0,30,17,1,1,31,3,0,6281182,2131051,2151120,0,0,0,0,0,0,0,0,0,0,0,3110171,0,0,3171011,0,0,0,0,2131051,0,0,0,0,0,0,0,0,0,0,-2151120,0,0,0,0,0
5,396,600.808728253469,0,0,517798.833912109,517799.880793532,0,30,17,1,0,26,7,10322252,0,9221363,5351222,3061010,0,0,3171091,0,4090151,0,0,0,0,0,0,0,0,0,0,0,0,0,0,0,4120181,0,0,0,-3010041,2091141,0,0,1160061,0,0,0,0,4191161,0
5,397,1536.98149626143,0,0,517801.610432942,517802.65750153,0,30,17,0,0,33,7,0,10210443,8441590,3081121,0,0,0,0,0,0,0,0,0,3030091,0,4070191,0,0,0,3110161,0,0,0,0,1140110,2050100,0,0,0,3060190,2191190,0,0,0,0,0,-3081121,0,0,0
5,398,955.646246380638,0,0,517805.304636485,517806.351718932,0,30,17,1,0,13,7,6331270,4131232,6262492,0,1180120,3060140,0,0,0,0,0,0,2091010,0,0,0,-1050061,0,3081171,0,0,0,0,2040191,0,2161121,0,0,0,2061180,0,0,0,0,0,0,0,0,0,0
5,399,1516.66125375777,0,0,517808.457595153,517809.504695693,0,30,17,0,0,4,7,5220381,10411362,4011050,6120240,0,0,0,-2140181,3080200,0,0,0,0,3080201,3200070,0,0,0,0,4131091,0,0,0,0,0,0,0,4011050,0,0,0,0,0,0,2020060,4100180,0,0,0,0
5,400,550.437473517377,1,0,517812.198832253,517813.245902381,0,30,17,1,1,30,3,0,0,7201240,5082211,0,0,0,0,0,0,0,0,0,0,0,0,0,0,0,0,0,0,0,0,0,0,3040080,4161160,0,0,0,0,0,-4041191,0,1041020,0,0,0,0
5,401,1036.54148417991,0,0,517814.845931792,517815.89299422,0,30,17,1,0,1,7,9430453,8501232,0,2311081,-4160191,0,0,2200181,0,0,0,0,3070081,3170091,2151111,3180030,0,0,0,0,0,0,0,0,0,0,0,0,0,0,0,1200021,0,1111060,0,0,0,0,0,0
5,402,532.945165061392,1,0,517817.975388887,517819.02250521,0,30,17,0,1,18,3,0,2040051,0,8361262,0,0,0,0,0,0,0,0,0,0,0,0,0,0,0,0,0,-2040051,0,0,0,0,0,0,0,0,0,2100011,0,0,2180130,4081121,0,0,0,0
5,403,2077.4960987037,0,0,517820.610731673,517821.657795256,0,30,17,0,0,6,7,7380242,4201110,0,10432381,1110091,0,0,0,0,-4100100,0,0,2170051,0,0,0,4201110,0,0,0,0,0,0,0,0,0,0,0,0,0,0,0,0,1131140,4160180,0,0,0,1081020,4060041
5,404,1282.96518308343,0,0,517824.928485448,517825.975518234,0,30,17,0,0,3,7,4241381,9241343,1071091,3201190,0,0,-2200181,0,2041200,0,0,0,0,0,4010171,0,2111021,0,0,0,0,3120151,1071091,0,0,0,0,0,0,0,0,0,2100090,1101100,0,0,0,0,0,0
5,405,1125.78809726983,0,0,517828.328484909,517829.375555422,0,30,17,0,0,25,3,1191050,7302311,2130160,0,0,0,0,0,1191050,0,0,0,0,0,3181201,0,4121110,0,0,0,0,0,0,0,0,0,0,0,-2130160,0,0,0,0,0,0,0,0,0,0,0
5,406,1103.29397179885,1,0,517831.563808601,517832.610901826,0,30,17,0,1,12,3,4021130,3121111,4141251,0,0,0,0,4021130,0,0,0,0,0,0,0,-3121111,0,0,0,0,0,0,0,0,0,0,3131201,0,1010050,0,0,0,0,0,0,0,0,0,0,0
5,407,688.506563485134,1,0,517834.77563611,517835.822722406,0,30,17,1,1,14,3,1161030,1031130,3141071,2180080,0,0,0,0,0,1161030,0,0,0,0,0,0,0,-1031130,0,0,0,0,0,0,0,3141071,0,0,0,0,0,0,0,0,0,0,0,0,0,2180080
5,408,485.148998035584,1,0,517837.552139234,517838.599211672,0,30,17,1,1,16,3,1170091,4110061,1140040,2181160,0,0,0,0,0,0,0,1170091,0,0,0,0,0,0,0,-4110061,0,0,0,0,0,1140040,0,0,0,0,0,0,0,0,0,0,2181160,0,0,0
5,409,548.155031225178,0,0,517843.25810877,517844.305177358,0,30,18,1,0,19,3,4121011,3111111,4041200,3190081,4121011,0,0,0,0,0,0,0,0,0,0,3111111,0,0,0,0,0,0,-4041200,0,0,0,0,0,0,0,0,0,0,0,0,3190081,0,0,0,0
5,410,2065.5476343818,1,0,517845.987572178,517847.034637302,0,30,18,0,1,35,7,4221081,4301161,6181170,2341172,0,0,0,0,3171071,0,0,0,1050010,0,0,0,0,3171010,0,0,0,1130151,4091020,0,0,0,0,2090150,0,0,0,1200091,0,0,0,0,0,0,-1141081,0
5,411,1598.76103908755,0,0,517850.305328263,517851.352352195,0,30,18,1,0,1,7,9430453,8501232,0,2311081,-4160191,0,0,2200181,0,0,0,0,3070081,3170091,2151111,3180030,0,0,0,0,0,0,0,0,0,0,0,0,0,0,0,1200021,0,1111060,0,0,0,0,0,0
5,412,887.035160034429,1,0,517854.022984103,517855.070044607,0,30,18,0,1,6,3,6271241,3302201,0,0,0,0,0,0,3100091,-3171150,0,0,0,1101030,0,2201171,0,0,0,0,0,0,0,0,0,0,0,0,0,0,0,0,0,0,0,0,0,0,0,0
5,413,708.381789445411,0,0,517857.093615088,517858.140680981,0,30,18,0,0,9,7,4040081,8092260,6081262,9292371,0,0,0,0,0,0,0,0,-4040081,0,0,4081150,0,4011110,0,0,0,0,4021191,0,0,0,0,0,0,2060071,0,4170040,0,0,0,0,0,1071201,0,4051130
5,414,560.891128669027,1,0,517860.011310887,517861.058373316,0,30,18,1,1,7,3,4261221,0,3090131,4040090,2060181,0,0,0,0,0,-2201040,0,0,0,0,0,0,0,0,0,0,0,0,0,0,0,3090131,0,0,0,0,0,0,0,0,0,0,0,0,4040090
5,415,1216.08411800116,1,0,517862.670231468,517863.717238077,0,30,18,0,1,33,7,0,1020050,9182333,5503223,0,0,0,0,0,0,0,0,0,0,1020050,0,0,0,0,0,0,0,0,4100131,0,0,0,0,2031061,3051141,0,0,0,1190011,0,0,-1031121,0,1201031,2081060
5,416,1313.84956504917,1,0,517865.976104147,517867.0231685,0,30,18,0,1,3,7,6200241,4101241,5280150,8142191,0,0,-4150040,0,0,0,0,2050201,0,0,0,0,0,1051151,0,0,0,3050090,0,1200060,0,0,0,0,0,4080090,0,4091150,4051041,0,0,0,0,0,0,0
5,417,582.012863073032,0,0,517869.482034494,517870.529096922,0,30,18,1,0,16,3,1170091,4110061,1140040,2181160,0,0,0,0,0,0,0,1170091,0,0,0,0,0,0,0,-4110061,0,0,0,0,0,1140040,0,0,0,0,0,0,0,0,0,0,2181160,0,0,0
5,418,929.94422884658,1,0,517872.187957449,517873.235026422,0,30,18,1,1,28,7,8403452,10271492,0,5322331,2171161,0,0,0,0,0,3081201,3151090,0,0,0,3090131,4071160,0,3110201,0,0,0,0,0,0,0,0,0,0,0,0,-3171180,0,0,2151151,0,0,0,0,0
5,419,1008.15396872349,1,0,517875.24682937,517876.293887949,0,30,18,1,1,11,7,2161131,9371301,4313352,2181151,0,0,0,0,0,0,2161131,0,0,0,-2140080,0,3170031,0,0,0,0,4061190,2071061,1101181,0,0,0,0,0,0,1141110,0,0,0,2181151,0,0,0,0,0
5,420,583.536929334514,1,0,517878.411583287,517879.458651875,0,30,18,0,1,12,7,5092181,3141050,9190411,2251172,0,0,0,0,0,4031080,0,1061101,0,0,0,-3141050,0,0,0,0,0,0,0,0,0,4060140,0,1090161,0,4040110,0,0,0,0,1150011,1101161,0,0,0,0
5,421,965.733032266144,0,0,517881.188136456,517882.235167703,0,30,18,0,0,18,3,4201141,2181030,2201030,3170120,4201141,0,0,0,0,0,0,0,0,0,0,0,0,0,0,0,0,-2181030,0,0,0,0,2201030,0,0,0,0,0,0,3170120,0,0,0,0,0,0
5,422,527.842872892506,1,0,517884.246960257,517885.294089284,0,30,18,0,1,24,3,0,0,7352231,6161252,0,0,0,0,0,0,0,0,0,0,0,0,0,0,0,0,0,0,4171170,0,0,0,0,-3181061,0,0,0,2091081,0,0,4070171,0,0,0,0,0
5,423,739.395518787205,0,0,517887.011714328,517888.058774447,0,30,18,0,0,25,3,0,4061240,4110201,0,0,0,0,0,0,0,0,0,0,0,0,2021070,2040170,0,0,0,0,0,0,3060131,0,0,0,0,-1050070,0,0,0,0,0,0,0,0,0,0,0
5,424,1181.2785086222,0,0,517889.823517738,517890.870581707,0,30,18,1,0,13,7,6331270,4131232,6262492,0,1180120,3060140,0,0,0,0,0,0,2091010,0,0,0,-1050061,0,3081171,0,0,0,0,2040191,0,2161121,0,0,0,2061180,0,0,0,0,0,0,0,0,0,0
5,425,1299.19712449191,0,0,517893.070623591,517894.117694489,0,30,18,1,0,34,7,10251291,4241151,3321350,1141180,4061050,0,2040040,0,4150201,0,0,0,0,0,0,1091071,0,0,3150080,0,0,0,0,2201180,1120170,0,0,0,0,0,0,0,0,0,0,0,0,-1141180,0,0
5,426,516.96883875411,0,0,517896.553034272,517897.60015098,0,30,18,1,0,14,3,1161030,1031130,3141071,2180080,0,0,0,0,0,1161030,0,0,0,0,0,0,0,-1031130,0,0,0,0,0,0,0,3141071,0,0,0,0,0,0,0,0,0,0,0,0,0,2180080
5,427,793.87732851319,1,0,517899.258952607,517900.306019271,0,30,18,1,1,26,7,10322252,0,9221363,5351222,3061010,0,0,3171091,0,4090151,0,0,0,0,0,0,0,0,0,0,0,0,0,0,0,4120181,0,0,0,-3010041,2091141,0,0,1160061,0,0,0,0,4191161,0
5,428,948.066720797215,1,0,517902.211939454,517903.259009197,0,30,18,0,1,4,7,9192441,4301161,3081021,8280340,0,0,3031080,-2030190,0,0,4131171,0,0,0,0,0,0,0,3191121,0,0,1110040,0,3081021,0,0,0,0,0,0,0,0,4110140,0,0,4170200,0,0,0,0
5,429,788.16795052262,0,0,517905.235516479,517906.282578522,0,30,18,1,0,30,3,0,0,7201240,5082211,0,0,0,0,0,0,0,0,0,0,0,0,0,0,0,0,0,0,0,0,0,0,3040080,4161160,0,0,0,0,0,-4041191,0,1041020,0,0,0,0
5,430,698.658023087773,0,0,517908.212025301,517909.259091964,0,30,18,0,0,36,3,0,4080021,2051020,6131190,0,0,0,0,0,0,0,0,0,0,0,0,0,0,0,0,4080021,0,2051020,0,0,0,0,0,0,0,0,0,0,0,0,0,0,3030140,0,-3101050
5,431,938.556993554812,1,0,517911.106197585,517912.153267713,0,30,18,1,1,31,3,0,6281182,2131051,2151120,0,0,0,0,0,0,0,0,0,0,0,3110171,0,0,3171011,0,0,0,0,2131051,0,0,0,0,0,0,0,0,0,0,-2151120,0,0,0,0,0
5,432,680.552469508257,0,0,517914.259165877,517915.306243704,0,30,18,0,0,29,3,4101130,4151051,4070120,2151090,0,0,0,0,0,4101130,0,0,0,0,0,0,4151051,0,0,0,0,0,0,0,0,0,0,0,4070120,0,0,0,-2151090,0,0,0,0,0,0,0
5,433,863.845792424399,1,0,517933.294810319,517934.341825782,0,30,19,0,1,36,3,4151020,4190111,2010011,1140060,0,0,4151020,0,0,0,0,0,0,0,4190111,0,0,0,0,0,0,0,0,0,0,0,2010011,0,0,0,0,0,0,0,0,0,0,0,0,-1140060
5,434,1327.5884896284,1,0,517936.377151476,517937.42420967,0,30,19,1,1,1,7,9430453,8501232,0,2311081,-4160191,0,0,2200181,0,0,0,0,3070081,3170091,2151111,3180030,0,0,0,0,0,0,0,0,0,0,0,0,0,0,0,1200021,0,1111060,0,0,0,0,0,0
5,435,843.206416000612,1,0,517939.871321605,517940.918391348,0,30,19,0,1,29,3,0,5320331,3180061,4141010,0,0,0,0,0,0,0,0,0,0,0,4170191,0,1150140,0,0,0,0,0,0,0,0,0,0,0,3180061,0,0,-4141010,0,0,0,0,0,0,0
5,436,977.102223667316,0,0,517942.859605273,517943.906464731,0,30,19,0,0,6,7,12382270,7482361,1020200,3010010,0,0,4011050,0,0,-4191050,0,0,4180170,0,0,0,0,2111050,0,0,4181110,1190201,1020200,0,0,0,0,0,0,0,0,0,0,0,0,0,0,0,3010010,0
5,437,1103.83715387434,0,0,517946.000827975,517947.047887709,0,30,19,0,0,3,7,5162292,3150101,9442202,3141070,0,4021091,-1141201,0,0,0,0,0,0,0,0,0,2090041,1060060,0,0,0,0,0,4101060,0,0,0,2200101,0,3141041,0,0,3141070,0,0,0,0,0,0,0
5,438,644.124628393911,0,0,517949.165578042,517950.2126474,0,30,19,1,0,30,3,0,0,7201240,5082211,0,0,0,0,0,0,0,0,0,0,0,0,0,0,0,0,0,0,0,0,0,0,3040080,4161160,0,0,0,0,0,-4041191,0,1041020,0,0,0,0
5,439,634.462456044275,1,0,517951.98914321,517953.036218342,0,30,19,0,1,4,3,2060170,4150071,0,5201272,0,0,0,-2060170,0,0,0,0,0,0,0,0,0,4150071,0,0,0,0,0,0,0,0,0,0,0,0,0,0,0,0,1060181,0,0,0,0,4141091
5,440,852.950585307553,1,0,517954.765700229,517955.812731476,0,30,19,0,1,35,7,4260331,0,10441492,7170241,3110180,0,1150151,0,0,0,0,0,0,0,0,0,0,0,0,0,0,0,3070161,0,3150121,0,3061140,0,1160070,0,0,0,0,0,0,0,0,0,-4130061,3040180
5,441,1063.01727623213,0,0,517957.683346753,517958.730414572,0,30,19,0,0,12,7,2061150,9443363,9292291,1011060,0,0,0,0,0,0,0,2061150,0,3191121,0,-4071081,2181161,0,0,0,0,0,4161120,0,0,0,0,0,4011070,0,1120101,0,0,1011060,0,0,0,0,0,0
5,442,600.67545727361,0,0,517960.95398382,517962.001056258,0,30,19,1,0,16,3,1170091,4110061,1140040,2181160,0,0,0,0,0,0,0,1170091,0,0,0,0,0,0,0,-4110061,0,0,0,0,0,1140040,0,0,0,0,0,0,0,0,0,0,2181160,0,0,0
5,443,884.046311664861,0,0,517963.78931883,517964.836394732,0,30,19,1,0,31,3,0,6281182,2131051,2151120,0,0,0,0,0,0,0,0,0,0,0,3110171,0,0,3171011,0,0,0,0,2131051,0,0,0,0,0,0,0,0,0,0,-2151120,0,0,0,0,0
5,444,491.302622715011,0,0,517966.742297977,517967.78936772,0,30,19,1,0,14,3,1161030,1031130,3141071,2180080,0,0,0,0,0,1161030,0,0,0,0,0,0,0,-1031130,0,0,0,0,0,0,0,3141071,0,0,0,0,0,0,0,0,0,0,0,0,0,2180080
5,445,625.508229597472,0,0,517969.318813882,517970.36588709,0,30,19,1,0,11,7,2161131,9371301,4313352,2181151,0,0,0,0,0,0,2161131,0,0,0,-2140080,0,3170031,0,0,0,0,4061190,2071061,1101181,0,0,0,0,0,0,1141110,0,0,0,2181151,0,0,0,0,0
5,446,1848.73563150177,0,0,517972.11886131,517973.165929128,0,30,19,1,0,34,7,10251291,4241151,3321350,1141180,4061050,0,2040040,0,4150201,0,0,0,0,0,0,1091071,0,0,3150080,0,0,0,0,2201180,1120170,0,0,0,0,0,0,0,0,0,0,0,0,-1141180,0,0
5,447,582.567978883162,1,0,517976.177738236,517977.224809518,0,30,19,0,1,9,3,4192391,0,3061201,2070081,0,1051191,0,0,0,0,0,0,-3141200,0,0,0,0,0,0,0,0,0,0,3061201,0,0,0,0,0,0,0,0,0,0,0,0,0,2070081,0,0
5,448,1196.48337026592,1,0,517979.013081715,517980.060146838,0,30,19,0,1,33,7,2151081,6162061,12593621,4150141,0,0,0,0,2151081,0,0,0,0,2011020,0,0,0,0,4151041,0,0,0,0,0,4101190,0,3201190,3180130,0,2111111,0,0,0,0,0,0,-4150141,0,0,0
5,449,609.888378472533,1,0,517982.401360609,517983.448429197,0,30,19,1,1,19,3,4121011,3111111,4041200,3190081,4121011,0,0,0,0,0,0,0,0,0,0,3111111,0,0,0,0,0,0,-4041200,0,0,0,0,0,0,0,0,0,0,0,0,3190081,0,0,0,0
5,450,3379.92490368197,0,0,517985.248512811,517986.295535973,0,30,19,1,0,28,7,8403452,10271492,0,5322331,2171161,0,0,0,0,0,3081201,3151090,0,0,0,3090131,4071160,0,3110201,0,0,0,0,0,0,0,0,0,0,0,0,-3171180,0,0,2151151,0,0,0,0,0
5,451,770.706054114271,0,0,517990.789736129,517991.836787394,0,30,19,1,0,26,7,10322252,0,9221363,5351222,3061010,0,0,3171091,0,4090151,0,0,0,0,0,0,0,0,0,0,0,0,0,0,0,4120181,0,0,0,-3010041,2091141,0,0,1160061,0,0,0,0,4191161,0
5,452,903.342169127427,1,0,517993.636816343,517994.68389109,0,30,19,0,1,18,3,7180141,5282161,0,0,3160120,0,0,0,0,0,0,4020021,0,0,0,0,0,1121111,0,0,0,-4161050,0,0,0,0,0,0,0,0,0,0,0,0,0,0,0,0,0,0
5,453,907.79464476509,1,0,517996.766284217,517997.81340901,0,30,19,1,1,13,7,6331270,4131232,6262492,0,1180120,3060140,0,0,0,0,0,0,2091010,0,0,0,-1050061,0,3081171,0,0,0,0,2040191,0,2161121,0,0,0,2061180,0,0,0,0,0,0,0,0,0,0
5,454,915.455397334881,1,0,517999.895739003,518000.942814135,0,30,19,0,1,25,7,2150181,5281243,7191081,7270162,0,0,0,0,0,0,0,2150181,0,0,0,1140081,0,2071041,0,0,2070121,0,0,0,4051041,0,0,0,-3140040,0,0,0,0,3070111,4200051,0,0,0,0,0
5,455,1131.99215201894,0,0,518002.978138289,518004.025205722,0,30,19,0,0,24,3,0,0,6252141,1191090,0,0,0,0,0,0,0,0,0,0,0,0,0,0,0,0,0,0,0,0,0,0,2151010,-1041081,0,3060050,0,0,0,0,0,1191090,0,0,0,0
5,456,1304.18200325221,1,0,518006.237011673,518007.284085265,0,30,19,1,1,7,3,4261221,0,3090131,4040090,2060181,0,0,0,0,0,-2201040,0,0,0,0,0,0,0,0,0,0,0,0,0,0,0,3090131,0,0,0,0,0,0,0,0,0,0,0,0,4040090
5,457,587.499732733704,0,0,518013.554764678,518014.601836346,0,30,20,0,0,3,3,1040051,6272341,3141051,0,0,0,-1040051,0,0,0,0,0,0,0,4191191,0,0,0,0,0,0,2081150,0,3141051,0,0,0,0,0,0,0,0,0,0,0,0,0,0,0,0
5,458,549.378826806787,1,0,518016.248923181,518017.295992924,0,30,20,0,1,4,3,6211271,3181020,1180060,0,0,0,0,-4190141,0,0,0,2021130,0,0,0,0,0,0,0,0,0,3181020,0,0,0,0,1180060,0,0,0,0,0,0,0,0,0,0,0,0,0
5,459,800.730044953525,1,0,518018.97837812,518020.025442474,0,30,20,1,1,31,3,0,6281182,2131051,2151120,0,0,0,0,0,0,0,0,0,0,0,3110171,0,0,3171011,0,0,0,0,2131051,0,0,0,0,0,0,0,0,0,0,-2151120,0,0,0,0,0
5,460,932.688626111485,1,0,518022.025485974,518023.072548788,0,30,20,0,1,9,7,8391382,4161050,1151191,9342362,0,0,0,3110060,2200151,0,0,0,-3081171,0,0,0,0,0,0,4161050,0,0,0,0,0,0,0,0,1151191,0,0,0,0,0,0,0,2111120,0,3100181,4131061
5,461,651.853519375436,1,0,518025.037288153,518026.084389463,0,30,20,1,1,16,3,1170091,4110061,1140040,2181160,0,0,0,0,0,0,0,1170091,0,0,0,0,0,0,0,-4110061,0,0,0,0,0,1140040,0,0,0,0,0,0,0,0,0,0,2181160,0,0,0
5,462,864.740060118493,0,0,518027.790270457,518028.83733712,0,30,20,0,0,12,7,6331100,6111071,1171020,12232321,0,4170050,0,0,2161050,0,0,0,0,0,0,-3091031,0,0,0,0,3020040,0,0,0,0,0,0,1171020,0,0,0,4161121,0,0,0,0,4050190,0,0,4021010
5,463,661.074524745345,1,0,518030.755019446,518031.802089959,0,30,20,0,1,25,3,0,2050181,4151120,3161121,0,0,0,0,0,0,0,0,0,2050181,0,0,0,0,0,0,0,0,0,0,0,2120080,0,0,-2031040,0,0,0,0,0,0,0,0,3161121,0,0
5,464,656.382987450343,0,0,518033.531547208,518034.578615796,0,30,20,1,0,30,3,0,0,7201240,5082211,0,0,0,0,0,0,0,0,0,0,0,0,0,0,0,0,0,0,0,0,0,0,3040080,4161160,0,0,0,0,0,-4041191,0,1041020,0,0,0,0
5,465,1144.24319681711,1,0,518036.425700629,518037.472758439,0,30,20,1,1,13,7,6331270,4131232,6262492,0,1180120,3060140,0,0,0,0,0,0,2091010,0,0,0,-1050061,0,3081171,0,0,0,0,2040191,0,2161121,0,0,0,2061180,0,0,0,0,0,0,0,0,0,0
5,466,857.368029362988,0,0,518039.825745516,518040.872810254,0,30,20,1,0,7,3,4261221,0,3090131,4040090,2060181,0,0,0,0,0,-2201040,0,0,0,0,0,0,0,0,0,0,0,0,0,0,0,3090131,0,0,0,0,0,0,0,0,0,0,0,0,4040090
