sub_id,Trial,RT,Resp,Error,Fix_onset,Disp_onset,q1,q2,block,repeat,tid,tloc,d_setsize,quad1,quad2,quad3,quad4,loc1,loc2,loc3,loc4,loc5,loc6,loc7,loc8,loc9,loc10,loc11,loc12,loc13,loc14,loc15,loc16,loc17,loc18,loc19,loc20,loc21,loc22,loc23,loc24,loc25,loc26,loc27,loc28,loc29,loc30,loc31,loc32,loc33,loc34,loc35,loc36
6,1,1280.83965694532,1,1,344561.313043467,344562.360073763,0,3,1,1,0,11,7,4050040,3161261,3201371,9360163,0,0,0,4050040,0,0,0,0,0,0,-2151131,0,0,0,0,1010130,0,0,0,0,1140190,0,2061181,0,0,0,0,0,2090031,0,3080041,0,0,4190091,0,0
6,2,1815.19973254763,1,1,344564.677667711,344565.724689922,0,3,1,1,0,7,3,2060150,2020091,0,3201241,0,0,0,0,0,0,-2060150,0,0,2020091,0,0,0,0,0,0,0,0,0,0,0,0,0,0,0,0,0,0,0,1050201,0,0,0,2151040,0,0
6,3,952.465647424106,0,0,344568.642253997,344569.689279288,0,3,1,0,0,18,3,10241401,1051041,0,0,0,0,0,0,0,0,4140040,4021190,2080171,0,0,0,0,0,0,0,0,-1051041,0,0,0,0,0,0,0,0,0,0,0,0,0,0,0,0,0,0
6,4,1592.99064177321,0,0,344571.818643109,344572.865663011,0,3,1,0,0,14,7,5263242,5411481,2030151,2141190,0,0,1121091,3111130,1031021,0,0,0,0,0,0,0,1161170,-1090120,0,0,3160191,0,0,0,0,2030151,0,0,0,0,0,0,0,0,0,0,0,0,0,2141190
6,5,479.380192991812,1,0,344575.583243331,344576.630263618,0,3,1,1,1,16,3,2050110,3311212,0,4090150,2050110,0,0,0,0,0,0,0,0,0,0,0,0,2161161,0,-1150051,0,0,0,0,0,0,0,0,0,0,0,0,4090150,0,0,0,0,0,0,0
6,6,1133.37535638129,1,0,344578.230232205,344579.277249797,0,3,1,0,1,1,7,7131131,4030051,6241263,5150200,-3121031,0,0,0,4010100,0,0,0,0,0,0,0,0,0,4030051,0,0,0,3041071,0,2160041,0,0,0,1040151,0,0,0,1060170,0,0,0,0,0,0,4090030
6,7,1770.07499360479,0,0,344581.512484427,344582.559513183,0,3,1,0,0,35,7,3142212,4190010,7231191,10282202,0,1121151,0,0,0,2021061,0,0,0,0,0,0,4190010,0,0,0,0,0,0,3191141,0,4040050,0,0,0,0,0,0,0,0,0,4061031,0,0,-3170131,3051040
6,8,1090.17041773768,1,0,344585.453556528,344586.50057335,0,3,1,0,1,12,3,4141181,4041241,0,4200130,0,0,0,0,0,0,4141181,0,0,0,0,-1021161,0,3020080,0,0,0,0,0,0,0,0,0,0,0,0,0,0,0,4200130,0,0,0,0,0,0
6,9,3487.06786340335,0,0,344588.653462135,344589.700488582,0,3,1,0,0,9,7,7251411,8072391,0,3070200,0,0,0,0,2021061,2040190,2180140,0,-1010020,1050160,0,4011200,0,0,0,3011031,0,0,0,0,0,0,0,0,0,0,0,0,0,3070200,0,0,0,0,0,0
6,10,1321.29943894688,1,0,344594.359184503,344595.406209409,0,3,1,1,1,24,7,2051131,9403381,4111201,5162342,0,0,2051131,0,0,0,0,0,0,1111141,0,3080020,0,0,0,1191160,0,4021060,0,0,0,0,0,-4111201,0,0,0,3021161,2141181,0,0,0,0,0,0,0
6,11,1106.01079137996,1,0,344597.888541241,344598.935518412,0,3,1,1,1,10,7,4341191,5381262,0,13502471,0,0,0,0,1191141,3150050,0,0,0,-2191201,0,3190061,0,0,0,0,0,0,0,0,0,0,0,0,0,0,0,0,0,0,0,0,2041170,4140150,4170140,3151011
6,12,872.67401907593,0,0,344601.123708888,344602.17072417,0,3,1,1,0,28,7,3181071,2020151,3190172,9422391,0,0,0,0,0,0,3181071,0,0,2020151,0,0,0,0,0,0,0,0,0,0,0,0,0,0,1170101,0,2020071,-3190050,0,0,1070180,0,2131101,0,3031060,0
6,13,800.60047301231,1,0,344604.217737912,344605.264783991,0,3,1,1,1,27,7,4131180,6290241,4040151,8302400,0,0,0,0,4131180,0,0,0,0,0,0,2020010,0,2170080,0,0,2100151,0,0,0,0,0,0,0,0,0,-4040151,0,3160160,2061180,0,3081060,0,0,0,0
6,14,1343.48473913269,1,0,344607.252939128,344608.299962494,0,3,1,0,1,31,7,9361472,0,4222261,6251310,0,3060130,0,0,2161161,4140181,0,0,0,0,0,0,0,0,0,0,0,0,0,2081061,0,0,0,0,0,2141200,0,1070170,0,0,-1010110,0,0,0,0,4171030
6,15,935.933113971259,1,0,344610.72342879,344611.770446767,0,3,1,1,1,33,3,1171060,4260161,0,3130131,0,0,0,0,1171060,0,0,0,0,0,3180020,1080141,0,0,0,0,0,0,0,0,0,0,0,0,0,0,0,0,0,0,0,0,-3130131,0,0,0
6,16,2009.65929741506,0,0,344613.899807894,344614.94683434,0,3,1,0,0,34,7,3222311,6133380,2111102,1110060,0,0,0,1191110,0,0,0,0,2031201,4031090,0,0,0,0,0,1011160,0,1091130,1080041,0,1031061,0,0,0,0,0,0,0,0,0,0,0,0,-1110060,0,0
6,17,1466.05784900021,1,0,344618.076167364,344619.12319304,0,3,1,1,1,8,3,6181050,4110180,0,2101150,0,0,0,0,2061030,0,0,-4120020,0,0,0,0,0,0,0,0,0,4110180,0,0,0,0,0,0,0,0,0,0,0,0,0,2101150,0,0,0,0
6,18,1055.96086190781,0,0,344621.664301481,344622.711323693,0,3,1,0,0,5,3,6302322,0,1191151,0,0,1031131,0,0,-3170091,0,0,0,2101100,0,0,0,0,0,0,0,0,0,0,0,0,0,0,1191151,0,0,0,0,0,0,0,0,0,0,0,0
6,19,1486.30949028302,0,0,344624.781862399,344625.828884226,0,3,1,0,0,17,3,4180110,8162191,0,4161100,0,0,0,4180110,0,0,0,0,0,0,0,0,0,0,0,0,-4051101,4111090,0,0,0,0,0,0,0,0,0,0,0,0,0,0,0,0,4161100,0
6,20,1239.63074100902,1,0,344628.334702911,344629.381719348,0,3,1,0,1,36,3,0,8202482,0,1171170,0,0,0,0,0,0,0,0,0,0,4051151,0,0,0,1070161,0,3081170,0,0,0,0,0,0,0,0,0,0,0,0,0,0,0,0,0,0,-1171170
6,21,1302.99108062172,0,0,344631.711077318,344632.758094525,0,3,1,1,0,4,7,8211181,5110320,0,11453393,0,0,4070070,-4141111,0,0,0,0,0,0,0,4050130,0,1060190,0,0,0,0,0,0,0,0,0,0,0,0,0,3091111,0,2130031,4141121,0,2091130,0,0,0
6,22,1072.09727051668,1,0,344635.252151497,344636.299174479,0,3,1,0,1,2,3,1050040,3051170,3250301,0,0,-1050040,0,0,0,0,0,0,0,0,0,0,0,0,0,0,3051170,0,2190100,1060201,0,0,0,0,0,0,0,0,0,0,0,0,0,0,0,0
6,23,2205.07664512843,1,1,344638.499122432,344639.546141564,0,3,1,1,0,25,3,0,1050010,7231222,1090131,0,0,0,0,0,0,0,0,0,0,0,1050010,0,0,0,0,0,0,0,0,0,0,3121081,0,-4110141,0,0,0,1090131,0,0,0,0,0,0,0
6,24,1445.29459462501,1,0,344642.86370356,344643.910723462,0,3,1,1,1,19,3,0,6401331,2390370,0,0,0,0,0,0,0,0,0,0,0,3201151,3200180,0,0,0,0,0,0,-1200170,0,0,0,0,0,0,0,1190200,0,0,0,0,0,0,0,0,0
6,25,1182.20149487024,0,0,344656.039796252,344657.086822698,0,3,2,0,0,9,3,5250140,0,2170010,4051040,0,0,4070050,0,0,0,0,0,-1180090,0,0,0,0,0,0,0,0,0,0,0,0,0,2170010,0,0,0,0,0,0,0,0,4051040,0,0,0,0
6,26,1819.29764198139,1,1,344659.439711022,344660.486734003,0,3,2,1,0,19,3,0,6401331,2390370,0,0,0,0,0,0,0,0,0,0,0,3201151,3200180,0,0,0,0,0,0,-1200170,0,0,0,0,0,0,0,1190200,0,0,0,0,0,0,0,0,0
6,27,1265.42081561638,1,0,344663.451444247,344664.498387927,0,3,2,0,1,17,7,3120060,5243302,7201271,2252062,0,0,0,3120060,0,0,0,0,0,0,0,1031020,0,0,0,0,-3161101,1051181,0,0,0,0,0,0,0,4110070,3091201,0,0,0,0,0,1151031,0,1101031,0
6,28,2142.888126662,0,0,344666.968908001,344668.015925593,0,3,2,0,0,34,7,10662255,0,7101131,3050121,1171091,0,1190061,3051061,0,2070031,0,0,3180011,0,0,0,0,0,0,0,0,0,0,0,0,0,3030101,0,0,4071030,0,0,0,0,0,0,0,-3050121,0,0
6,29,1293.19767374545,1,1,344671.227611006,344672.274628213,0,3,2,0,0,2,7,7301201,1070191,3200311,4282142,2020041,-4201070,1080090,0,0,0,0,0,0,0,0,0,1070191,0,0,0,0,0,0,0,0,0,0,2050201,0,0,1150110,1131041,0,0,3151101,0,0,0,0,0
6,30,1698.87684879359,1,0,344674.662810527,344675.709829659,0,3,2,0,1,14,7,10462462,7161201,4071110,4181351,3201091,0,0,0,0,0,3121180,0,4140191,0,0,3140160,0,-4021041,0,0,0,0,0,0,0,0,0,0,4071110,0,0,3030160,0,0,0,0,0,0,1151191,0
6,31,1941.71484262915,0,0,344678.603925744,344679.650924473,0,3,2,0,0,18,3,0,4170070,0,7341411,0,0,0,0,0,0,0,0,0,0,0,0,0,0,0,0,0,-4170070,0,0,0,0,0,0,0,0,0,0,0,2130170,1161160,0,0,0,4050081,0
6,32,2223.56247046264,1,0,344682.791993032,344683.839010624,0,3,2,0,1,5,3,6281241,3160141,1120130,0,0,0,0,0,-2171050,0,0,0,4110191,0,0,0,0,0,3160141,0,0,0,0,0,0,0,0,1120130,0,0,0,0,0,0,0,0,0,0,0,0
6,33,2258.58313898789,1,0,344687.227158292,344688.274179349,0,3,2,1,1,28,7,3181071,2020151,3190172,9422391,0,0,0,0,0,0,3181071,0,0,2020151,0,0,0,0,0,0,0,0,0,0,0,0,0,0,1170101,0,2020071,-3190050,0,0,1070180,0,2131101,0,3031060,0
6,34,1167.66344418284,0,0,344691.685918579,344692.732882276,0,3,2,1,0,11,7,4050040,3161261,3201371,9360163,0,0,0,4050040,0,0,0,0,0,0,-2151131,0,0,0,0,1010130,0,0,0,0,1140190,0,2061181,0,0,0,0,0,2090031,0,3080041,0,0,4190091,0,0
6,35,1650.0079795951,0,1,344695.097530003,344696.144550674,0,3,2,1,1,8,3,6181050,4110180,0,2101150,0,0,0,0,2061030,0,0,-4120020,0,0,0,0,0,0,0,0,0,4110180,0,0,0,0,0,0,0,0,0,0,0,0,0,2101150,0,0,0,0
6,36,2874.35668346006,0,0,344698.956242016,344700.003265382,0,3,2,1,0,33,3,1171060,4260161,0,3130131,0,0,0,0,1171060,0,0,0,0,0,3180020,1080141,0,0,0,0,0,0,0,0,0,0,0,0,0,0,0,0,0,0,0,0,-3130131,0,0,0
6,37,1203.87441199273,0,0,344703.932573846,344704.979594902,0,3,2,0,0,36,3,0,0,2252321,2061352,0,0,0,0,0,0,0,0,0,0,0,0,0,0,0,0,0,0,0,0,0,1121151,0,0,1131170,0,0,0,0,0,0,0,0,0,1051151,-1010201
6,38,2136.69949426549,1,0,344707.226643599,344708.273646563,0,3,2,0,1,31,3,1070181,4101031,0,4311132,0,0,0,0,1070181,0,0,0,0,0,4101031,0,0,0,0,0,0,0,0,0,0,0,0,0,0,0,0,0,0,0,-1170091,0,3141041,0,0,0
6,39,1166.71413043514,1,0,344711.473599135,344712.520600944,0,3,2,1,1,25,3,0,1050010,7231222,1090131,0,0,0,0,0,0,0,0,0,0,0,1050010,0,0,0,0,0,0,0,0,0,0,3121081,0,-4110141,0,0,0,1090131,0,0,0,0,0,0,0
6,40,963.594868779182,1,0,344714.814645675,344715.861688289,0,3,2,1,1,16,3,2050110,3311212,0,4090150,2050110,0,0,0,0,0,0,0,0,0,0,0,0,2161161,0,-1150051,0,0,0,0,0,0,0,0,0,0,0,0,4090150,0,0,0,0,0,0,0
6,41,2289.43852998782,0,1,344718.002762238,344719.049790224,0,3,2,1,1,7,3,2060150,2020091,0,3201241,0,0,0,0,0,0,-2060150,0,0,2020091,0,0,0,0,0,0,0,0,0,0,0,0,0,0,0,0,0,0,0,1050201,0,0,0,2151040,0,0
6,42,1965.7302472624,1,0,344722.414401379,344723.461485954,0,3,2,0,1,1,7,7182282,8381451,3232132,3060131,-3031161,0,0,0,4151121,0,0,0,0,0,4180181,0,0,0,3131090,0,1070180,0,0,0,0,1101051,0,0,2131081,0,0,0,0,0,0,0,0,3060131,0,0
6,43,1760.11451374507,0,0,344726.578997597,344727.626015574,0,3,2,0,0,12,7,3332390,3200252,6240212,1041141,0,1061090,0,0,1171130,1100170,0,0,0,0,0,-1080181,0,0,0,0,2120071,0,0,4040121,0,0,0,2200091,0,0,0,0,0,0,0,0,0,0,1041141,0
6,44,2262.39925704431,1,0,344730.578880569,344731.625900855,0,3,2,1,1,4,7,8211181,5110320,0,11453393,0,0,4070070,-4141111,0,0,0,0,0,0,0,4050130,0,1060190,0,0,0,0,0,0,0,0,0,0,0,0,0,3091111,0,2130031,4141121,0,2091130,0,0,0
6,45,1209.89019697299,0,0,344735.049376776,344736.0963705,0,3,2,1,0,10,7,4341191,5381262,0,13502471,0,0,0,0,1191141,3150050,0,0,0,-2191201,0,3190061,0,0,0,0,0,0,0,0,0,0,0,0,0,0,0,0,0,0,0,0,2041170,4140150,4170140,3151011
6,46,1534.80494738324,0,0,344738.390581534,344739.437447836,0,3,2,1,0,24,7,2051131,9403381,4111201,5162342,0,0,2051131,0,0,0,0,0,0,1111141,0,3080020,0,0,0,1191160,0,4021060,0,0,0,0,0,-4111201,0,0,0,3021161,2141181,0,0,0,0,0,0,0
6,47,2680.53846352268,0,0,344742.131496648,344743.178515395,0,3,2,1,0,27,7,4131180,6290241,4040151,8302400,0,0,0,0,4131180,0,0,0,0,0,0,2020010,0,2170080,0,0,2100151,0,0,0,0,0,0,0,0,0,-4040151,0,3160160,2061180,0,3081060,0,0,0,0
6,48,1825.01431222772,0,0,344747.049004903,344748.09602904,0,3,2,0,0,35,3,2050201,4060010,0,2040051,0,1010150,1040051,0,0,0,0,0,0,0,4060010,0,0,0,0,0,0,0,0,0,0,0,0,0,0,0,0,0,0,0,0,0,0,0,-2040051,0
6,49,1221.94101492641,1,0,344758.083980147,344759.131008517,0,3,3,0,1,14,3,1010050,10301461,0,0,0,0,0,0,0,1010050,0,0,0,0,0,0,0,-4030181,0,0,3081200,3190080,0,0,0,0,0,0,0,0,0,0,0,0,0,0,0,0,0,0
6,50,3011.12484373152,0,0,344761.389776196,344762.436797637,0,3,3,0,0,36,7,10460623,1111011,3132160,3040011,0,3110101,0,4140190,1060141,2150191,0,0,0,1111011,0,0,0,0,0,0,0,0,0,1091130,2041030,0,0,0,0,0,0,0,0,0,0,0,0,0,0,-3040011
6,51,1217.71876310231,1,0,344766.471990384,344767.519086508,0,3,3,1,1,25,3,0,1050010,7231222,1090131,0,0,0,0,0,0,0,0,0,0,0,1050010,0,0,0,0,0,0,0,0,0,0,3121081,0,-4110141,0,0,0,1090131,0,0,0,0,0,0,0
6,52,2513.83496896597,1,0,344769.918952772,344770.965967669,0,3,3,0,1,18,3,2200110,4192202,0,1080020,0,0,0,0,2200110,0,0,0,0,0,0,0,3121091,0,0,0,0,-1071111,0,0,0,0,0,0,0,0,0,0,0,1080020,0,0,0,0,0,0
6,53,1507.02039001044,0,0,344774.577645999,344775.624665516,0,3,3,0,0,9,7,4160041,15572292,4121120,7111101,0,0,0,0,0,0,0,0,-4160041,3131091,0,0,0,4070130,4200041,4171030,0,0,0,0,0,0,0,0,0,4121120,0,0,3050010,0,0,0,0,4061091,0,0
6,54,2195.91726898216,0,0,344778.259894217,344779.306946071,0,3,3,1,0,19,3,0,6401331,2390370,0,0,0,0,0,0,0,0,0,0,0,3201151,3200180,0,0,0,0,0,0,-1200170,0,0,0,0,0,0,0,1190200,0,0,0,0,0,0,0,0,0
6,55,1448.16255377373,1,0,344782.577418102,344783.624441853,0,3,3,1,1,24,7,2051131,9403381,4111201,5162342,0,0,2051131,0,0,0,0,0,0,1111141,0,3080020,0,0,0,1191160,0,4021060,0,0,0,0,0,-4111201,0,0,0,3021161,2141181,0,0,0,0,0,0,0
6,56,1663.40192634379,1,1,344786.28318782,344787.330213496,0,3,3,1,0,27,7,4131180,6290241,4040151,8302400,0,0,0,0,4131180,0,0,0,0,0,0,2020010,0,2170080,0,0,2100151,0,0,0,0,0,0,0,0,0,-4040151,0,3160160,2061180,0,3081060,0,0,0,0
6,57,1398.38055713335,1,0,344790.071313776,344791.118343302,0,3,3,0,1,17,3,2070060,3211331,0,1031010,0,2070060,0,0,0,0,0,0,0,0,1061140,0,0,0,0,0,-2150191,0,0,0,0,0,0,0,0,0,0,0,0,0,0,0,0,1031010,0,0
6,58,2380.53338200552,0,1,344793.577103974,344794.62413273,0,3,3,0,1,2,7,6121242,4111171,7433361,5331090,0,-3040111,0,0,0,0,0,3081131,0,0,0,0,0,0,4111171,0,0,0,2111091,1181090,4141180,0,0,0,0,0,0,0,0,0,3140080,0,0,2191010,0,0
6,59,2859.21809368301,0,0,344798.059330326,344799.106361007,0,3,3,0,0,34,7,3071100,0,3202330,13310453,0,0,0,0,0,0,3071100,0,0,0,0,0,0,0,0,0,0,0,0,0,0,2041180,0,1161150,0,0,0,0,2090070,0,3010081,0,0,-2060181,3020011,3130110
6,60,1970.17346660141,1,0,344803.059192125,344804.106215492,0,3,3,1,1,16,3,2050110,3311212,0,4090150,2050110,0,0,0,0,0,0,0,0,0,0,0,0,2161161,0,-1150051,0,0,0,0,0,0,0,0,0,0,0,0,4090150,0,0,0,0,0,0,0
6,61,2394.0408922499,1,0,344807.188483574,344808.235502321,0,3,3,1,1,10,7,4341191,5381262,0,13502471,0,0,0,0,1191141,3150050,0,0,0,-2191201,0,3190061,0,0,0,0,0,0,0,0,0,0,0,0,0,0,0,0,0,0,0,0,2041170,4140150,4170140,3151011
6,62,1914.4969478366,0,0,344811.811889739,344812.858903867,0,3,3,1,0,28,7,3181071,2020151,3190172,9422391,0,0,0,0,0,0,3181071,0,0,2020151,0,0,0,0,0,0,0,0,0,0,0,0,0,0,1170101,0,2020071,-3190050,0,0,1070180,0,2131101,0,3031060,0
6,63,2818.68940364802,0,0,344815.870592821,344816.917676241,0,3,3,1,0,11,7,4050040,3161261,3201371,9360163,0,0,0,4050040,0,0,0,0,0,0,-2151131,0,0,0,0,1010130,0,0,0,0,1140190,0,2061181,0,0,0,0,0,2090031,0,3080041,0,0,4190091,0,0
6,64,1115.54319469724,0,0,344820.858687904,344821.90571435,0,3,3,0,0,31,3,6282212,0,0,5281291,0,0,4151031,0,0,0,0,0,2131181,0,0,0,0,0,0,0,0,0,0,0,0,0,0,0,0,0,0,0,0,0,-1121140,0,0,0,0,4160151
6,65,1355.65527994186,1,0,344824.105654219,344825.15268259,0,3,3,1,1,7,3,2060150,2020091,0,3201241,0,0,0,0,0,0,-2060150,0,0,2020091,0,0,0,0,0,0,0,0,0,0,0,0,0,0,0,0,0,0,0,1050201,0,0,0,2151040,0,0
6,66,2962.57664705627,0,0,344827.69379411,344828.740813627,0,3,3,0,0,35,7,5132180,6323302,3080100,4272201,4011170,0,0,0,0,0,0,0,1121010,4201121,0,0,0,1071100,0,0,0,1051081,0,0,0,0,0,0,3080100,0,0,0,0,0,0,2091050,0,0,-2181151,0
6,67,1295.36654381081,0,0,344832.787757692,344833.834786832,0,3,3,0,0,1,7,6301382,9373452,0,1131100,-3020181,0,0,0,0,0,0,1180190,2101011,3051181,0,0,0,3030020,0,2141181,0,1151070,0,0,0,0,0,0,0,0,0,0,0,1131100,0,0,0,0,0,0
6,68,1126.10998807941,0,0,344836.222959908,344837.269987509,0,3,3,0,0,5,3,6190350,3040091,1200150,0,0,0,0,0,-2120180,0,0,0,4070170,3040091,0,0,0,0,0,0,0,0,1200150,0,0,0,0,0,0,0,0,0,0,0,0,0,0,0,0,0
6,69,1233.14029915491,1,0,344839.422876294,344840.469899276,0,3,3,1,1,33,3,1171060,4260161,0,3130131,0,0,0,0,1171060,0,0,0,0,0,3180020,1080141,0,0,0,0,0,0,0,0,0,0,0,0,0,0,0,0,0,0,0,0,-3130131,0,0,0
6,70,1114.05763035873,1,0,344842.905124974,344843.952146416,0,3,3,1,1,4,7,8211181,5110320,0,11453393,0,0,4070070,-4141111,0,0,0,0,0,0,0,4050130,0,1060190,0,0,0,0,0,0,0,0,0,0,0,0,0,3091111,0,2130031,4141121,0,2091130,0,0,0
6,71,851.539277296979,1,0,344846.175629343,344847.222646165,0,3,3,0,1,12,3,0,3170030,1100151,3130262,0,0,0,0,0,0,0,0,0,0,0,-3170030,0,0,0,0,0,0,0,0,0,0,0,0,0,1100151,0,0,0,0,0,0,0,2040201,1090061,0
6,72,1262.66757480334,0,0,344849.187365647,344850.23432434,0,3,3,1,0,8,3,6181050,4110180,0,2101150,0,0,0,0,2061030,0,0,-4120020,0,0,0,0,0,0,0,0,0,4110180,0,0,0,0,0,0,0,0,0,0,0,0,0,2101150,0,0,0,0
6,73,1340.65835573711,1,0,344855.881288577,344856.928255354,0,3,4,0,1,14,7,4191190,4210200,7293282,3122161,0,0,0,4191190,0,0,0,0,0,0,0,0,0,-1110190,0,3100010,0,0,0,1061050,0,0,0,4041181,0,0,2191051,0,0,0,0,0,2051090,0,0,1071071
6,74,1275.53489489947,0,0,344859.375250849,344860.422279605,0,3,4,0,0,31,3,1110160,4121141,0,7340200,0,1110160,0,0,0,0,0,0,0,0,0,0,0,0,4121141,0,0,0,0,0,0,0,0,0,0,0,0,0,0,0,-3140070,0,0,0,0,4200130
6,75,1155.72580479784,1,0,344862.728112225,344863.775115574,0,3,4,1,1,10,7,4341191,5381262,0,13502471,0,0,0,0,1191141,3150050,0,0,0,-2191201,0,3190061,0,0,0,0,0,0,0,0,0,0,0,0,0,0,0,0,0,0,0,0,2041170,4140150,4170140,3151011
6,76,690.945498179644,0,0,344866.128065106,344867.17506499,0,3,4,0,0,9,7,7461271,5433251,4121171,3160081,1151060,0,0,3200181,0,0,0,0,-3110030,0,0,3141140,0,0,0,0,1141011,1151100,0,4121171,0,0,0,0,0,0,0,0,0,3160081,0,0,0,0,0,0
6,77,2206.35240577394,0,0,344868.951452716,344869.998475313,0,3,4,0,0,2,7,2242271,7393332,3190071,3170161,0,-1101140,0,0,1141131,0,0,0,0,3121040,0,0,2071131,0,0,0,2201161,0,0,0,0,0,0,0,3190071,0,0,1020150,0,0,0,0,2150011,0,0,0
6,78,676.296193734743,1,0,344873.398390852,344874.445406134,0,3,4,1,1,16,3,2050110,3311212,0,4090150,2050110,0,0,0,0,0,0,0,0,0,0,0,0,2161161,0,-1150051,0,0,0,0,0,0,0,0,0,0,0,0,4090150,0,0,0,0,0,0,0
6,79,1218.36357266875,0,0,344876.245363866,344877.292384922,0,3,4,1,0,25,3,0,1050010,7231222,1090131,0,0,0,0,0,0,0,0,0,0,0,1050010,0,0,0,0,0,0,0,0,0,0,3121081,0,-4110141,0,0,0,1090131,0,0,0,0,0,0,0
6,80,2004.08698746469,0,0,344879.680565697,344880.727587523,0,3,4,0,0,35,7,11583421,3121071,4320130,1070030,3181180,0,2131080,0,0,0,0,2141070,4130091,0,3121071,0,0,0,0,0,0,0,0,2140070,0,0,0,0,2180060,0,0,0,0,0,0,0,0,0,-1070030,0
6,81,987.861652858555,0,0,344883.915734883,344884.96275517,0,3,4,1,0,33,3,1171060,4260161,0,3130131,0,0,0,0,1171060,0,0,0,0,0,3180020,1080141,0,0,0,0,0,0,0,0,0,0,0,0,0,0,0,0,0,0,0,0,-3130131,0,0,0
6,82,1094.19287485071,1,0,344886.974480311,344888.021494823,0,3,4,1,1,27,7,4131180,6290241,4040151,8302400,0,0,0,0,4131180,0,0,0,0,0,0,2020010,0,2170080,0,0,2100151,0,0,0,0,0,0,0,0,0,-4040151,0,3160160,2061180,0,3081060,0,0,0,0
6,83,1532.11330034537,0,0,344890.221438927,344891.268463833,0,3,4,1,0,7,3,2060150,2020091,0,3201241,0,0,0,0,0,0,-2060150,0,0,2020091,0,0,0,0,0,0,0,0,0,0,0,0,0,0,0,0,0,0,0,1050201,0,0,0,2151040,0,0
6,84,683.391024242155,1,0,344893.833102243,344894.880127534,0,3,4,1,1,4,7,8211181,5110320,0,11453393,0,0,4070070,-4141111,0,0,0,0,0,0,0,4050130,0,1060190,0,0,0,0,0,0,0,0,0,0,0,0,0,3091111,0,2130031,4141121,0,2091130,0,0,0
6,85,1814.12030203501,1,0,344896.609499979,344897.656515646,0,3,4,0,1,18,7,7363342,5211151,7330171,2050060,0,2181141,0,0,0,0,4081051,1101150,0,0,0,0,0,4020051,0,0,0,-1191100,0,0,0,4140090,0,3190081,0,0,0,0,2050060,0,0,0,0,0,0,0
6,86,1303.35448379628,0,1,344900.51526731,344901.562288366,0,3,4,0,1,34,3,1100031,3180161,0,3140061,0,0,0,1100031,0,0,0,0,0,0,0,0,3180161,0,0,0,0,0,0,0,0,0,0,0,0,0,0,0,0,0,0,0,0,-1020041,2120020,0
6,87,1147.08612591494,0,0,344903.903403044,344904.95043026,0,3,4,1,0,24,7,2051131,9403381,4111201,5162342,0,0,2051131,0,0,0,0,0,0,1111141,0,3080020,0,0,0,1191160,0,4021060,0,0,0,0,0,-4111201,0,0,0,3021161,2141181,0,0,0,0,0,0,0
6,88,1110.15836079605,0,0,344907.209202943,344908.256223229,0,3,4,0,0,36,7,7171241,5241262,0,11271220,4081091,3090150,0,0,0,0,0,0,0,0,0,2120061,0,0,0,0,0,3121201,0,0,0,0,0,0,0,0,0,0,4130040,4060060,1041020,0,0,0,0,-2040100
6,89,1120.19929755479,1,0,344910.456168103,344911.503190315,0,3,4,0,1,17,3,0,2081091,4252162,2080181,0,0,0,0,0,0,0,0,0,0,0,0,0,0,0,0,-2081091,0,0,0,3121031,0,0,0,0,1131131,0,0,2080181,0,0,0,0,0,0,0
6,90,1869.00880577741,0,0,344913.644310074,344914.69133113,0,3,4,1,0,8,3,6181050,4110180,0,2101150,0,0,0,0,2061030,0,0,-4120020,0,0,0,0,0,0,0,0,0,4110180,0,0,0,0,0,0,0,0,0,0,0,0,0,2101150,0,0,0,0
6,91,1161.08677111333,1,0,344917.597143117,344918.644168793,0,3,4,0,1,1,3,6081221,3150121,1181010,0,-2030151,4051070,0,0,0,0,0,0,0,0,0,0,0,0,0,0,3150121,0,0,1181010,0,0,0,0,0,0,0,0,0,0,0,0,0,0,0,0
6,92,899.784124805592,0,0,344920.973538312,344922.020536655,0,3,4,1,0,11,7,4050040,3161261,3201371,9360163,0,0,0,4050040,0,0,0,0,0,0,-2151131,0,0,0,0,1010130,0,0,0,0,1140190,0,2061181,0,0,0,0,0,2090031,0,3080041,0,0,4190091,0,0
6,93,820.501029898878,1,0,344924.008721819,344925.055745185,0,3,4,0,1,5,3,2201170,0,3101010,2370252,0,0,0,0,-2201170,0,0,0,0,0,0,0,0,0,0,0,0,0,0,3101010,0,0,0,0,0,0,0,0,1200161,0,0,0,1170091,0,0,0
6,94,894.740366318729,1,0,344927.0674761,344928.114487918,0,3,4,1,1,28,7,3181071,2020151,3190172,9422391,0,0,0,0,0,0,3181071,0,0,2020151,0,0,0,0,0,0,0,0,0,0,0,0,0,0,1170101,0,2020071,-3190050,0,0,1070180,0,2131101,0,3031060,0
6,95,777.196386421565,0,0,344930.079138878,344931.126160704,0,3,4,0,0,12,3,7292351,1161041,1110110,0,4121191,0,3171160,0,0,0,0,0,0,0,0,-1161041,0,0,0,0,0,0,0,0,0,0,1110110,0,0,0,0,0,0,0,0,0,0,0,0,0
6,96,1044.950978423,1,0,344932.973174908,344934.020204819,0,3,4,1,1,19,3,0,6401331,2390370,0,0,0,0,0,0,0,0,0,0,0,3201151,3200180,0,0,0,0,0,0,-1200170,0,0,0,0,0,0,0,1190200,0,0,0,0,0,0,0,0,0
6,97,1123.02106135758,1,0,344939.267108386,344940.314136756,0,3,5,1,1,33,3,1171060,4260161,0,3130131,0,0,0,0,1171060,0,0,0,0,0,3180020,1080141,0,0,0,0,0,0,0,0,0,0,0,0,0,0,0,0,0,0,0,0,-3130131,0,0,0
6,98,1247.62830499094,0,0,344942.490554741,344943.537581572,0,3,5,1,0,10,7,4341191,5381262,0,13502471,0,0,0,0,1191141,3150050,0,0,0,-2191201,0,3190061,0,0,0,0,0,0,0,0,0,0,0,0,0,0,0,0,0,0,0,0,2041170,4140150,4170140,3151011
6,99,1238.70106023969,1,0,344945.94929193,344946.996298743,0,3,5,1,1,25,3,0,1050010,7231222,1090131,0,0,0,0,0,0,0,0,0,0,0,1050010,0,0,0,0,0,0,0,0,0,0,3121081,0,-4110141,0,0,0,1090131,0,0,0,0,0,0,0
6,100,792.99133468885,0,0,344949.360951474,344950.407970991,0,3,5,0,0,34,3,1080150,0,2010061,4211271,0,0,0,0,1080150,0,0,0,0,0,0,0,0,0,0,0,0,0,0,0,0,0,0,2010061,0,0,0,3010150,0,0,0,0,0,-1201121,0,0
6,101,1144.27629584679,0,0,344952.266747292,344953.313771813,0,3,5,1,0,24,7,2051131,9403381,4111201,5162342,0,0,2051131,0,0,0,0,0,0,1111141,0,3080020,0,0,0,1191160,0,4021060,0,0,0,0,0,-4111201,0,0,0,3021161,2141181,0,0,0,0,0,0,0
6,102,737.626249261666,0,0,344955.584305054,344956.63132611,0,3,5,0,0,12,3,1070091,3130060,0,5180191,0,0,0,0,0,0,1070091,0,0,0,0,-3130060,0,0,0,0,0,0,0,0,0,0,0,0,0,0,0,0,0,2170131,0,3010060,0,0,0,0
6,103,916.974556515925,0,0,344958.443046324,344959.490063531,0,3,5,1,0,27,7,4131180,6290241,4040151,8302400,0,0,0,0,4131180,0,0,0,0,0,0,2020010,0,2170080,0,0,2100151,0,0,0,0,0,0,0,0,0,-4040151,0,3160160,2061180,0,3081060,0,0,0,0
6,104,1167.95485961484,1,0,344961.4900208,344962.537036852,0,3,5,1,1,28,7,3181071,2020151,3190172,9422391,0,0,0,0,0,0,3181071,0,0,2020151,0,0,0,0,0,0,0,0,0,0,0,0,0,0,1170101,0,2020071,-3190050,0,0,1070180,0,2131101,0,3031060,0
6,105,1811.06602173531,0,0,344964.889924406,344965.936943923,0,3,5,0,0,2,7,8393382,4051180,4050080,2211130,0,-1041051,0,3141120,2021040,2190171,0,0,0,4051180,0,0,0,0,0,0,0,0,0,0,0,0,0,0,4050080,0,0,0,1021080,0,0,0,0,1190050,0,0
6,106,1011.92594750319,1,0,344968.878067608,344969.925068262,0,3,5,1,1,11,7,4050040,3161261,3201371,9360163,0,0,0,4050040,0,0,0,0,0,0,-2151131,0,0,0,0,1010130,0,0,0,0,1140190,0,2061181,0,0,0,0,0,2090031,0,3080041,0,0,4190091,0,0
6,107,810.121327522211,1,0,344972.042662672,344973.089684113,0,3,5,1,1,4,7,8211181,5110320,0,11453393,0,0,4070070,-4141111,0,0,0,0,0,0,0,4050130,0,1060190,0,0,0,0,0,0,0,0,0,0,0,0,0,3091111,0,2130031,4141121,0,2091130,0,0,0
6,108,2775.73430474149,0,0,344974.924935835,344975.971997313,0,3,5,0,0,36,7,0,4160132,11502463,4342232,0,0,0,0,0,0,0,0,0,0,1030081,3130051,0,0,0,0,0,0,4140141,1080151,0,0,0,0,4081151,0,2201020,0,0,0,0,2161181,0,0,0,-2181051
6,109,1377.78745550895,0,0,344979.913037462,344980.960070452,0,3,5,1,0,8,3,6181050,4110180,0,2101150,0,0,0,0,2061030,0,0,-4120020,0,0,0,0,0,0,0,0,0,4110180,0,0,0,0,0,0,0,0,0,0,0,0,0,2101150,0,0,0,0
6,110,1547.46015398996,0,0,344983.442342615,344984.489369061,0,3,5,0,0,31,7,0,8252202,1071011,10590362,0,0,0,0,0,0,0,0,0,0,0,3081071,4110081,0,0,0,0,1061050,1071011,0,0,0,0,0,0,0,0,3070171,2200010,0,-2150021,0,0,3170160,0,0
6,111,852.415448462125,0,0,344987.042244604,344988.089262196,0,3,5,1,0,19,3,0,6401331,2390370,0,0,0,0,0,0,0,0,0,0,0,3201151,3200180,0,0,0,0,0,0,-1200170,0,0,0,0,0,0,0,1190200,0,0,0,0,0,0,0,0,0
6,112,922.564574633725,1,0,344990.053982449,344991.100969244,0,3,5,0,1,1,3,4360202,3030180,1201150,0,-1170101,0,0,0,0,0,3190101,0,0,0,0,0,0,0,0,3030180,0,0,0,0,0,0,1201150,0,0,0,0,0,0,0,0,0,0,0,0,0
6,113,1792.86737728398,0,1,344993.159717366,344994.206802711,0,3,5,0,1,18,7,2221142,8262141,4040011,7311191,0,0,1050111,0,0,0,0,0,1171031,0,0,0,0,2081050,0,0,2131060,-4050031,0,4040011,0,0,0,0,0,0,0,4110140,0,0,0,0,0,0,0,3201051
6,114,1078.88913678471,1,0,344997.159598798,344998.20662101,0,3,5,1,1,16,3,2050110,3311212,0,4090150,2050110,0,0,0,0,0,0,0,0,0,0,0,0,2161161,0,-1150051,0,0,0,0,0,0,0,0,0,0,0,0,4090150,0,0,0,0,0,0,0
6,115,945.529805729166,0,0,345000.488917117,345001.535946258,0,3,5,0,0,17,7,2091020,11563520,0,7311210,0,0,0,0,0,0,0,0,2091020,0,0,0,1180120,0,4091170,0,-3161060,3131170,0,0,0,0,0,0,0,0,0,0,0,0,2081070,0,0,0,2110030,3120110
6,116,1629.6916648862,1,0,345003.54766062,345004.594712473,0,3,5,0,1,14,3,0,7102071,3110200,4120121,0,0,0,0,0,0,0,0,0,0,0,0,0,-4091050,0,3011021,0,0,0,0,0,0,0,0,0,3110200,0,0,0,0,0,0,0,4120121,0,0
6,117,798.447001434397,1,0,345007.41813858,345008.465163486,0,3,5,0,1,9,3,4110031,0,5221291,1151010,0,0,0,0,0,0,0,0,-4110031,0,0,0,0,0,0,0,0,0,0,0,4151200,1070091,0,0,0,0,0,0,1151010,0,0,0,0,0,0,0
6,118,672.434650361538,0,0,345010.276885239,345011.323903986,0,3,5,1,0,7,3,2060150,2020091,0,3201241,0,0,0,0,0,0,-2060150,0,0,2020091,0,0,0,0,0,0,0,0,0,0,0,0,0,0,0,0,0,0,0,1050201,0,0,0,2151040,0,0
6,119,1305.96644390607,1,0,345013.147386682,345014.194406583,0,3,5,0,1,5,3,2101120,2191010,6140060,0,0,0,0,0,-2101120,0,0,0,0,0,0,0,0,0,0,2191010,0,0,4050020,0,0,0,2090040,0,0,0,0,0,0,0,0,0,0,0,0,0
6,120,2023.38546537794,1,0,345016.559055079,345017.606079216,0,3,5,0,1,35,7,8252241,1011151,5171292,6450492,0,4161060,0,0,0,4091181,0,0,0,0,0,0,0,0,1011151,0,0,0,0,1141181,0,0,0,0,4030111,0,0,0,0,2180151,0,0,0,0,-2160141,2110200
6,121,1451.86087372713,0,0,345024.029433488,345025.07650305,0,3,6,1,0,25,3,0,1050010,7231222,1090131,0,0,0,0,0,0,0,0,0,0,0,1050010,0,0,0,0,0,0,0,0,0,0,3121081,0,-4110141,0,0,0,1090131,0,0,0,0,0,0,0
6,122,701.194698747713,0,0,345027.688152508,345028.735181263,0,3,6,1,0,7,3,2060150,2020091,0,3201241,0,0,0,0,0,0,-2060150,0,0,2020091,0,0,0,0,0,0,0,0,0,0,0,0,0,0,0,0,0,0,0,1050201,0,0,0,2151040,0,0
6,123,3357.00148838805,0,0,345030.535130525,345031.582153892,0,3,6,0,0,35,7,0,11652301,6081312,1061081,0,0,0,0,0,0,0,0,0,0,0,1161170,3181011,0,3140080,2100020,2070020,0,4040111,0,0,0,0,0,2041201,0,0,0,0,0,0,0,0,0,-1061081,0
6,124,831.083991739433,1,0,345035.982034785,345037.0290697,0,3,6,1,1,28,7,3181071,2020151,3190172,9422391,0,0,0,0,0,0,3181071,0,0,2020151,0,0,0,0,0,0,0,0,0,0,0,0,0,0,1170101,0,2020071,-3190050,0,0,1070180,0,2131101,0,3031060,0
6,125,2316.24374660896,0,0,345038.981958948,345040.028975,0,3,6,0,0,12,7,4090051,9461310,3171201,6112221,0,0,0,0,0,0,4090051,0,0,0,4150010,-1120100,0,0,0,4191200,0,0,0,0,0,3171201,0,0,0,0,0,0,2021040,1051141,0,3040040,0,0,0,0
6,126,916.380946757272,1,0,345043.487710264,345044.534732861,0,3,6,1,1,8,3,6181050,4110180,0,2101150,0,0,0,0,2061030,0,0,-4120020,0,0,0,0,0,0,0,0,0,4110180,0,0,0,0,0,0,0,0,0,0,0,0,0,2101150,0,0,0,0
6,127,1976.53533151606,0,0,345046.546449533,345047.59346058,0,3,6,0,0,34,3,2241241,4010131,0,1201121,0,0,1160090,0,0,1081151,0,0,0,0,0,0,4010131,0,0,0,0,0,0,0,0,0,0,0,0,0,0,0,0,0,0,0,0,-1201121,0,0
6,128,1097.33223146759,1,0,345050.781626803,345051.828647475,0,3,6,0,1,2,7,4141120,10111251,1060141,6410273,0,-4141120,0,0,0,0,0,0,0,3050070,0,0,0,0,3011170,4050011,0,0,0,0,0,0,1060141,0,0,0,0,0,2070141,0,3190041,0,0,0,0,1150091
6,129,1060.20351668121,1,0,345054.122698365,345055.169726736,0,3,6,0,1,17,3,0,4201221,4030011,1091141,0,0,0,0,0,0,0,0,0,0,0,0,0,0,1121120,0,-3080101,0,0,4030011,0,0,0,0,0,0,0,0,0,0,0,0,0,0,1091141,0
6,130,681.881207390688,1,0,345057.252023305,345058.299045132,0,3,6,1,1,16,3,2050110,3311212,0,4090150,2050110,0,0,0,0,0,0,0,0,0,0,0,0,2161161,0,-1150051,0,0,0,0,0,0,0,0,0,0,0,0,4090150,0,0,0,0,0,0,0
6,131,879.038578597829,0,0,345060.099006713,345061.146027384,0,3,6,1,0,4,7,8211181,5110320,0,11453393,0,0,4070070,-4141111,0,0,0,0,0,0,0,4050130,0,1060190,0,0,0,0,0,0,0,0,0,0,0,0,0,3091111,0,2130031,4141121,0,2091130,0,0,0
6,132,1860.32331659226,1,0,345063.169508463,345064.21652721,0,3,6,1,1,24,7,2051131,9403381,4111201,5162342,0,0,2051131,0,0,0,0,0,0,1111141,0,3080020,0,0,0,1191160,0,4021060,0,0,0,0,0,-4111201,0,0,0,3021161,2141181,0,0,0,0,0,0,0
6,133,2240.6959279906,1,0,345067.287082855,345068.334081584,0,3,6,0,1,36,7,9360341,4110130,3091041,7280220,3190090,0,0,0,0,0,2120061,0,4050190,1020100,0,0,0,0,3090030,0,0,0,3091041,0,0,0,0,0,0,0,0,0,0,0,0,4180170,0,0,0,-3100050
6,134,1129.88607020816,0,0,345071.781040123,345072.828060794,0,3,6,0,0,1,3,1131160,5271221,2100121,0,-1131160,0,0,0,0,0,0,0,0,2091080,3180141,0,0,0,0,0,0,0,0,0,0,0,2100121,0,0,0,0,0,0,0,0,0,0,0,0,0
6,135,2252.02879367862,1,0,345075.145644348,345076.192661555,0,3,6,0,1,31,7,11392431,0,4082281,6302201,0,0,0,3190110,4010041,2151180,2041100,0,0,0,0,0,0,0,0,0,0,0,3061180,0,0,0,1021101,0,0,0,0,0,0,0,-3191100,0,3111101,0,0,0
6,136,1229.29184447275,1,0,345079.545510228,345080.592544373,0,3,6,1,1,33,3,1171060,4260161,0,3130131,0,0,0,0,1171060,0,0,0,0,0,3180020,1080141,0,0,0,0,0,0,0,0,0,0,0,0,0,0,0,0,0,0,0,0,-3130131,0,0,0
6,137,1060.93840720132,0,0,345082.980712829,345084.02773812,0,3,6,1,0,11,7,4050040,3161261,3201371,9360163,0,0,0,4050040,0,0,0,0,0,0,-2151131,0,0,0,0,1010130,0,0,0,0,1140190,0,2061181,0,0,0,0,0,2090031,0,3080041,0,0,4190091,0,0
6,138,1375.22515538149,1,0,345086.286510033,345087.33352955,0,3,6,0,1,5,3,1011161,4121140,2181060,3130020,0,0,0,0,-1011161,0,0,0,0,0,0,0,0,0,0,0,4121140,0,0,2181060,0,0,0,0,0,0,0,0,0,0,0,3130020,0,0,0,0
6,139,2387.30061077513,1,0,345089.88648478,345090.933428459,0,3,6,1,1,10,7,4341191,5381262,0,13502471,0,0,0,0,1191141,3150050,0,0,0,-2191201,0,3190061,0,0,0,0,0,0,0,0,0,0,0,0,0,0,0,0,0,0,0,0,2041170,4140150,4170140,3151011
6,140,1203.1603094656,0,0,345094.533328908,345095.580373447,0,3,6,0,0,14,3,5201062,6111271,0,0,0,0,0,1120031,0,0,4081031,0,0,0,0,0,0,-4090140,0,0,0,2021131,0,0,0,0,0,0,0,0,0,0,0,0,0,0,0,0,0,0
6,141,2088.93815771444,0,0,345097.968533819,345099.015553336,0,3,6,1,0,27,7,4131180,6290241,4040151,8302400,0,0,0,0,4131180,0,0,0,0,0,0,2020010,0,2170080,0,0,2100151,0,0,0,0,0,0,0,0,0,-4040151,0,3160160,2061180,0,3081060,0,0,0,0
6,142,1019.52738669934,0,0,345102.191940908,345103.2389585,0,3,6,0,0,18,3,0,7141311,7091101,0,0,0,0,0,0,0,0,0,0,0,0,0,0,0,4070180,0,0,-3071131,0,4071051,0,0,0,0,3020050,0,0,0,0,0,0,0,0,0,0,0
6,143,1726.58017947106,1,0,345105.344796972,345106.391830348,0,3,6,0,1,9,7,8161320,6202142,3151041,7371261,0,0,0,3061100,0,0,0,1010090,-4090130,0,0,0,4191071,0,0,0,0,2011071,0,0,0,0,0,0,0,0,3151041,0,0,0,0,3171140,4200121,0,0,0
6,144,1679.2884952738,1,0,345109.274083108,345110.321116099,0,3,6,1,1,19,3,0,6401331,2390370,0,0,0,0,0,0,0,0,0,0,0,3201151,3200180,0,0,0,0,0,0,-1200170,0,0,0,0,0,0,0,1190200,0,0,0,0,0,0,0,0,0
6,145,993.421259103343,1,0,345116.767990331,345117.815022552,0,3,7,0,1,18,7,9322121,5312262,6152190,3021081,0,0,0,4130011,0,0,4181060,1011050,0,0,0,0,3111121,0,0,0,0,-2201141,0,0,0,3031140,3121050,0,0,0,0,0,0,0,0,0,0,0,0,3021081
6,146,1412.44202619419,1,0,345119.967908642,345121.014932394,0,3,7,0,1,34,7,7071240,4352321,0,12383313,0,0,0,0,4030100,0,0,3041140,0,0,0,2151150,0,0,0,0,0,2201171,0,0,0,0,0,0,0,0,0,4151041,4051091,0,0,2080101,0,-2101080,0,0
6,147,1138.52074451279,0,0,345123.473691911,345124.520714122,0,3,7,0,0,36,3,7221242,3191070,0,2171200,0,3060201,0,0,4161041,0,0,0,0,3191070,0,0,0,0,0,0,0,0,0,0,0,0,0,0,0,0,0,0,0,0,0,0,0,0,0,-2171200
6,148,803.099639597349,1,0,345126.74418473,345127.791211946,0,3,7,0,1,17,7,8192403,7200152,8100152,2010151,0,0,2011191,0,0,0,2081191,4100021,0,0,4080141,0,0,0,0,0,-3120011,0,0,0,0,4010071,0,0,0,0,4090081,0,0,0,2010151,0,0,0,0,0
6,149,1197.68539466895,0,0,345129.779460243,345130.826458202,0,3,7,1,0,8,3,6181050,4110180,0,2101150,0,0,0,0,2061030,0,0,-4120020,0,0,0,0,0,0,0,0,0,4110180,0,0,0,0,0,0,0,0,0,0,0,0,0,2101150,0,0,0,0
6,150,1582.81843329314,0,0,345133.026428483,345134.073426057,0,3,7,1,0,24,7,2051131,9403381,4111201,5162342,0,0,2051131,0,0,0,0,0,0,1111141,0,3080020,0,0,0,1191160,0,4021060,0,0,0,0,0,-4111201,0,0,0,3021161,2141181,0,0,0,0,0,0,0
6,151,803.943858947605,1,0,345136.732137762,345137.779164208,0,3,7,1,1,7,3,2060150,2020091,0,3201241,0,0,0,0,0,0,-2060150,0,0,2020091,0,0,0,0,0,0,0,0,0,0,0,0,0,0,0,0,0,0,0,1050201,0,0,0,2151040,0,0
6,152,677.343672548886,0,0,345139.743814013,345140.790850083,0,3,7,1,0,16,3,2050110,3311212,0,4090150,2050110,0,0,0,0,0,0,0,0,0,0,0,0,2161161,0,-1150051,0,0,0,0,0,0,0,0,0,0,0,0,4090150,0,0,0,0,0,0,0
6,153,1619.9633164797,0,0,345142.567271301,345143.614285428,0,3,7,0,0,1,3,1121100,4070060,5191341,0,-1121100,0,0,0,0,0,0,0,0,0,0,0,0,0,0,4070060,0,0,0,0,2110160,0,0,0,0,3081181,0,0,0,0,0,0,0,0,0,0
6,154,627.061611565296,1,0,345146.378930691,345147.425953287,0,3,7,1,1,4,7,8211181,5110320,0,11453393,0,0,4070070,-4141111,0,0,0,0,0,0,0,4050130,0,1060190,0,0,0,0,0,0,0,0,0,0,0,0,0,3091111,0,2130031,4141121,0,2091130,0,0,0
6,155,1307.65950219939,0,0,345149.096504467,345150.143523983,0,3,7,0,0,31,3,8250091,2170090,0,4201071,0,0,0,4080040,0,0,0,4170051,0,0,0,2170090,0,0,0,0,0,0,0,0,0,0,0,0,0,0,0,0,0,0,-4201071,0,0,0,0,0
6,156,1466.64529945701,1,0,345152.496403453,345153.543489183,0,3,7,0,1,12,7,5131132,6212311,4121180,8161222,0,0,0,0,0,0,1101071,4030061,0,0,0,-3141121,0,0,3071190,0,0,0,0,0,0,0,0,0,0,0,4121180,4040101,0,1061111,0,0,0,3060010,0,0
6,157,983.048485999461,0,0,345156.108068694,345157.155081666,0,3,7,1,0,25,3,0,1050010,7231222,1090131,0,0,0,0,0,0,0,0,0,0,0,1050010,0,0,0,0,0,0,0,0,0,0,3121081,0,-4110141,0,0,0,1090131,0,0,0,0,0,0,0
6,158,1378.96466616075,0,0,345159.260913979,345160.307941195,0,3,7,0,0,2,3,3191111,0,7211232,3180111,0,-3191111,0,0,0,0,0,0,0,0,0,0,0,0,0,0,0,0,0,4131101,0,0,0,0,3080131,0,0,0,0,0,0,3180111,0,0,0,0
6,159,789.657572750002,0,0,345162.743178442,345163.790201039,0,3,7,0,0,5,7,4241251,8432392,1190011,3091081,1061170,0,0,0,-3180081,0,0,0,0,0,1180081,0,4060101,2121180,1071030,0,0,0,0,0,0,0,0,0,0,1190011,0,0,0,3091081,0,0,0,0,0,0
6,160,678.575162659399,0,1,345165.731327804,345166.778342701,0,3,7,1,1,10,7,4341191,5381262,0,13502471,0,0,0,0,1191141,3150050,0,0,0,-2191201,0,3190061,0,0,0,0,0,0,0,0,0,0,0,0,0,0,0,0,0,0,0,0,2041170,4140150,4170140,3151011
6,161,1033.79288502038,1,0,345168.543009521,345169.590032118,0,3,7,1,1,28,7,3181071,2020151,3190172,9422391,0,0,0,0,0,0,3181071,0,0,2020151,0,0,0,0,0,0,0,0,0,0,0,0,0,0,1170101,0,2020071,-3190050,0,0,1070180,0,2131101,0,3031060,0
6,162,843.898187216837,1,0,345171.648807572,345172.695828244,0,3,7,1,1,33,3,1171060,4260161,0,3130131,0,0,0,0,1171060,0,0,0,0,0,3180020,1080141,0,0,0,0,0,0,0,0,0,0,0,0,0,0,0,0,0,0,0,0,-3130131,0,0,0
6,163,702.325329126325,1,0,345174.566372417,345175.613390779,0,3,7,1,1,27,7,4131180,6290241,4040151,8302400,0,0,0,0,4131180,0,0,0,0,0,0,2020010,0,2170080,0,0,2100151,0,0,0,0,0,0,0,0,0,-4040151,0,3160160,2061180,0,3081060,0,0,0,0
6,164,2463.32963067107,0,0,345177.460405368,345178.5074245,0,3,7,0,0,14,7,2110150,5291310,9393313,7222290,0,0,0,0,0,0,0,0,2110150,2190140,0,0,0,-3101170,0,0,0,0,0,0,0,4171051,0,0,4041121,1181141,0,3191160,0,0,0,0,0,0,4031130,0
6,165,874.68313035788,1,0,345182.02497872,345183.072007476,0,3,7,1,1,19,3,0,6401331,2390370,0,0,0,0,0,0,0,0,0,0,0,3201151,3200180,0,0,0,0,0,0,-1200170,0,0,0,0,0,0,0,1190200,0,0,0,0,0,0,0,0,0
6,166,1790.43480893597,0,0,345185.001365985,345186.048390891,0,3,7,1,0,11,7,4050040,3161261,3201371,9360163,0,0,0,4050040,0,0,0,0,0,0,-2151131,0,0,0,0,1010130,0,0,0,0,1140190,0,2061181,0,0,0,0,0,2090031,0,3080041,0,0,4190091,0,0
6,167,1229.66371674556,1,0,345188.860084927,345189.907105983,0,3,7,0,1,35,3,2191100,4111201,0,6371350,2191100,0,0,0,0,0,0,0,0,0,0,0,0,0,0,0,4111201,0,0,0,0,0,0,0,0,0,0,0,0,0,2201200,0,0,0,-4170150,0
6,168,852.324982639402,0,0,345192.24822913,345193.295246722,0,3,7,0,0,9,3,1021161,4170180,0,7242160,0,0,0,0,0,0,0,0,-1021161,0,0,0,0,0,4170180,0,0,0,0,0,0,0,0,0,0,0,0,0,0,0,3161040,0,0,0,4081120,0
6,169,907.025625463575,0,0,345198.777450362,345199.824471803,0,3,8,1,0,4,7,8211181,5110320,0,11453393,0,0,4070070,-4141111,0,0,0,0,0,0,0,4050130,0,1060190,0,0,0,0,0,0,0,0,0,0,0,0,0,3091111,0,2130031,4141121,0,2091130,0,0,0
6,170,840.020090457983,1,0,345201.765602803,345202.812622705,0,3,8,1,1,8,3,6181050,4110180,0,2101150,0,0,0,0,2061030,0,0,-4120020,0,0,0,0,0,0,0,0,0,4110180,0,0,0,0,0,0,0,0,0,0,0,0,0,2101150,0,0,0,0
6,171,874.408268195111,0,0,345204.730228356,345205.777244408,0,3,8,0,0,2,3,3171252,3011190,0,4100021,0,-1081191,0,0,0,0,0,0,2090061,0,0,0,0,0,0,0,0,3011190,0,0,0,0,0,0,0,0,0,0,0,0,4100021,0,0,0,0,0
6,172,663.2941372809,1,0,345207.777200522,345208.824221579,0,3,8,1,1,10,7,4341191,5381262,0,13502471,0,0,0,0,1191141,3150050,0,0,0,-2191201,0,3190061,0,0,0,0,0,0,0,0,0,0,0,0,0,0,0,0,0,0,0,0,2041170,4140150,4170140,3151011
6,173,1561.96817773161,1,0,345210.659473686,345211.706485503,0,3,8,0,1,35,7,5141241,5051282,8291222,2190011,3121200,0,0,0,0,0,2020041,0,0,0,0,1010091,0,4041191,0,0,0,0,2191111,0,0,0,0,2020050,0,4080061,0,0,0,0,0,0,0,0,-2190011,0
6,174,1147.42181188194,1,0,345214.282893325,345215.329921311,0,3,8,0,1,1,3,5311251,3160010,0,3030070,-1140081,0,0,0,4171170,0,0,0,0,0,0,0,0,0,0,0,3160010,0,0,0,0,0,0,0,0,0,0,0,3030070,0,0,0,0,0,0,0
6,175,1796.08026141068,0,0,345217.612210489,345218.65923963,0,3,8,1,0,24,7,2051131,9403381,4111201,5162342,0,0,2051131,0,0,0,0,0,0,1111141,0,3080020,0,0,0,1191160,0,4021060,0,0,0,0,0,-4111201,0,0,0,3021161,2141181,0,0,0,0,0,0,0
6,176,1141.20469236514,1,0,345221.565043917,345222.612069593,0,3,8,1,1,25,3,0,1050010,7231222,1090131,0,0,0,0,0,0,0,0,0,0,0,1050010,0,0,0,0,0,0,0,0,0,0,3121081,0,-4110141,0,0,0,1090131,0,0,0,0,0,0,0
6,177,855.50206550397,1,1,345224.870833807,345225.917856403,0,3,8,0,0,18,3,4200091,2130160,0,8261081,4200091,0,0,0,0,0,0,0,0,0,0,0,0,0,0,0,0,-2130160,0,0,0,0,0,0,0,0,0,0,4111041,0,4150040,0,0,0,0,0
6,178,2002.40971258609,1,0,345227.964865141,345229.011890817,0,3,8,0,1,14,7,2111070,10382542,7130350,4050021,2111070,0,0,0,0,0,0,0,0,0,0,3061051,0,-4090160,1040150,0,0,2191181,0,0,0,3100160,4030190,0,0,0,0,0,0,0,0,0,0,0,0,4050021
6,179,2657.90121920872,0,0,345232.141220377,345233.188245283,0,3,8,0,0,36,7,8161292,0,6192312,5311362,0,0,0,4060131,0,0,0,4101161,0,0,0,0,0,0,0,0,0,0,0,1130061,3021201,0,2041050,0,0,0,0,0,0,0,0,0,2130191,1111150,0,-2070021
6,180,1565.12216292322,1,0,345236.894021545,345237.941046836,0,3,8,0,1,5,7,7190271,4110011,5191172,9202382,0,0,0,0,-3110200,4080071,0,0,0,0,0,0,0,0,4110011,0,0,0,1091161,0,0,4100011,0,0,0,0,0,0,2041170,0,0,3031131,4130081,0,0,0
6,181,892.080286052078,1,0,345240.682156741,345241.729172408,0,3,8,1,1,27,7,4131180,6290241,4040151,8302400,0,0,0,0,4131180,0,0,0,0,0,0,2020010,0,2170080,0,0,2100151,0,0,0,0,0,0,0,0,0,-4040151,0,3160160,2061180,0,3081060,0,0,0,0
6,182,897.26686506765,0,0,345243.646773824,345244.69380104,0,3,8,1,0,16,3,2050110,3311212,0,4090150,2050110,0,0,0,0,0,0,0,0,0,0,0,0,2161161,0,-1150051,0,0,0,0,0,0,0,0,0,0,0,0,4090150,0,0,0,0,0,0,0
6,183,854.572384734638,0,0,345246.799667229,345247.846649789,0,3,8,1,0,28,7,3181071,2020151,3190172,9422391,0,0,0,0,0,0,3181071,0,0,2020151,0,0,0,0,0,0,0,0,0,0,0,0,0,0,1170101,0,2020071,-3190050,0,0,1070180,0,2131101,0,3031060,0
6,184,923.950819065794,1,0,345249.823081709,345250.870091217,0,3,8,0,1,17,3,0,2070131,5190250,3181080,0,0,0,0,0,0,0,0,0,0,0,0,0,0,0,0,-2070131,0,0,1160100,0,0,0,0,0,4030150,0,0,0,0,3181080,0,0,0,0,0
6,185,1067.28679838125,0,0,345252.940634158,345253.98765021,0,3,8,0,0,9,7,8102271,6292451,1200100,3081070,0,0,0,0,0,4081191,0,0,-4021080,0,1020080,0,0,0,1061041,1150160,0,3061170,0,0,0,1200100,0,0,0,0,0,3081070,0,0,0,0,0,0,0,0
6,186,1016.68983942363,0,0,345256.246425588,345257.293442025,0,3,8,0,0,31,3,4151160,0,0,5122281,3091050,0,1060110,0,0,0,0,0,0,0,0,0,0,0,0,0,0,0,0,0,0,0,0,0,0,0,0,1011160,0,0,-4111121,0,0,0,0,0
6,187,789.60983757861,1,0,345259.446330426,345260.493359182,0,3,8,1,1,19,3,0,6401331,2390370,0,0,0,0,0,0,0,0,0,0,0,3201151,3200180,0,0,0,0,0,0,-1200170,0,0,0,0,0,0,0,1190200,0,0,0,0,0,0,0,0,0
6,188,1648.29374849796,1,0,345262.481541265,345263.528560397,0,3,8,0,1,34,3,0,4070111,4160100,4152260,0,0,0,0,0,0,0,0,0,4070111,0,0,0,0,0,0,0,0,0,4160100,0,0,0,0,0,0,0,0,0,0,0,2031170,0,-2121090,0,0
6,189,1104.13795628119,0,0,345266.363780552,345267.410803918,0,3,8,1,0,33,3,1171060,4260161,0,3130131,0,0,0,0,1171060,0,0,0,0,0,3180020,1080141,0,0,0,0,0,0,0,0,0,0,0,0,0,0,0,0,0,0,0,0,-3130131,0,0,0
6,190,2060.45335636009,1,0,345269.634264132,345270.681299432,0,3,8,0,1,12,7,4240302,10442432,0,8141091,2160181,0,0,0,0,1040021,1040100,0,0,0,4161181,-2191190,0,0,0,0,4090061,0,0,0,0,0,0,0,0,0,0,0,0,0,0,4111041,0,4030050,0,0
6,191,1083.56910722796,0,0,345273.834185523,345274.881186947,0,3,8,1,0,11,7,4050040,3161261,3201371,9360163,0,0,0,4050040,0,0,0,0,0,0,-2151131,0,0,0,0,1010130,0,0,0,0,1140190,0,2061181,0,0,0,0,0,2090031,0,3080041,0,0,4190091,0,0
6,192,1229.9535923521,0,0,345276.998777122,345278.045797409,0,3,8,1,0,7,3,2060150,2020091,0,3201241,0,0,0,0,0,0,-2060150,0,0,2020091,0,0,0,0,0,0,0,0,0,0,0,0,0,0,0,0,0,0,0,1050201,0,0,0,2151040,0,0
6,193,1590.86296253372,0,0,345283.539763531,345284.586788437,0,3,9,0,0,14,7,4142302,6270140,10410383,4030091,0,0,0,1021111,0,0,3121191,0,0,0,3150130,0,0,-3120010,0,0,0,0,0,0,3130111,0,0,4120091,0,3160181,0,0,0,0,0,0,0,0,0,4030091
6,194,1311.25888717361,0,0,345287.257311899,345288.304335265,0,3,9,1,0,19,3,0,6401331,2390370,0,0,0,0,0,0,0,0,0,0,0,3201151,3200180,0,0,0,0,0,0,-1200170,0,0,0,0,0,0,0,1190200,0,0,0,0,0,0,0,0,0
6,195,1287.1149056009,0,0,345290.645441089,345291.692475234,0,3,9,0,0,31,3,3091171,2130020,1051011,4020181,0,0,0,0,0,0,3091171,0,0,0,0,0,2130020,0,0,0,0,0,0,0,1051011,0,0,0,0,0,0,0,0,0,-4020181,0,0,0,0,0
6,196,1406.68224031106,1,0,345294.010061483,345295.057090623,0,3,9,1,1,4,7,8211181,5110320,0,11453393,0,0,4070070,-4141111,0,0,0,0,0,0,0,4050130,0,1060190,0,0,0,0,0,0,0,0,0,0,0,0,0,3091111,0,2130031,4141121,0,2091130,0,0,0
6,197,1417.70559741417,1,0,345297.668816303,345298.715810413,0,3,9,0,1,1,3,3081021,3041081,2051121,1061011,-3081021,0,0,0,0,0,0,0,0,3041081,0,0,0,0,0,0,0,0,0,0,0,0,0,0,0,2051121,0,0,0,0,0,1061011,0,0,0,0
6,198,899.26211774582,0,0,345301.292205915,345302.339228512,0,3,9,0,0,9,3,1011051,3140100,7061132,0,0,0,0,0,0,0,0,0,-1011051,0,0,0,3140100,0,0,0,0,0,0,0,0,0,0,0,0,4011071,3050061,0,0,0,0,0,0,0,0,0
6,199,1497.08146794001,1,0,345304.327417525,345305.374437811,0,3,9,1,1,24,7,2051131,9403381,4111201,5162342,0,0,2051131,0,0,0,0,0,0,1111141,0,3080020,0,0,0,1191160,0,4021060,0,0,0,0,0,-4111201,0,0,0,3021161,2141181,0,0,0,0,0,0,0
6,200,1374.49719419237,0,0,345307.997903646,345309.044925472,0,3,9,0,0,18,7,0,14403612,11392331,0,0,0,0,0,0,0,0,0,0,0,4021021,1011201,0,0,0,3110120,2101140,-4160130,0,4180060,3131081,0,0,0,0,0,4081190,0,0,0,0,0,0,0,0,0
6,201,1789.49935379205,1,0,345311.597818723,345312.644831311,0,3,9,0,1,34,7,4171201,5071241,4130082,4221251,0,0,3011051,0,0,0,0,1160150,0,2010081,0,0,3061160,0,0,0,0,0,0,0,0,0,2070041,0,0,0,2060041,0,0,0,0,0,2120160,-2101091,0,0
6,202,880.38363220403,0,0,345315.480042612,345316.527070213,0,3,9,1,0,25,3,0,1050010,7231222,1090131,0,0,0,0,0,0,0,0,0,0,0,1050010,0,0,0,0,0,0,0,0,0,0,3121081,0,-4110141,0,0,0,1090131,0,0,0,0,0,0,0
6,203,871.926809835713,1,0,345318.609371787,345319.656390533,0,3,9,1,1,16,3,2050110,3311212,0,4090150,2050110,0,0,0,0,0,0,0,0,0,0,0,0,2161161,0,-1150051,0,0,0,0,0,0,0,0,0,0,0,0,4090150,0,0,0,0,0,0,0
6,204,1418.55097172083,1,0,345321.585750197,345322.632777798,0,3,9,0,1,2,7,5253212,5133262,1080180,3011090,1091111,-1051030,3111071,0,0,0,0,0,0,0,3041020,0,1041181,0,0,0,1051061,0,0,0,0,0,1080180,0,0,0,0,0,0,3011090,0,0,0,0,0,0
6,205,920.991239196155,0,0,345325.103298643,345326.150322394,0,3,9,0,0,5,3,7521152,3120031,0,0,0,0,2161070,0,-4160061,0,1200021,0,0,3120031,0,0,0,0,0,0,0,0,0,0,0,0,0,0,0,0,0,0,0,0,0,0,0,0,0,0
6,206,1510.96508494811,0,0,345328.150275814,345329.197293406,0,3,9,0,0,36,3,3040011,3150201,0,5230220,3040011,0,0,0,0,0,0,0,0,0,0,0,0,0,3150201,0,0,0,0,0,0,0,0,0,0,0,0,3110070,0,0,0,0,0,0,0,-2120150
6,207,780.174444487784,1,0,345331.856056695,345332.903075057,0,3,9,1,1,10,7,4341191,5381262,0,13502471,0,0,0,0,1191141,3150050,0,0,0,-2191201,0,3190061,0,0,0,0,0,0,0,0,0,0,0,0,0,0,0,0,0,0,0,0,2041170,4140150,4170140,3151011
6,208,1288.85107953101,1,0,345334.89126484,345335.938289746,0,3,9,1,1,8,3,6181050,4110180,0,2101150,0,0,0,0,2061030,0,0,-4120020,0,0,0,0,0,0,0,0,0,4110180,0,0,0,0,0,0,0,0,0,0,0,0,0,2101150,0,0,0,0
6,209,1551.34671990527,0,0,345338.408810976,345339.455836267,0,3,9,0,0,35,7,0,4372131,5230221,10344572,0,0,0,0,0,0,0,0,0,0,1191080,0,0,0,0,0,0,3181051,0,0,0,2040190,0,0,0,0,3190031,1051161,0,0,1091200,4031111,0,0,-4171100,0
6,210,1761.14389928989,0,0,345342.044007725,345343.091027242,0,3,9,1,0,27,7,4131180,6290241,4040151,8302400,0,0,0,0,4131180,0,0,0,0,0,0,2020010,0,2170080,0,0,2100151,0,0,0,0,0,0,0,0,0,-4040151,0,3160160,2061180,0,3081060,0,0,0,0
6,211,743.789474247023,1,0,345345.926246627,345346.973322348,0,3,9,1,1,28,7,3181071,2020151,3190172,9422391,0,0,0,0,0,0,3181071,0,0,2020151,0,0,0,0,0,0,0,0,0,0,0,0,0,0,1170101,0,2020071,-3190050,0,0,1070180,0,2131101,0,3031060,0
6,212,1299.50756888138,0,0,345348.761466013,345349.808480525,0,3,9,1,0,7,3,2060150,2020091,0,3201241,0,0,0,0,0,0,-2060150,0,0,2020091,0,0,0,0,0,0,0,0,0,0,0,0,0,0,0,0,0,0,0,1050201,0,0,0,2151040,0,0
6,213,1602.42257028585,1,0,345352.149602132,345353.196626653,0,3,9,0,1,12,3,5281151,1101101,4180120,0,0,0,0,1151041,4130110,0,0,0,0,0,0,-1101101,0,0,0,0,0,0,0,0,0,0,0,0,0,4180120,0,0,0,0,0,0,0,0,0,0
6,214,1039.37558882171,1,0,345355.996551663,345357.043576184,0,3,9,1,1,11,7,4050040,3161261,3201371,9360163,0,0,0,4050040,0,0,0,0,0,0,-2151131,0,0,0,0,1010130,0,0,0,0,1140190,0,2061181,0,0,0,0,0,2090031,0,3080041,0,0,4190091,0,0
6,215,656.001821742393,1,0,345359.267052566,345360.314070158,0,3,9,0,1,17,7,2130161,8211371,9503602,2071181,0,0,0,0,0,0,0,0,2130161,4201181,0,0,0,0,0,0,-4010190,0,0,0,1131050,4061160,0,2151191,0,2160201,0,0,0,0,2071181,0,0,0,0,0
6,216,1647.97769556753,1,0,345362.11402404,345363.161053181,0,3,9,1,1,33,3,1171060,4260161,0,3130131,0,0,0,0,1171060,0,0,0,0,0,3180020,1080141,0,0,0,0,0,0,0,0,0,0,0,0,0,0,0,0,0,0,0,0,-3130131,0,0,0
6,217,2027.69972290844,1,0,345368.949129862,345369.996154383,0,3,10,1,1,4,7,8211181,5110320,0,11453393,0,0,4070070,-4141111,0,0,0,0,0,0,0,4050130,0,1060190,0,0,0,0,0,0,0,0,0,0,0,0,0,3091111,0,2130031,4141121,0,2091130,0,0,0
6,218,666.431184159592,0,0,345373.031369842,345374.078383584,0,3,10,0,0,9,3,4080302,0,4071041,3130171,0,3040131,0,0,0,0,0,0,-1040171,0,0,0,0,0,0,0,0,0,0,0,0,0,0,4071041,0,0,0,0,0,0,0,3130171,0,0,0,0
6,219,1427.60871816427,0,0,345375.937166815,345376.984191336,0,3,10,0,0,18,7,0,10270341,8292192,8351220,0,0,0,0,0,0,0,0,0,4080110,3110060,0,0,0,0,0,0,-3080171,0,0,0,0,2190131,0,3041031,0,3061030,0,0,0,4161110,0,0,0,0,4190110
6,220,1047.14949050685,0,0,345379.501769809,345380.548791635,0,3,10,0,0,36,3,0,4101081,5220351,3151031,0,0,0,0,0,0,0,0,0,0,0,0,0,0,4101081,0,0,0,0,0,0,0,0,4180201,0,0,1040150,0,0,0,0,0,0,0,0,-3151031
6,221,2432.63900297461,0,0,345382.784097483,345383.831092362,0,3,10,0,0,35,3,4170021,5102322,0,3201131,0,0,0,0,0,4170021,0,0,0,0,0,0,4071201,1031121,0,0,0,0,0,0,0,0,0,0,0,0,0,0,0,0,0,0,0,0,-3201131,0
6,222,970.207343169022,0,0,345387.360374802,345388.407399324,0,3,10,1,0,25,3,0,1050010,7231222,1090131,0,0,0,0,0,0,0,0,0,0,0,1050010,0,0,0,0,0,0,0,0,0,0,3121081,0,-4110141,0,0,0,1090131,0,0,0,0,0,0,0
6,223,807.406967796851,0,0,345390.466169389,345391.51319545,0,3,10,0,0,14,7,7291202,9464472,1101200,2200030,0,0,4100111,0,0,0,0,3191091,0,0,2181171,0,0,-3061110,0,0,3021041,1201150,0,0,0,0,1101200,0,0,0,0,0,0,0,2200030,0,0,0,0,0
6,224,1207.44223025395,1,0,345393.360202725,345394.407228786,0,3,10,0,1,2,7,12291402,4242320,0,8290171,0,-4031081,0,2110111,0,0,0,3110050,3040160,0,0,0,0,0,2131180,0,2111140,0,0,0,0,0,0,0,0,0,0,4140010,0,0,0,0,4150161,0,0,0
6,225,1418.8212142908,1,0,345396.677760101,345397.724778078,0,3,10,0,1,12,7,1160140,9292381,3131151,7181142,0,0,0,0,0,0,0,0,1160140,0,4031130,-1100130,0,0,0,1101071,3060050,0,0,0,0,0,0,0,3131151,0,0,0,0,0,0,0,3151081,0,0,4030061
6,226,936.976358178072,1,0,345400.277660935,345401.324676218,0,3,10,0,1,34,3,0,7221170,0,8231211,0,0,0,0,0,0,0,0,0,3031080,0,0,0,0,0,0,4190090,0,0,0,0,0,0,0,0,0,0,0,0,0,0,0,0,-4070101,0,4161110
6,227,820.656169205904,1,0,345403.46581099,345404.512876317,0,3,10,1,1,28,7,3181071,2020151,3190172,9422391,0,0,0,0,0,0,3181071,0,0,2020151,0,0,0,0,0,0,0,0,0,0,0,0,0,0,1170101,0,2020071,-3190050,0,0,1070180,0,2131101,0,3031060,0
6,228,2711.97553054662,1,0,345406.430438082,345407.477446435,0,3,10,0,1,31,7,4081110,2060191,3161101,10643563,0,0,0,0,0,0,0,4081110,0,2060191,0,0,0,0,0,0,0,0,0,0,0,0,3161101,0,0,0,0,1181051,2011200,3200081,-1150050,0,0,0,0,3101181
6,229,1018.21466977708,1,0,345411.336165378,345412.383187589,0,3,10,0,1,5,3,1031190,0,7310320,2111060,0,0,0,0,-1031190,0,0,0,0,0,0,0,0,0,0,0,0,0,4180200,0,0,0,3130120,0,0,0,0,0,0,0,0,0,0,0,0,2111060
6,230,1607.69037605496,0,0,345414.547838857,345415.594863763,0,3,10,1,0,16,3,2050110,3311212,0,4090150,2050110,0,0,0,0,0,0,0,0,0,0,0,0,2161161,0,-1150051,0,0,0,0,0,0,0,0,0,0,0,0,4090150,0,0,0,0,0,0,0
6,231,1166.29760270007,0,0,345418.230090155,345419.277112751,0,3,10,0,0,1,3,3061200,0,4100091,3290111,-3061200,0,0,0,0,0,0,0,0,0,0,0,0,0,0,0,0,0,0,0,0,0,0,0,0,0,4100091,0,0,0,0,2110050,1180061,0,0,0
6,232,952.436005405616,1,0,345421.488828576,345422.535848478,0,3,10,1,1,27,7,4131180,6290241,4040151,8302400,0,0,0,0,4131180,0,0,0,0,0,0,2020010,0,2170080,0,0,2100151,0,0,0,0,0,0,0,0,0,-4040151,0,3160160,2061180,0,3081060,0,0,0,0
6,233,1088.88605533866,0,0,345424.594683216,345425.641498451,0,3,10,0,0,17,7,0,5222490,7311090,9441521,0,0,0,0,0,0,0,0,0,1011140,2180160,0,0,0,0,0,-2031190,0,0,0,0,0,0,0,0,3110070,4201020,0,0,0,4190180,4201160,0,1050181,0,0
6,234,2205.77534922631,1,0,345427.900409203,345428.947429104,0,3,10,1,1,19,3,0,6401331,2390370,0,0,0,0,0,0,0,0,0,0,0,3201151,3200180,0,0,0,0,0,0,-1200170,0,0,0,0,0,0,0,1190200,0,0,0,0,0,0,0,0,0
6,235,1193.69334948715,1,0,345432.182641021,345433.229664388,0,3,10,1,1,33,3,1171060,4260161,0,3130131,0,0,0,0,1171060,0,0,0,0,0,3180020,1080141,0,0,0,0,0,0,0,0,0,0,0,0,0,0,0,0,0,0,0,0,-3130131,0,0,0
6,236,818.648212822154,0,0,345435.535496238,345436.58251383,0,3,10,1,0,11,7,4050040,3161261,3201371,9360163,0,0,0,4050040,0,0,0,0,0,0,-2151131,0,0,0,0,1010130,0,0,0,0,1140190,0,2061181,0,0,0,0,0,2090031,0,3080041,0,0,4190091,0,0
6,237,1063.99923178833,0,0,345438.476579503,345439.52360056,0,3,10,1,0,8,3,6181050,4110180,0,2101150,0,0,0,0,2061030,0,0,-4120020,0,0,0,0,0,0,0,0,0,4110180,0,0,0,0,0,0,0,0,0,0,0,0,0,2101150,0,0,0,0
6,238,609.043513832148,0,0,345441.794134185,345442.841159091,0,3,10,1,0,7,3,2060150,2020091,0,3201241,0,0,0,0,0,0,-2060150,0,0,2020091,0,0,0,0,0,0,0,0,0,0,0,0,0,0,0,0,0,0,0,1050201,0,0,0,2151040,0,0
6,239,2228.06112427497,1,0,345444.488179917,345445.535193659,0,3,10,1,1,24,7,2051131,9403381,4111201,5162342,0,0,2051131,0,0,0,0,0,0,1111141,0,3080020,0,0,0,1191160,0,4021060,0,0,0,0,0,-4111201,0,0,0,3021161,2141181,0,0,0,0,0,0,0
6,240,592.004756734241,0,0,345448.840997023,345449.888014615,0,3,10,1,0,10,7,4341191,5381262,0,13502471,0,0,0,0,1191141,3150050,0,0,0,-2191201,0,3190061,0,0,0,0,0,0,0,0,0,0,0,0,0,0,0,0,0,0,0,0,2041170,4140150,4170140,3151011
6,241,1942.61218665633,1,0,345454.911405612,345455.958441298,0,3,11,1,1,8,3,6181050,4110180,0,2101150,0,0,0,0,2061030,0,0,-4120020,0,0,0,0,0,0,0,0,0,4110180,0,0,0,0,0,0,0,0,0,0,0,0,0,2101150,0,0,0,0
6,242,1534.24405923579,1,0,345458.993649442,345460.040673193,0,3,11,0,1,1,7,6452291,3050180,10381302,4181141,-1161040,0,1120141,0,0,4171110,0,0,0,0,0,3050180,0,0,0,0,0,0,0,0,0,3200091,4110141,3071070,0,0,0,0,0,0,4181141,0,0,0,0,0
6,243,1075.80367469927,1,0,345462.605316223,345463.652333045,0,3,11,1,1,27,7,4131180,6290241,4040151,8302400,0,0,0,0,4131180,0,0,0,0,0,0,2020010,0,2170080,0,0,2100151,0,0,0,0,0,0,0,0,0,-4040151,0,3160160,2061180,0,3081060,0,0,0,0
6,244,1104.31888798485,0,0,345465.887576529,345466.93460259,0,3,11,1,0,4,7,8211181,5110320,0,11453393,0,0,4070070,-4141111,0,0,0,0,0,0,0,4050130,0,1060190,0,0,0,0,0,0,0,0,0,0,0,0,0,3091111,0,2130031,4141121,0,2091130,0,0,0
6,245,825.194089033175,0,0,345469.22865348,345470.275679156,0,3,11,0,0,9,7,8281321,2201051,4081341,8293263,0,0,0,0,0,0,4150130,0,-4131191,2201051,0,0,0,0,0,0,0,0,0,0,0,0,2060170,0,2021171,0,0,0,0,2121031,0,0,0,0,2021101,4151131
6,246,835.531060758512,1,0,345472.193276723,345473.240302399,0,3,11,0,1,2,3,10271301,0,2190150,0,4100061,-4031040,0,0,0,0,2140200,0,0,0,0,0,0,0,0,0,0,0,0,0,0,2190150,0,0,0,0,0,0,0,0,0,0,0,0,0,0
6,247,913.129181484692,0,0,345475.12260482,345476.169625876,0,3,11,0,0,12,3,0,3100131,7082161,4151180,0,0,0,0,0,0,0,0,0,0,0,-3100131,0,0,0,0,0,0,0,0,3061131,0,4021030,0,0,0,0,0,0,0,0,0,4151180,0,0,0
6,248,2311.62498501362,0,0,345478.13428338,345479.181305592,0,3,11,0,0,36,7,0,5211161,5251251,7603212,0,0,0,0,0,0,0,0,0,0,0,1120150,0,0,0,0,4091011,0,1201050,0,0,0,4050201,0,0,0,0,0,0,2191060,2161061,0,0,1181060,0,-2070031
6,249,1508.83509597043,1,0,345482.592985923,345483.640012754,0,3,11,1,1,11,7,4050040,3161261,3201371,9360163,0,0,0,4050040,0,0,0,0,0,0,-2151131,0,0,0,0,1010130,0,0,0,0,1140190,0,2061181,0,0,0,0,0,2090031,0,3080041,0,0,4190091,0,0
6,250,1199.63406707393,1,0,345486.228175744,345487.27520219,0,3,11,1,1,7,3,2060150,2020091,0,3201241,0,0,0,0,0,0,-2060150,0,0,2020091,0,0,0,0,0,0,0,0,0,0,0,0,0,0,0,0,0,0,0,1050201,0,0,0,2151040,0,0
6,251,1203.38628150057,0,0,345489.663371801,345490.710400171,0,3,11,0,0,18,7,1180030,7180141,9311182,3321202,0,0,0,1180030,0,0,0,0,0,0,4050070,0,0,0,0,0,0,-3130071,4050121,0,0,0,0,0,1091050,0,4170011,2201111,0,0,0,0,1120091,0,0,0
6,252,1543.29102678457,1,0,345493.110335729,345494.15735794,0,3,11,0,1,35,3,2141180,0,3171121,4221292,0,0,0,0,0,2141180,0,0,0,0,0,0,0,0,0,0,0,0,3171121,0,0,0,0,0,0,0,0,0,0,0,3201101,0,0,0,-1020191,0
6,253,719.012616900727,1,0,345496.745524394,345497.792553535,0,3,11,0,1,17,3,1141181,4101222,0,3090140,1141181,0,0,0,0,0,0,0,0,0,0,0,0,2010101,0,0,-2091121,0,0,0,0,0,0,0,0,0,0,0,0,0,0,0,3090140,0,0,0
6,254,961.88718196936,0,0,345499.639568124,345500.686591491,0,3,11,1,0,33,3,1171060,4260161,0,3130131,0,0,0,0,1171060,0,0,0,0,0,3180020,1080141,0,0,0,0,0,0,0,0,0,0,0,0,0,0,0,0,0,0,0,0,-3130131,0,0,0
6,255,836.041519010905,1,0,345502.733592914,345503.780618206,0,3,11,1,1,28,7,3181071,2020151,3190172,9422391,0,0,0,0,0,0,3181071,0,0,2020151,0,0,0,0,0,0,0,0,0,0,0,0,0,0,1170101,0,2020071,-3190050,0,0,1070180,0,2131101,0,3031060,0
6,256,655.228435236495,0,0,345505.698218852,345506.745241833,0,3,11,1,0,16,3,2050110,3311212,0,4090150,2050110,0,0,0,0,0,0,0,0,0,0,0,0,2161161,0,-1150051,0,0,0,0,0,0,0,0,0,0,0,0,4090150,0,0,0,0,0,0,0
6,257,1465.53083747858,0,0,345508.462858725,345509.509865923,0,3,11,0,0,34,7,5051121,3152230,5300291,1130140,2030011,0,0,0,0,0,3021110,0,0,1061190,0,0,0,0,0,0,2091040,0,0,0,2090131,0,0,0,0,2100070,1110090,0,0,0,0,0,0,-1130140,0,0
6,258,1260.62304712832,0,0,345512.062764563,345513.109772146,0,3,11,1,0,24,7,2051131,9403381,4111201,5162342,0,0,2051131,0,0,0,0,0,0,1111141,0,3080020,0,0,0,1191160,0,4021060,0,0,0,0,0,-4111201,0,0,0,3021161,2141181,0,0,0,0,0,0,0
6,259,648.268726014066,0,0,345515.474407168,345516.533202256,0,3,11,1,0,10,7,4341191,5381262,0,13502471,0,0,0,0,1191141,3150050,0,0,0,-2191201,0,3190061,0,0,0,0,0,0,0,0,0,0,0,0,0,0,0,0,0,0,0,0,2041170,4140150,4170140,3151011
6,260,1064.27755858749,1,0,345518.239043577,345519.286059244,0,3,11,1,1,19,3,0,6401331,2390370,0,0,0,0,0,0,0,0,0,0,0,3201151,3200180,0,0,0,0,0,0,-1200170,0,0,0,0,0,0,0,1190200,0,0,0,0,0,0,0,0,0
6,261,1715.32661560923,0,0,345521.38012253,345522.427150131,0,3,11,0,0,5,3,7440401,2080201,0,0,0,0,2140140,0,-3140101,2160160,0,0,0,0,0,0,0,0,2080201,0,0,0,0,0,0,0,0,0,0,0,0,0,0,0,0,0,0,0,0,0
6,262,1785.25477426592,0,0,345525.332958268,345526.379976245,0,3,11,0,0,14,7,8300390,9432451,4040200,2120070,0,3040080,0,4170180,0,1090130,0,0,0,0,3151130,0,0,-2120180,0,4161141,0,0,0,0,0,0,0,4040200,0,0,0,0,0,0,0,0,0,2120070,0,0
6,263,1620.1276947977,1,0,345529.368134076,345530.415160137,0,3,11,1,1,25,3,0,1050010,7231222,1090131,0,0,0,0,0,0,0,0,0,0,0,1050010,0,0,0,0,0,0,0,0,0,0,3121081,0,-4110141,0,0,0,1090131,0,0,0,0,0,0,0
6,264,1289.68952450668,0,0,345533.144500629,345534.191528615,0,3,11,0,0,31,3,3232232,4200031,0,2020050,0,0,0,0,1031061,0,0,2201171,0,0,0,4200031,0,0,0,0,0,0,0,0,0,0,0,0,0,0,0,0,0,0,-2020050,0,0,0,0,0
6,265,1007.01461557765,0,0,345544.003019392,345545.050042373,0,3,12,0,0,1,3,5121341,0,4050091,2080170,-4100150,0,0,0,0,0,0,0,1021191,0,0,0,0,0,0,0,0,0,0,0,0,0,0,0,0,4050091,0,0,0,0,0,0,0,0,0,2080170
6,266,621.470823592972,0,0,345547.12057954,345548.167602521,0,3,12,1,0,16,3,2050110,3311212,0,4090150,2050110,0,0,0,0,0,0,0,0,0,0,0,0,2161161,0,-1150051,0,0,0,0,0,0,0,0,0,0,0,0,4090150,0,0,0,0,0,0,0
6,267,1105.34711868968,0,0,345549.861677125,345550.908700877,0,3,12,1,0,24,7,2051131,9403381,4111201,5162342,0,0,2051131,0,0,0,0,0,0,1111141,0,3080020,0,0,0,1191160,0,4021060,0,0,0,0,0,-4111201,0,0,0,3021161,2141181,0,0,0,0,0,0,0
6,268,1242.66577325761,1,0,345553.214526568,345554.261542235,0,3,12,1,1,4,7,8211181,5110320,0,11453393,0,0,4070070,-4141111,0,0,0,0,0,0,0,4050130,0,1060190,0,0,0,0,0,0,0,0,0,0,0,0,0,3091111,0,2130031,4141121,0,2091130,0,0,0
6,269,806.213588803075,0,0,345556.696782947,345557.743801694,0,3,12,0,0,14,3,4191151,1181061,2110060,1101041,0,0,0,4191151,0,0,0,0,0,0,0,0,0,-1181061,0,0,0,0,0,0,0,0,0,0,0,0,2110060,0,0,0,0,1101041,0,0,0,0
6,270,1031.378024898,1,0,345559.696689787,345560.743720467,0,3,12,1,1,11,7,4050040,3161261,3201371,9360163,0,0,0,4050040,0,0,0,0,0,0,-2151131,0,0,0,0,1010130,0,0,0,0,1140190,0,2061181,0,0,0,0,0,2090031,0,3080041,0,0,4190091,0,0
6,271,1690.83924894221,0,0,345562.826018192,345563.873046947,0,3,12,1,0,28,7,3181071,2020151,3190172,9422391,0,0,0,0,0,0,3181071,0,0,2020151,0,0,0,0,0,0,0,0,0,0,0,0,0,0,1170101,0,2020071,-3190050,0,0,1070180,0,2131101,0,3031060,0
6,272,2090.09381051874,1,0,345566.731796687,345567.778815048,0,3,12,0,1,31,7,9453251,5041261,3160141,4201030,0,3170091,0,0,3101050,0,1111060,2071050,0,2020131,0,0,0,0,3021130,0,0,0,0,0,3160141,0,0,0,0,0,0,0,0,0,-4201030,0,0,0,0,0
6,273,792.689910216723,1,0,345571.002259094,345572.049276686,0,3,12,1,1,10,7,4341191,5381262,0,13502471,0,0,0,0,1191141,3150050,0,0,0,-2191201,0,3190061,0,0,0,0,0,0,0,0,0,0,0,0,0,0,0,0,0,0,0,0,2041170,4140150,4170140,3151011
6,274,1327.18125748215,1,0,345574.025700522,345575.072726198,0,3,12,0,1,35,3,0,0,5261292,4392120,0,0,0,0,0,0,0,0,0,0,0,0,0,0,0,0,0,0,0,0,0,0,3060101,2201191,0,0,0,3201110,0,0,0,0,0,0,-1191010,0
6,275,1316.77152815973,0,0,345577.449138331,345578.496162082,0,3,12,0,0,34,7,4091231,7151283,6171142,4180141,0,0,0,0,0,1051131,0,3040100,0,0,0,0,0,0,2080131,3051121,0,2020031,0,0,0,0,3030021,0,3141121,0,0,0,0,0,0,0,0,-4180141,0,0
6,276,1404.45601107785,1,0,345580.884334003,345581.931359679,0,3,12,0,1,36,3,3030010,0,1170061,4050201,0,0,0,0,0,0,3030010,0,0,0,0,0,0,0,0,0,0,0,0,0,0,0,0,1170061,0,0,0,0,0,0,0,0,0,0,3030090,-1020111
6,277,1112.71681135986,0,0,345584.495999629,345585.54302261,0,3,12,1,0,27,7,4131180,6290241,4040151,8302400,0,0,0,0,4131180,0,0,0,0,0,0,2020010,0,2170080,0,0,2100151,0,0,0,0,0,0,0,0,0,-4040151,0,3160160,2061180,0,3081060,0,0,0,0
6,278,1267.80102925841,0,0,345587.790072847,345588.837065031,0,3,12,0,0,2,7,16692544,3101060,0,3281150,3191121,-3011141,0,0,0,4090130,2200101,0,4200051,0,0,3101060,0,0,0,0,0,0,0,0,0,0,0,0,0,0,0,0,0,0,0,1131140,2150010,0,0,0
6,279,777.375008328818,1,0,345591.272273792,345592.319298698,0,3,12,0,1,18,3,3180081,2091140,3170130,1160140,0,3180081,0,0,0,0,0,0,0,0,0,0,0,0,0,0,0,-2091140,0,0,0,0,0,0,0,3170130,0,0,0,0,0,0,0,0,0,1160140
6,280,1401.6123044421,1,0,345594.283963516,345595.330999971,0,3,12,1,1,7,3,2060150,2020091,0,3201241,0,0,0,0,0,0,-2060150,0,0,2020091,0,0,0,0,0,0,0,0,0,0,0,0,0,0,0,0,0,0,0,1050201,0,0,0,2151040,0,0
6,281,630.92700461857,1,0,345597.836840214,345598.883848567,0,3,12,0,1,17,7,4020021,3222231,10241561,7132150,0,0,0,0,0,0,4020021,0,0,0,0,0,0,0,2191190,0,-1031041,0,0,4101201,0,0,0,2040200,0,0,4100160,4071030,0,0,0,0,0,0,3061120,0
6,282,656.934967148118,0,0,345600.589658321,345601.636678607,0,3,12,0,0,9,3,1100040,2131081,2201180,3130201,0,0,0,0,0,0,0,0,-1100040,0,2131081,0,0,0,0,0,0,0,0,0,0,0,0,0,0,2201180,0,0,0,0,0,0,0,0,3130201,0
6,283,1545.7370687509,1,0,345603.471936104,345604.518952926,0,3,12,1,1,25,3,0,1050010,7231222,1090131,0,0,0,0,0,0,0,0,0,0,0,1050010,0,0,0,0,0,0,0,0,0,0,3121081,0,-4110141,0,0,0,1090131,0,0,0,0,0,0,0
6,284,861.780008825008,0,0,345607.130650889,345608.17767233,0,3,12,1,0,19,3,0,6401331,2390370,0,0,0,0,0,0,0,0,0,0,0,3201151,3200180,0,0,0,0,0,0,-1200170,0,0,0,0,0,0,0,1190200,0,0,0,0,0,0,0,0,0
6,285,1803.57891600579,0,0,345610.165861728,345611.212880475,0,3,12,0,0,12,7,1061141,6271282,0,10401592,0,0,0,0,0,1061141,0,0,0,0,0,-3140200,0,0,0,0,2090051,1041031,0,0,0,0,0,0,0,0,0,4060150,0,0,3120201,2031180,0,1190061,0,0
6,286,805.499486275949,1,0,345614.153981448,345615.201005199,0,3,12,1,1,8,3,6181050,4110180,0,2101150,0,0,0,0,2061030,0,0,-4120020,0,0,0,0,0,0,0,0,0,4110180,0,0,0,0,0,0,0,0,0,0,0,0,0,2101150,0,0,0,0
6,287,1370.31035876134,1,0,345617.048024023,345618.095040845,0,3,12,0,1,5,7,2181130,3090091,11431453,8172252,0,0,0,0,-2181130,0,0,0,0,0,3090091,0,0,0,0,0,0,0,0,4130201,0,0,0,0,4200111,3101141,0,0,4011031,2031020,0,0,0,0,2130201,0
6,288,680.023385735694,0,0,345620.577327251,345621.624356007,0,3,12,1,0,33,3,1171060,4260161,0,3130131,0,0,0,0,1171060,0,0,0,0,0,3180020,1080141,0,0,0,0,0,0,0,0,0,0,0,0,0,0,0,0,0,0,0,0,-3130131,0,0,0
6,289,1101.19608463719,0,0,345626.671277359,345627.718303035,0,3,13,0,0,14,3,1120060,7201292,4201010,0,0,0,1120060,0,0,0,0,0,0,4140101,0,0,0,-3061191,0,0,0,0,0,0,0,0,0,0,0,0,4201010,0,0,0,0,0,0,0,0,0
6,290,706.7951108329,0,0,345630.000656502,345631.047646761,0,3,13,1,0,33,3,1171060,4260161,0,3130131,0,0,0,0,1171060,0,0,0,0,0,3180020,1080141,0,0,0,0,0,0,0,0,0,0,0,0,0,0,0,0,0,0,0,0,-3130131,0,0,0
6,291,1468.74333667802,1,0,345632.90639804,345633.953477996,0,3,13,0,1,34,3,0,4150110,2150201,5201200,0,0,0,0,0,0,0,0,0,0,0,0,0,4150110,0,0,0,0,0,0,0,0,0,0,0,2150201,0,3171050,0,0,0,0,0,-2030150,0,0
6,292,1036.31784394383,1,0,345636.576885701,345637.623902138,0,3,13,0,1,31,7,0,7342442,8040220,8291262,0,0,0,0,0,0,0,0,0,0,3111170,2060021,1060091,0,0,1111160,0,0,0,0,0,4030200,4010020,0,0,0,0,0,0,0,-4201111,0,0,0,4090151,0
6,293,1150.58349625906,1,0,345639.835613729,345640.882637095,0,3,13,0,1,36,3,0,9481451,0,2061030,0,0,0,0,0,0,0,0,0,0,0,0,0,4181201,3170050,0,2130200,0,0,0,0,0,0,0,0,0,0,0,0,0,0,0,0,0,0,-2061030
6,294,565.44399028644,1,0,345643.129635747,345644.176662963,0,3,13,1,1,16,3,2050110,3311212,0,4090150,2050110,0,0,0,0,0,0,0,0,0,0,0,0,2161161,0,-1150051,0,0,0,0,0,0,0,0,0,0,0,0,4090150,0,0,0,0,0,0,0
6,295,736.774330609478,1,0,345645.941364429,345646.98835007,0,3,13,1,1,28,7,3181071,2020151,3190172,9422391,0,0,0,0,0,0,3181071,0,0,2020151,0,0,0,0,0,0,0,0,0,0,0,0,0,0,1170101,0,2020071,-3190050,0,0,1070180,0,2131101,0,3031060,0
6,296,697.254238359164,0,0,345648.764771673,345649.811800043,0,3,13,1,0,27,7,4131180,6290241,4040151,8302400,0,0,0,0,4131180,0,0,0,0,0,0,2020010,0,2170080,0,0,2100151,0,0,0,0,0,0,0,0,0,-4040151,0,3160160,2061180,0,3081060,0,0,0,0
6,297,1965.89539549313,0,0,345651.541169023,345652.588183535,0,3,13,0,0,1,7,3041150,8372151,6271241,1040070,-3041150,0,0,0,0,0,0,0,0,0,3151010,0,0,0,0,1151100,0,4070041,0,1191040,0,0,0,1030040,0,0,4050161,0,0,0,0,1040070,0,0,0,0
6,298,826.129159191623,0,0,345655.69399121,345656.741011882,0,3,13,0,0,12,3,0,4201090,2040090,3071170,0,0,0,0,0,0,0,0,0,0,0,-2171030,0,0,2030060,0,0,0,0,0,2040090,0,0,0,0,0,0,0,0,3071170,0,0,0,0,0,0
6,299,903.585999272764,1,0,345658.623328161,345659.670334589,0,3,13,1,1,19,3,0,6401331,2390370,0,0,0,0,0,0,0,0,0,0,0,3201151,3200180,0,0,0,0,0,0,-1200170,0,0,0,0,0,0,0,1190200,0,0,0,0,0,0,0,0,0
6,300,1244.59866218967,0,0,345661.670300328,345662.717319075,0,3,13,1,0,24,7,2051131,9403381,4111201,5162342,0,0,2051131,0,0,0,0,0,0,1111141,0,3080020,0,0,0,1191160,0,4021060,0,0,0,0,0,-4111201,0,0,0,3021161,2141181,0,0,0,0,0,0,0
6,301,667.627642804291,0,0,345665.058434522,345666.105459043,0,3,13,1,0,7,3,2060150,2020091,0,3201241,0,0,0,0,0,0,-2060150,0,0,2020091,0,0,0,0,0,0,0,0,0,0,0,0,0,0,0,0,0,0,0,1050201,0,0,0,2151040,0,0
6,302,622.241515433416,0,0,345667.84658935,345668.893620031,0,3,13,1,0,10,7,4341191,5381262,0,13502471,0,0,0,0,1191141,3150050,0,0,0,-2191201,0,3190061,0,0,0,0,0,0,0,0,0,0,0,0,0,0,0,0,0,0,0,0,2041170,4140150,4170140,3151011
6,303,623.011052433867,0,0,345670.622982081,345671.669995054,0,3,13,1,0,11,7,4050040,3161261,3201371,9360163,0,0,0,4050040,0,0,0,0,0,0,-2151131,0,0,0,0,1010130,0,0,0,0,1140190,0,2061181,0,0,0,0,0,2090031,0,3080041,0,0,4190091,0,0
6,304,656.511510082055,1,0,345673.493485834,345674.54050843,0,3,13,0,1,5,7,4301302,2090010,6462321,1010061,0,1190040,0,0,-2060171,0,0,0,1051091,0,0,0,0,0,0,0,2090010,0,0,1200050,2171140,0,0,0,0,0,3091131,0,0,0,0,1010061,0,0,0,0
6,305,977.701378287748,1,0,345676.258126476,345677.305185259,0,3,13,1,1,8,3,6181050,4110180,0,2101150,0,0,0,0,2061030,0,0,-4120020,0,0,0,0,0,0,0,0,0,4110180,0,0,0,0,0,0,0,0,0,0,0,0,0,2101150,0,0,0,0
6,306,677.110771124717,0,0,345679.328616678,345680.37563812,0,3,13,1,0,4,7,8211181,5110320,0,11453393,0,0,4070070,-4141111,0,0,0,0,0,0,0,4050130,0,1060190,0,0,0,0,0,0,0,0,0,0,0,0,0,3091111,0,2130031,4141121,0,2091130,0,0,0
6,307,792.657573532779,0,0,345682.152074736,345683.199131209,0,3,13,0,0,9,7,7421473,1160091,8420201,3191191,0,3161141,0,2150151,0,0,0,0,-2110181,0,1160091,0,0,0,0,0,0,0,0,0,0,0,4110131,2200050,0,2110020,0,0,0,0,0,0,0,3191191,0,0
6,308,1040.26292386698,1,0,345685.175518474,345686.222531446,0,3,13,1,1,25,3,0,1050010,7231222,1090131,0,0,0,0,0,0,0,0,0,0,0,1050010,0,0,0,0,0,0,0,0,0,0,3121081,0,-4110141,0,0,0,1090131,0,0,0,0,0,0,0
6,309,1180.42759480886,1,0,345688.328364529,345689.375390205,0,3,13,0,1,35,7,3090040,9392502,0,13552261,0,0,0,0,0,0,0,3090040,0,2101121,0,3181180,0,0,4110201,0,0,0,0,0,0,0,0,0,0,0,0,0,2061130,0,4180061,0,3110050,0,-4201020,0
6,310,1014.54175723484,1,0,345691.634249889,345692.6811774,0,3,13,0,1,2,7,7220212,9331381,6132411,0,0,-3190161,4030051,0,0,0,0,0,0,3111020,0,0,0,2060160,4160201,0,0,0,0,0,1070141,3041080,2021190,0,0,0,0,0,0,0,0,0,0,0,0,0
6,311,735.433126683347,1,0,345694.775245305,345695.822271751,0,3,13,0,1,17,3,4121010,4050191,0,6241201,0,0,0,0,0,0,4121010,0,0,0,0,0,0,0,0,0,-4050191,0,0,0,0,0,0,0,0,0,0,0,3191180,0,0,0,3050021,0,0,0
6,312,946.332834311761,0,0,345697.763392357,345698.810418034,0,3,13,0,0,18,3,1141181,6280312,3151181,0,1141181,0,0,0,0,0,0,0,0,0,0,0,0,2110111,0,0,0,-4170201,0,0,0,3151181,0,0,0,0,0,0,0,0,0,0,0,0,0,0
6,313,763.226538139861,0,0,345704.36320542,345705.410232636,0,3,14,0,0,5,3,3190111,3121120,4171181,2160111,0,0,0,0,-3190111,0,0,0,0,0,0,0,3121120,0,0,0,0,0,0,0,0,0,0,0,4171181,0,0,0,2160111,0,0,0,0,0,0,0
6,314,726.661791151855,0,0,345707.269006628,345708.316032689,0,3,14,1,0,8,3,6181050,4110180,0,2101150,0,0,0,0,2061030,0,0,-4120020,0,0,0,0,0,0,0,0,0,4110180,0,0,0,0,0,0,0,0,0,0,0,0,0,2101150,0,0,0,0
6,315,1790.68695835304,1,0,345710.174813995,345711.22185507,0,3,14,0,1,31,7,5200242,0,1080150,12582583,0,0,0,1050081,0,4150161,0,0,0,0,0,0,0,0,0,0,0,0,0,0,0,1080150,0,0,0,0,0,2111160,0,2010181,-2170021,0,2090131,4201090,0,0
6,316,693.563232664019,1,0,345714.068827698,345715.115840286,0,3,14,1,1,16,3,2050110,3311212,0,4090150,2050110,0,0,0,0,0,0,0,0,0,0,0,0,2161161,0,-1150051,0,0,0,0,0,0,0,0,0,0,0,0,4090150,0,0,0,0,0,0,0
6,317,1019.02000809787,1,0,345716.939327601,345717.986350197,0,3,14,1,1,19,3,0,6401331,2390370,0,0,0,0,0,0,0,0,0,0,0,3201151,3200180,0,0,0,0,0,0,-1200170,0,0,0,0,0,0,0,1190200,0,0,0,0,0,0,0,0,0
6,318,603.545886348002,1,0,345720.056885439,345721.103903801,0,3,14,0,1,17,7,6222302,5142262,2031110,7303382,3181121,0,0,0,0,0,3041181,0,0,0,0,0,0,0,0,0,-1061091,4081171,0,0,0,0,0,2031110,0,0,0,0,0,0,0,1021141,0,0,2111111,4171130
6,319,2098.12525106827,1,0,345722.786219003,345723.833242369,0,3,14,0,1,12,3,0,1010151,8331242,4141060,0,0,0,0,0,0,0,0,0,0,0,-1010151,0,0,0,0,0,0,0,0,4130081,4201161,0,0,0,0,0,0,0,0,4141060,0,0,0,0,0
6,320,1434.72895602463,1,0,345727.115504215,345728.162560688,0,3,14,0,1,36,7,3041111,1181011,6190311,9513691,0,0,0,0,0,0,0,0,3041111,0,1181011,0,0,0,0,0,0,0,0,0,0,0,0,3170180,3020131,0,0,0,3101200,0,0,1121110,0,1171190,0,-4120191
6,321,897.874333546497,1,0,345730.715408129,345731.76242649,0,3,14,1,1,7,3,2060150,2020091,0,3201241,0,0,0,0,0,0,-2060150,0,0,2020091,0,0,0,0,0,0,0,0,0,0,0,0,0,0,0,0,0,0,0,1050201,0,0,0,2151040,0,0
6,322,740.459561930038,0,0,345733.844731914,345734.891762209,0,3,14,0,0,9,3,2061010,3180171,0,7061171,0,0,0,0,0,0,0,0,-2061010,0,0,0,0,3180171,0,0,0,0,0,0,0,0,0,0,0,0,0,0,0,0,4010160,0,0,0,0,3051011
6,323,1356.00328462897,1,0,345736.71524144,345737.762258647,0,3,14,0,1,35,7,4181242,5402261,1070181,5381141,0,0,0,0,0,1151151,3030091,0,0,3101050,0,0,0,0,1190161,0,1111050,0,0,0,0,0,0,0,1070181,0,0,0,2181110,0,0,0,0,0,-3200031,0
6,324,817.887144978158,1,0,345740.209246058,345741.256276739,0,3,14,1,1,28,7,3181071,2020151,3190172,9422391,0,0,0,0,0,0,3181071,0,0,2020151,0,0,0,0,0,0,0,0,0,0,0,0,0,0,1170101,0,2020071,-3190050,0,0,1070180,0,2131101,0,3031060,0
6,325,893.032294581644,0,0,345743.11506305,345744.162084491,0,3,14,1,0,25,3,0,1050010,7231222,1090131,0,0,0,0,0,0,0,0,0,0,0,1050010,0,0,0,0,0,0,0,0,0,0,3121081,0,-4110141,0,0,0,1090131,0,0,0,0,0,0,0
6,326,1037.33337094309,0,0,345746.220848397,345747.267867914,0,3,14,0,0,2,7,10201431,0,9281351,8141332,0,-4040201,0,0,0,4020030,2141200,0,0,0,0,0,0,0,0,0,0,0,0,0,0,2110040,4140111,0,0,3031200,0,0,0,4061141,4080191,0,0,0,0,0
6,327,1056.27037060913,0,0,345749.36197624,345750.409028863,0,3,14,1,0,24,7,2051131,9403381,4111201,5162342,0,0,2051131,0,0,0,0,0,0,1111141,0,3080020,0,0,0,1191160,0,4021060,0,0,0,0,0,-4111201,0,0,0,3021161,2141181,0,0,0,0,0,0,0
6,328,879.296117520425,0,0,345752.608890585,345753.655930505,0,3,14,0,0,34,3,0,2071160,4011200,7261182,0,0,0,0,0,0,0,0,0,0,0,0,0,0,2071160,0,0,0,0,0,0,0,0,0,4011200,0,0,4191011,0,0,0,0,0,-3070171,0,0
6,329,1722.7271051961,0,0,345755.585291324,345756.632315075,0,3,14,1,0,27,7,4131180,6290241,4040151,8302400,0,0,0,0,4131180,0,0,0,0,0,0,2020010,0,2170080,0,0,2100151,0,0,0,0,0,0,0,0,0,-4040151,0,3160160,2061180,0,3081060,0,0,0,0
6,330,1431.25198868802,1,0,345759.502823447,345760.549877225,0,3,14,0,1,1,3,1131201,2171150,1021130,2040091,-1131201,0,0,0,0,0,0,0,0,0,0,0,0,2171150,0,0,0,0,0,0,0,0,0,0,1021130,0,0,0,0,2040091,0,0,0,0,0,0
6,331,948.230306908954,1,0,345762.996855012,345764.043871834,0,3,14,1,1,11,7,4050040,3161261,3201371,9360163,0,0,0,4050040,0,0,0,0,0,0,-2151131,0,0,0,0,1010130,0,0,0,0,1140190,0,2061181,0,0,0,0,0,2090031,0,3080041,0,0,4190091,0,0
6,332,861.242603335995,0,0,345766.114400917,345767.161676432,0,3,14,1,0,33,3,1171060,4260161,0,3130131,0,0,0,0,1171060,0,0,0,0,0,3180020,1080141,0,0,0,0,0,0,0,0,0,0,0,0,0,0,0,0,0,0,0,0,-3130131,0,0,0
6,333,853.703912813216,0,0,345769.220237849,345770.267242352,0,3,14,1,0,4,7,8211181,5110320,0,11453393,0,0,4070070,-4141111,0,0,0,0,0,0,0,4050130,0,1060190,0,0,0,0,0,0,0,0,0,0,0,0,0,3091111,0,2130031,4141121,0,2091130,0,0,0
6,334,937.374792760238,0,0,345772.243671192,345773.290676466,0,3,14,0,0,14,7,5111311,4171211,6281102,3201081,0,0,0,0,4021200,0,0,1090111,0,1161031,0,0,0,-3010180,0,0,0,0,3101011,0,3180091,0,0,0,0,0,0,0,2070040,0,0,0,0,0,0,1131041
6,335,556.520595215261,0,0,345775.408264331,345776.455282308,0,3,14,1,0,10,7,4341191,5381262,0,13502471,0,0,0,0,1191141,3150050,0,0,0,-2191201,0,3190061,0,0,0,0,0,0,0,0,0,0,0,0,0,0,0,0,0,0,0,0,2041170,4140150,4170140,3151011
6,336,720.706060121302,0,0,345778.161137487,345779.208182796,0,3,14,0,0,18,3,2170060,9391441,0,0,0,0,0,0,0,0,0,2170060,0,3120181,0,0,0,0,0,3161200,0,-3110060,0,0,0,0,0,0,0,0,0,0,0,0,0,0,0,0,0,0
6,337,693.796904000919,0,0,345784.655159043,345785.702122741,0,3,15,1,0,7,3,2060150,2020091,0,3201241,0,0,0,0,0,0,-2060150,0,0,2020091,0,0,0,0,0,0,0,0,0,0,0,0,0,0,0,0,0,0,0,1050201,0,0,0,2151040,0,0
6,338,1673.63303381717,1,0,345787.596215746,345788.643185988,0,3,15,1,1,10,7,4341191,5381262,0,13502471,0,0,0,0,1191141,3150050,0,0,0,-2191201,0,3190061,0,0,0,0,0,0,0,0,0,0,0,0,0,0,0,0,0,0,0,0,2041170,4140150,4170140,3151011
6,339,805.997625750024,1,0,345791.513727466,345792.560711181,0,3,15,0,1,2,3,7151291,0,2101061,2061180,0,-3061090,0,0,0,0,0,0,4090201,0,0,0,0,0,0,0,0,0,0,0,0,2101061,0,0,0,0,0,0,0,0,2061180,0,0,0,0,0
6,340,1121.20712531032,0,0,345794.572427853,345795.619444675,0,3,15,1,0,28,7,3181071,2020151,3190172,9422391,0,0,0,0,0,0,3181071,0,0,2020151,0,0,0,0,0,0,0,0,0,0,0,0,0,0,1170101,0,2020071,-3190050,0,0,1070180,0,2131101,0,3031060,0
6,341,1074.83318808954,0,0,345797.948863469,345798.995852574,0,3,15,1,0,25,3,0,1050010,7231222,1090131,0,0,0,0,0,0,0,0,0,0,0,1050010,0,0,0,0,0,0,0,0,0,0,3121081,0,-4110141,0,0,0,1090131,0,0,0,0,0,0,0
6,342,1303.02495718934,1,0,345801.207531442,345802.254562893,0,3,15,0,1,31,7,5241261,2011200,1171100,7383572,4190141,0,0,0,0,0,0,0,1051120,0,0,0,0,2011200,0,0,0,0,0,0,0,0,0,0,1171100,0,0,2091191,0,0,-1081181,1181160,0,0,0,3030040
6,343,518.442181753926,1,0,345804.572144137,345805.619168658,0,3,15,1,1,16,3,2050110,3311212,0,4090150,2050110,0,0,0,0,0,0,0,0,0,0,0,0,2161161,0,-1150051,0,0,0,0,0,0,0,0,0,0,0,0,4090150,0,0,0,0,0,0,0
6,344,632.317098614294,0,0,345807.266229905,345808.313217085,0,3,15,0,0,18,3,5160182,4161021,0,1161091,0,0,0,0,2070131,3090051,0,0,0,0,0,0,0,0,0,0,0,-4161021,0,0,0,0,0,0,0,0,0,0,0,0,0,0,1161091,0,0,0
6,345,968.408035696484,0,0,345810.019046857,345811.066093705,0,3,15,0,0,17,7,0,10541452,3312122,4150191,0,0,0,0,0,0,0,0,0,0,0,1201150,3090120,4130141,0,0,-2120041,0,0,0,0,2191111,0,0,1121011,0,0,0,0,0,3030030,0,0,1120161,0,0
6,346,1236.41285236226,0,0,345813.160128119,345814.207166499,0,3,15,1,0,33,3,1171060,4260161,0,3130131,0,0,0,0,1171060,0,0,0,0,0,3180020,1080141,0,0,0,0,0,0,0,0,0,0,0,0,0,0,0,0,0,0,0,0,-3130131,0,0,0
6,347,778.272352355998,0,0,345816.595401938,345817.642366406,0,3,15,1,0,11,7,4050040,3161261,3201371,9360163,0,0,0,4050040,0,0,0,0,0,0,-2151131,0,0,0,0,1010130,0,0,0,0,1140190,0,2061181,0,0,0,0,0,2090031,0,3080041,0,0,4190091,0,0
6,348,796.294684696477,0,0,345819.454075455,345820.501107291,0,3,15,0,0,1,3,1041031,5190171,0,4040171,-1041031,0,0,0,0,0,0,0,0,0,0,0,0,2100061,0,0,0,3090110,0,0,0,0,0,0,0,0,0,0,0,0,0,0,0,0,0,4040171
6,349,725.05303932121,1,0,345822.489296304,345823.53632275,0,3,15,0,1,12,7,6283343,1090121,1060060,11460343,0,0,0,4081201,1131111,0,0,1071031,0,0,0,-1090121,0,0,0,0,0,0,0,0,0,1060060,0,0,0,0,0,0,0,4150121,0,0,0,3190021,4120201,0
6,350,1274.12093337625,0,0,345825.28920322,345826.336233901,0,3,15,1,0,24,7,2051131,9403381,4111201,5162342,0,0,2051131,0,0,0,0,0,0,1111141,0,3080020,0,0,0,1191160,0,4021060,0,0,0,0,0,-4111201,0,0,0,3021161,2141181,0,0,0,0,0,0,0
6,351,1296.91909137182,1,0,345828.677396313,345829.724374254,0,3,15,0,1,14,7,5261212,8311213,3190041,1181161,0,0,0,0,1070031,0,2111171,0,2080010,0,0,2120041,0,-4030031,2161141,0,0,0,0,3190041,0,0,0,0,0,0,0,0,1181161,0,0,0,0,0,0,0
6,352,1273.97002861835,1,0,345832.077261038,345833.124273625,0,3,15,0,1,5,7,6311440,5180240,2060091,3401290,0,0,3181040,0,-2040200,0,0,0,1090200,1070150,0,0,4110090,0,0,0,0,0,0,0,0,0,0,0,0,0,2060091,2201150,0,1200140,0,0,0,0,0,0
6,353,1563.56076122029,0,0,345835.500739268,345836.547706045,0,3,15,1,0,27,7,4131180,6290241,4040151,8302400,0,0,0,0,4131180,0,0,0,0,0,0,2020010,0,2170080,0,0,2100151,0,0,0,0,0,0,0,0,0,-4040151,0,3160160,2061180,0,3081060,0,0,0,0
6,354,1719.33636901667,1,0,345839.135907531,345840.182894326,0,3,15,0,1,34,3,9423351,0,0,1111061,0,0,0,0,4161201,1101020,4161130,0,0,0,0,0,0,0,0,0,0,0,0,0,0,0,0,0,0,0,0,0,0,0,0,0,0,-1111061,0,0
6,355,1607.82434244175,1,0,345842.959310924,345844.006315043,0,3,15,1,1,4,7,8211181,5110320,0,11453393,0,0,4070070,-4141111,0,0,0,0,0,0,0,4050130,0,1060190,0,0,0,0,0,0,0,0,0,0,0,0,0,3091111,0,2130031,4141121,0,2091130,0,0,0
6,356,1264.05574404635,0,0,345846.759193203,345847.806211565,0,3,15,1,0,8,3,6181050,4110180,0,2101150,0,0,0,0,2061030,0,0,-4120020,0,0,0,0,0,0,0,0,0,4110180,0,0,0,0,0,0,0,0,0,0,0,0,0,2101150,0,0,0,0
6,357,1179.99335878994,1,0,345850.206147508,345851.253170874,0,3,15,1,1,19,3,0,6401331,2390370,0,0,0,0,0,0,0,0,0,0,0,3201151,3200180,0,0,0,0,0,0,-1200170,0,0,0,0,0,0,0,1190200,0,0,0,0,0,0,0,0,0
6,358,1296.70158837689,1,0,345853.582524994,345854.629546436,0,3,15,0,1,9,7,4272191,6322112,6282432,2170081,0,0,0,0,0,2111141,0,0,-2161050,2191051,0,0,0,0,0,4131061,0,0,0,0,0,0,0,1061101,3030200,2191131,0,0,0,0,0,0,2170081,0,0,0
6,359,1295.04433152033,0,0,345857.053015812,345858.100044183,0,3,15,0,0,35,3,4262291,0,0,7281190,0,0,0,0,0,0,1191151,3071140,0,0,0,0,0,0,0,0,0,0,0,0,0,0,0,0,0,0,0,0,0,0,0,3081090,0,0,-4200100,0
6,360,1302.8166933218,1,0,345860.594086142,345861.641122597,0,3,15,0,1,36,3,4051050,0,4021120,5240110,0,0,0,0,0,0,0,4051050,0,0,0,0,0,0,0,0,0,0,0,0,0,0,0,0,4021120,0,0,0,0,0,0,0,0,4150060,0,-1090050
6,361,1091.01232734974,1,0,345867.194005839,345868.240924881,0,3,16,1,1,4,7,8211181,5110320,0,11453393,0,0,4070070,-4141111,0,0,0,0,0,0,0,4050130,0,1060190,0,0,0,0,0,0,0,0,0,0,0,0,0,3091111,0,2130031,4141121,0,2091130,0,0,0
6,362,742.159549496137,1,0,345870.440870524,345871.48789928,0,3,16,1,1,28,7,3181071,2020151,3190172,9422391,0,0,0,0,0,0,3181071,0,0,2020151,0,0,0,0,0,0,0,0,0,0,0,0,0,0,1170101,0,2020071,-3190050,0,0,1070180,0,2131101,0,3031060,0
6,363,921.903596667107,1,0,345873.429110737,345874.476056341,0,3,16,0,1,9,7,5141220,5091110,4081310,7182161,0,0,0,0,0,0,0,3090190,-2051030,0,0,0,1070080,0,0,0,0,4021030,0,1010130,0,0,0,3071180,0,0,0,3041151,0,0,0,0,4141010,0,0,0
6,364,796.012123348191,0,0,345876.428940199,345877.47596703,0,3,16,0,0,17,3,1071031,9510221,0,0,0,0,0,0,0,0,0,1071031,0,0,0,2180121,0,0,0,0,-3200050,4130050,0,0,0,0,0,0,0,0,0,0,0,0,0,0,0,0,0,0
6,365,1632.68358149799,0,0,345879.464219562,345880.51116863,0,3,16,0,0,36,7,3022311,5161350,4170161,8202410,0,0,0,0,2011161,0,0,1011150,0,0,3051170,0,0,0,0,0,0,2110180,0,0,0,0,0,0,0,0,4170161,0,0,1021150,0,0,0,3081100,0,-4100160
6,366,1279.85685167369,1,0,345883.322853428,345884.369983428,0,3,16,0,1,14,7,3171080,5262232,4140200,6341443,0,0,0,0,3171080,0,0,0,0,1121161,1030060,0,0,-3111011,0,0,0,0,0,4140200,0,0,0,0,0,0,0,0,0,0,3160111,1020141,0,2161191,0,0
6,367,1015.828296775,0,0,345886.663986583,345887.710982617,0,3,16,1,0,19,3,0,6401331,2390370,0,0,0,0,0,0,0,0,0,0,0,3201151,3200180,0,0,0,0,0,0,-1200170,0,0,0,0,0,0,0,1190200,0,0,0,0,0,0,0,0,0
6,368,697.579145431519,0,0,345889.805121356,345890.852106611,0,3,16,1,0,7,3,2060150,2020091,0,3201241,0,0,0,0,0,0,-2060150,0,0,2020091,0,0,0,0,0,0,0,0,0,0,0,0,0,0,0,0,0,0,0,1050201,0,0,0,2151040,0,0
6,369,1159.39090348547,1,0,345892.722623452,345893.769431355,0,3,16,0,1,31,7,10233273,5252150,3011121,5141191,0,0,3051061,0,4081081,0,0,0,3101131,3131070,2121080,0,0,0,0,0,0,0,0,3011121,0,0,0,0,0,0,0,0,0,0,-1110130,0,0,0,0,4031061
6,370,2271.02045773063,1,0,345896.016623142,345897.063654978,0,3,16,1,1,10,7,4341191,5381262,0,13502471,0,0,0,0,1191141,3150050,0,0,0,-2191201,0,3190061,0,0,0,0,0,0,0,0,0,0,0,0,0,0,0,0,0,0,0,0,2041170,4140150,4170140,3151011
6,371,681.187892681919,0,0,345900.369455262,345901.416470544,0,3,16,1,0,8,3,6181050,4110180,0,2101150,0,0,0,0,2061030,0,0,-4120020,0,0,0,0,0,0,0,0,0,4110180,0,0,0,0,0,0,0,0,0,0,0,0,0,2101150,0,0,0,0
6,372,1522.82645029482,1,0,345903.263287212,345904.310302212,0,3,16,1,1,27,7,4131180,6290241,4040151,8302400,0,0,0,0,4131180,0,0,0,0,0,0,2020010,0,2170080,0,0,2100151,0,0,0,0,0,0,0,0,0,-4040151,0,3160160,2061180,0,3081060,0,0,0,0
6,373,923.607818898745,1,0,345906.851614246,345907.898936342,0,3,16,1,1,25,3,0,1050010,7231222,1090131,0,0,0,0,0,0,0,0,0,0,0,1050010,0,0,0,0,0,0,0,0,0,0,3121081,0,-4110141,0,0,0,1090131,0,0,0,0,0,0,0
6,374,897.542376886122,0,0,345909.922117151,345910.968945848,0,3,16,0,0,18,3,4190030,4031171,0,6080140,0,0,0,0,0,0,0,0,4190030,0,0,0,0,0,0,0,0,-4031171,0,0,0,0,0,0,0,0,0,0,0,3020030,3060110,0,0,0,0,0
6,375,920.244799868669,1,0,345912.910358904,345913.957309897,0,3,16,1,1,24,7,2051131,9403381,4111201,5162342,0,0,2051131,0,0,0,0,0,0,1111141,0,3080020,0,0,0,1191160,0,4021060,0,0,0,0,0,-4111201,0,0,0,3021161,2141181,0,0,0,0,0,0,0
6,376,971.832648385316,0,0,345916.239381272,345917.28663707,0,3,16,0,0,12,7,2191120,9353360,1131160,10502061,0,0,0,2191120,0,0,0,0,0,4141150,0,-2141040,0,0,0,3071170,0,0,0,0,0,0,0,0,1131160,0,0,4200020,0,4111021,0,0,2191020,0,0,0
6,377,1007.46040034574,0,0,345919.310085427,345920.357108794,0,3,16,1,0,11,7,4050040,3161261,3201371,9360163,0,0,0,4050040,0,0,0,0,0,0,-2151131,0,0,0,0,1010130,0,0,0,0,1140190,0,2061181,0,0,0,0,0,2090031,0,3080041,0,0,4190091,0,0
6,378,1223.73262321344,0,0,345922.38066032,345923.427632102,0,3,16,0,0,34,3,3111150,5132282,0,2170080,0,0,0,0,3111150,0,0,0,0,0,0,0,4011101,1121181,0,0,0,0,0,0,0,0,0,0,0,0,0,0,0,0,0,0,0,-2170080,0,0
6,379,1310.47125702025,1,0,345925.721698006,345926.768871122,0,3,16,0,1,2,3,3031031,0,3061150,4310362,0,-3031031,0,0,0,0,0,0,0,0,0,0,0,0,0,0,0,0,0,0,0,0,0,0,0,3061150,0,0,3200171,0,0,1110191,0,0,0,0
6,380,802.460604405496,0,0,345929.203920893,345930.250956194,0,3,16,0,0,5,3,1171170,0,0,9192213,0,0,0,0,-1171170,0,0,0,0,0,0,0,0,0,0,0,0,0,0,0,0,0,0,0,0,0,0,3040071,0,4061121,0,0,0,0,2091021,0
6,381,1554.71820797538,0,0,345932.121492283,345933.168537977,0,3,16,0,0,1,7,2100011,5122341,9411251,3240151,-2100011,0,0,0,0,0,0,0,0,0,0,2091170,3031171,0,0,0,0,0,0,3201201,0,0,3130030,0,0,3080020,0,0,1150061,0,0,0,2090090,0,0,0
6,382,1048.00448880997,0,0,345935.780234015,345936.827233898,0,3,16,1,0,33,3,1171060,4260161,0,3130131,0,0,0,0,1171060,0,0,0,0,0,3180020,1080141,0,0,0,0,0,0,0,0,0,0,0,0,0,0,0,0,0,0,0,0,-3130131,0,0,0
6,383,698.511905851774,1,0,345938.89777145,345939.944789042,0,3,16,1,1,16,3,2050110,3311212,0,4090150,2050110,0,0,0,0,0,0,0,0,0,0,0,0,2161161,0,-1150051,0,0,0,0,0,0,0,0,0,0,0,0,4090150,0,0,0,0,0,0,0
6,384,1086.38201688882,1,0,345941.791596056,345942.838827383,0,3,16,0,1,35,3,1160120,4370110,0,1010050,0,0,0,0,0,0,0,0,1160120,1200080,0,0,0,0,0,0,3170030,0,0,0,0,0,0,0,0,0,0,0,0,0,0,0,0,0,-1010050,0
6,385,989.017690648325,1,0,345948.862184504,345949.909244442,0,3,17,1,1,8,3,6181050,4110180,0,2101150,0,0,0,0,2061030,0,0,-4120020,0,0,0,0,0,0,0,0,0,4110180,0,0,0,0,0,0,0,0,0,0,0,0,0,2101150,0,0,0,0
6,386,1393.5419828631,1,0,345951.944461055,345952.991478647,0,3,17,0,1,35,3,4211161,4030150,0,4161190,0,2150051,0,0,0,0,0,2061110,0,0,0,0,0,0,4030150,0,0,0,0,0,0,0,0,0,0,0,0,0,0,0,0,0,0,0,-4161190,0
6,387,447.554700425826,1,0,345955.438475297,345956.485505208,0,3,17,1,1,16,3,2050110,3311212,0,4090150,2050110,0,0,0,0,0,0,0,0,0,0,0,0,2161161,0,-1150051,0,0,0,0,0,0,0,0,0,0,0,0,4090150,0,0,0,0,0,0,0
6,388,1159.72439426696,0,0,345958.050180189,345959.097271694,0,3,17,0,0,12,7,0,8221271,6241252,5141391,0,0,0,0,0,0,0,0,0,0,0,-3010110,2151010,0,3060151,0,0,0,0,0,4151010,0,1060061,0,0,1030181,0,3091201,0,0,0,0,0,2050190,0,0
6,389,945.673011243343,0,0,345961.438314384,345962.485371242,0,3,17,1,0,24,7,2051131,9403381,4111201,5162342,0,0,2051131,0,0,0,0,0,0,1111141,0,3080020,0,0,0,1191160,0,4021060,0,0,0,0,0,-4111201,0,0,0,3021161,2141181,0,0,0,0,0,0,0
6,390,717.466998612508,0,0,345964.567644713,345965.614657686,0,3,17,1,0,28,7,3181071,2020151,3190172,9422391,0,0,0,0,0,0,3181071,0,0,2020151,0,0,0,0,0,0,0,0,0,0,0,0,0,0,1170101,0,2020071,-3190050,0,0,1070180,0,2131101,0,3031060,0
6,391,1564.86346910242,1,0,345967.344028205,345968.391048877,0,3,17,0,1,31,7,4071031,0,11292331,10443371,0,0,0,0,0,0,4071031,0,0,0,0,0,0,0,0,0,0,0,0,0,4051081,0,3081110,0,4160140,0,0,3070090,0,4191090,-1111101,0,0,0,0,2071090
6,392,996.282673906535,1,0,345971.06156079,345972.108586466,0,3,17,1,1,4,7,8211181,5110320,0,11453393,0,0,4070070,-4141111,0,0,0,0,0,0,0,4050130,0,1060190,0,0,0,0,0,0,0,0,0,0,0,0,0,3091111,0,2130031,4141121,0,2091130,0,0,0
6,393,1019.81033297488,1,0,345974.285004451,345975.379124711,0,3,17,0,1,34,3,0,0,1071171,9382372,0,0,0,0,0,0,0,0,0,0,0,0,0,0,0,0,0,0,0,0,0,0,1071171,0,0,0,0,3081181,0,0,0,0,2171021,-4130170,0,0
6,394,958.257769991178,0,0,345977.55549804,345978.602521406,0,3,17,1,0,25,3,0,1050010,7231222,1090131,0,0,0,0,0,0,0,0,0,0,0,1050010,0,0,0,0,0,0,0,0,0,0,3121081,0,-4110141,0,0,0,1090131,0,0,0,0,0,0,0
6,395,683.391794213094,0,0,345980.708351409,345981.75537747,0,3,17,1,0,7,3,2060150,2020091,0,3201241,0,0,0,0,0,0,-2060150,0,0,2020091,0,0,0,0,0,0,0,0,0,0,0,0,0,0,0,0,0,0,0,1050201,0,0,0,2151040,0,0
6,396,806.455729238223,1,0,345983.508272184,345984.5552994,0,3,17,0,1,36,3,2080131,3041091,0,2271141,0,0,0,0,0,0,2080131,0,0,0,0,0,0,0,0,0,0,3041091,0,0,0,0,0,0,0,0,0,0,0,1130010,0,0,0,0,0,-1141131
6,397,1549.50660647592,0,0,345986.555245506,345987.602270027,0,3,17,0,0,2,7,3233432,3232200,4330131,1081191,0,-1081160,0,0,0,0,1041171,1111101,0,0,0,0,0,0,2161060,0,0,1071140,0,0,0,0,0,3180111,1150020,0,0,0,0,0,1081191,0,0,0,0,0
6,398,791.27248399891,1,0,345990.190431861,345991.237458307,0,3,17,0,1,9,7,15242563,1031111,1010110,4200050,4020071,3030170,0,0,2041011,2140161,0,0,-4011150,0,0,0,1031111,0,0,0,0,0,0,0,1010110,0,0,0,0,0,0,0,0,0,0,0,0,0,4200050,0
6,399,668.544234882575,1,0,345993.202121201,345994.249139178,0,3,17,1,1,10,7,4341191,5381262,0,13502471,0,0,0,0,1191141,3150050,0,0,0,-2191201,0,3190061,0,0,0,0,0,0,0,0,0,0,0,0,0,0,0,0,0,0,0,0,2041170,4140150,4170140,3151011
6,400,665.700143319555,0,0,345996.013943814,345997.060890573,0,3,17,1,0,33,3,1171060,4260161,0,3130131,0,0,0,0,1171060,0,0,0,0,0,3180020,1080141,0,0,0,0,0,0,0,0,0,0,0,0,0,0,0,0,0,0,0,0,-3130131,0,0,0
6,401,743.67013637675,1,0,345998.896071462,345999.943093674,0,3,17,0,1,14,3,4021150,6232250,0,0,0,0,0,0,0,4021150,0,0,0,2041040,1070010,0,0,-3121200,0,0,0,0,0,0,0,0,0,0,0,0,0,0,0,0,0,0,0,0,0,0
6,402,895.585355639923,0,0,346001.848938382,346002.895972143,0,3,17,1,0,11,7,4050040,3161261,3201371,9360163,0,0,0,4050040,0,0,0,0,0,0,-2151131,0,0,0,0,1010130,0,0,0,0,1140190,0,2061181,0,0,0,0,0,2090031,0,3080041,0,0,4190091,0,0
6,403,634.989112732001,0,0,346004.813542762,346005.860566898,0,3,17,0,0,17,3,4070090,3262371,0,2040011,0,0,0,0,0,0,0,0,4070090,0,2111171,0,0,0,0,0,-1151200,0,0,0,0,0,0,0,0,0,0,0,0,0,0,0,0,2040011,0,0
6,404,794.269790058024,1,0,346007.672292886,346008.719314327,0,3,17,0,1,18,7,0,8161160,5221462,5162332,0,0,0,0,0,0,0,0,0,4020040,0,0,0,0,0,0,0,-4141120,0,0,1021081,2090191,2110190,0,0,0,0,1021120,0,0,0,0,1031201,0,0,3110011
6,405,1159.75249640178,0,0,346010.695775504,346011.742800796,0,3,17,1,0,19,3,0,6401331,2390370,0,0,0,0,0,0,0,0,0,0,0,3201151,3200180,0,0,0,0,0,0,-1200170,0,0,0,0,0,0,0,1190200,0,0,0,0,0,0,0,0,0
6,406,1002.09827913204,1,0,346013.954474275,346015.001485707,0,3,17,0,1,5,7,5180040,2122200,3120101,3162422,0,0,4130010,0,-1050030,0,0,0,0,0,1111160,0,0,0,0,1011040,0,0,0,3120101,0,0,0,0,0,0,0,1060170,0,0,0,0,1041141,0,1061111,0
6,407,1055.4823554703,1,0,346017.072027494,346018.11905086,0,3,17,1,1,27,7,4131180,6290241,4040151,8302400,0,0,0,0,4131180,0,0,0,0,0,0,2020010,0,2170080,0,0,2100151,0,0,0,0,0,0,0,0,0,-4040151,0,3160160,2061180,0,3081060,0,0,0,0
6,408,909.439715615008,0,0,346020.213119536,346021.260136743,0,3,17,0,0,1,3,1061181,5072251,3200011,0,-1061181,0,0,0,0,0,0,0,0,2011200,0,0,0,0,0,0,3061051,0,3200011,0,0,0,0,0,0,0,0,0,0,0,0,0,0,0,0,0
6,409,1192.69707048079,1,0,346027.518786238,346028.565819228,0,3,18,1,1,28,7,3181071,2020151,3190172,9422391,0,0,0,0,0,0,3181071,0,0,2020151,0,0,0,0,0,0,0,0,0,0,0,0,0,0,1170101,0,2020071,-3190050,0,0,1070180,0,2131101,0,3031060,0
6,410,729.128236009274,1,0,346030.942224047,346031.989244334,0,3,18,0,1,18,7,0,9313492,4180140,8413292,0,0,0,0,0,0,0,0,0,0,0,2181180,0,0,0,0,4011141,-3121171,0,4180140,0,0,0,0,0,0,0,0,0,0,2021041,0,4021190,1170040,1201021,0
6,411,632.791370560881,1,0,346033.777436503,346034.82450491,0,3,18,1,1,11,7,4050040,3161261,3201371,9360163,0,0,0,4050040,0,0,0,0,0,0,-2151131,0,0,0,0,1010130,0,0,0,0,1140190,0,2061181,0,0,0,0,0,2090031,0,3080041,0,0,4190091,0,0
6,412,1532.53906714963,1,0,346036.612648189,346037.659675405,0,3,18,0,1,9,3,3111202,2060150,0,1140040,0,2070041,0,0,0,0,0,0,-1041161,0,2060150,0,0,0,0,0,0,0,0,0,0,0,0,0,0,0,0,0,0,0,0,0,0,0,0,1140040
6,413,679.082541202661,1,0,346040.236078992,346041.283098124,0,3,18,1,1,7,3,2060150,2020091,0,3201241,0,0,0,0,0,0,-2060150,0,0,2020091,0,0,0,0,0,0,0,0,0,0,0,0,0,0,0,0,0,0,0,1050201,0,0,0,2151040,0,0
6,414,1216.99195675319,1,0,346043.071289139,346044.11831597,0,3,18,0,1,31,3,3181091,3130021,0,7132251,0,0,0,0,3181091,0,0,0,0,0,0,0,0,3130021,0,0,0,0,0,0,0,0,0,0,0,0,0,0,0,0,-4101151,0,0,0,3031100,0
6,415,1055.95316272229,1,0,346046.365315391,346047.412338373,0,3,18,1,1,25,3,0,1050010,7231222,1090131,0,0,0,0,0,0,0,0,0,0,0,1050010,0,0,0,0,0,0,0,0,0,0,3121081,0,-4110141,0,0,0,1090131,0,0,0,0,0,0,0
6,416,1181.06586002978,0,0,346049.576996955,346050.624017626,0,3,18,0,0,12,7,3171041,9211332,6201171,2262282,0,0,3171041,0,0,0,0,0,0,1141111,0,-4020200,0,0,0,0,0,4050021,0,0,3050071,0,3151100,0,0,0,0,0,0,0,0,0,0,1201101,1061181,0
6,417,1432.5904979487,1,0,346052.847485924,346053.894507366,0,3,18,0,1,14,3,2250081,3291141,0,0,0,0,1050030,0,0,0,0,1200051,0,0,0,1160030,0,-2131111,0,0,0,0,0,0,0,0,0,0,0,0,0,0,0,0,0,0,0,0,0,0
6,418,1315.59624231886,0,0,346056.494441307,346057.541461978,0,3,18,0,0,35,3,2140170,0,5051191,4131011,0,0,0,0,0,0,2140170,0,0,0,0,0,0,0,0,0,0,0,3011150,0,0,0,0,0,0,2040041,0,0,0,0,0,0,0,0,-4131011,0
6,419,577.267681190278,0,0,346059.976698841,346061.023724132,0,3,18,1,0,33,3,1171060,4260161,0,3130131,0,0,0,0,1171060,0,0,0,0,0,3180020,1080141,0,0,0,0,0,0,0,0,0,0,0,0,0,0,0,0,0,0,0,0,-3130131,0,0,0
6,420,647.921876225155,1,0,346062.75316587,346063.800111859,0,3,18,1,1,4,7,8211181,5110320,0,11453393,0,0,4070070,-4141111,0,0,0,0,0,0,0,4050130,0,1060190,0,0,0,0,0,0,0,0,0,0,0,0,0,3091111,0,2130031,4141121,0,2091130,0,0,0
6,421,2557.4387270608,0,0,346065.576538466,346066.623561063,0,3,18,0,0,36,7,8251111,0,11282372,3181391,4091011,0,0,0,0,4160100,0,0,0,0,0,0,0,0,0,0,0,0,3061080,0,1121061,3070071,0,0,0,0,4030160,0,0,0,0,0,0,2111191,0,-1070200
6,422,762.566330085974,1,0,346070.235292517,346071.282301255,0,3,18,0,1,5,3,6261351,4121091,0,3110020,0,0,0,0,-4171161,0,0,2090190,0,4121091,0,0,0,0,0,0,0,0,0,0,0,0,0,0,0,0,0,3110020,0,0,0,0,0,0,0,0
6,423,832.748177926987,0,0,346073.188090144,346074.235147772,0,3,18,0,0,2,3,2061110,3241250,0,2080070,0,-2061110,0,0,0,0,0,0,0,1120170,0,0,2121080,0,0,0,0,0,0,0,0,0,0,0,0,0,0,0,0,0,0,2080070,0,0,0,0
6,424,2031.70408686856,1,0,346076.235111585,346077.282117628,0,3,18,0,1,1,7,4131212,7212191,8391271,1130040,-1120181,0,3011031,0,0,0,0,0,0,0,3181130,0,0,0,0,0,4031061,0,0,0,0,0,2070041,2181140,4140090,0,0,0,1130040,0,0,0,0,0,0,0
6,425,976.408679329325,0,0,346080.364353374,346081.41138059,0,3,18,1,0,24,7,2051131,9403381,4111201,5162342,0,0,2051131,0,0,0,0,0,0,1111141,0,3080020,0,0,0,1191160,0,4021060,0,0,0,0,0,-4111201,0,0,0,3021161,2141181,0,0,0,0,0,0,0
6,426,1318.09078936931,1,0,346083.493679469,346084.540699371,0,3,18,1,1,27,7,4131180,6290241,4040151,8302400,0,0,0,0,4131180,0,0,0,0,0,0,2020010,0,2170080,0,0,2100151,0,0,0,0,0,0,0,0,0,-4040151,0,3160160,2061180,0,3081060,0,0,0,0
6,427,792.418512748554,0,0,346086.999457348,346088.046503812,0,3,18,0,0,17,7,3200070,9312393,4051020,5180061,0,0,0,0,0,3200070,0,0,0,0,4011081,0,1070121,0,0,0,-3101120,1130071,0,0,0,0,0,4051020,0,0,0,0,0,0,4010031,0,0,1170030,0,0
6,428,569.745159067679,0,0,346090.011144378,346091.058169669,0,3,18,1,0,16,3,2050110,3311212,0,4090150,2050110,0,0,0,0,0,0,0,0,0,0,0,0,2161161,0,-1150051,0,0,0,0,0,0,0,0,0,0,0,0,4090150,0,0,0,0,0,0,0
6,429,1103.54280663887,0,0,346092.658122088,346093.705144684,0,3,18,0,0,34,7,7301210,3141190,5201302,5280482,4100110,0,0,0,0,0,0,0,3201100,0,0,0,0,0,0,0,0,3141190,3111141,0,0,0,0,0,2090161,0,0,0,0,0,0,0,0,-2080191,2140091,1060200
6,430,768.299168732483,1,0,346095.834525444,346096.881525328,0,3,18,1,1,8,3,6181050,4110180,0,2101150,0,0,0,0,2061030,0,0,-4120020,0,0,0,0,0,0,0,0,0,4110180,0,0,0,0,0,0,0,0,0,0,0,0,0,2101150,0,0,0,0
6,431,515.892585273832,0,0,346098.716774355,346099.763794642,0,3,18,1,0,10,7,4341191,5381262,0,13502471,0,0,0,0,1191141,3150050,0,0,0,-2191201,0,3190061,0,0,0,0,0,0,0,0,0,0,0,0,0,0,0,0,0,0,0,0,2041170,4140150,4170140,3151011
6,432,784.254260768648,0,0,346101.375526096,346102.422544843,0,3,18,1,0,19,3,0,6401331,2390370,0,0,0,0,0,0,0,0,0,0,0,3201151,3200180,0,0,0,0,0,0,-1200170,0,0,0,0,0,0,0,1190200,0,0,0,0,0,0,0,0,0
6,433,601.834734843578,0,0,346108.257676072,346109.304705983,0,3,19,1,0,33,3,1171060,4260161,0,3130131,0,0,0,0,1171060,0,0,0,0,0,3180020,1080141,0,0,0,0,0,0,0,0,0,0,0,0,0,0,0,0,0,0,0,0,-3130131,0,0,0
6,434,793.437889427878,1,0,346111.081131051,346112.128151337,0,3,19,1,1,7,3,2060150,2020091,0,3201241,0,0,0,0,0,0,-2060150,0,0,2020091,0,0,0,0,0,0,0,0,0,0,0,0,0,0,0,0,0,0,0,1050201,0,0,0,2151040,0,0
6,435,1081.45990612684,0,0,346113.975170931,346115.022191218,0,3,19,0,0,12,7,6151230,6241391,7250160,4111050,0,0,0,0,3101200,3050030,0,0,0,1070200,0,-2031080,0,0,3140111,0,0,0,0,4090090,0,0,0,0,0,0,3160070,0,0,4111050,0,0,0,0,0,0
6,436,640.054813993629,0,0,346117.163310207,346118.210333188,0,3,19,0,0,17,7,5323262,6081052,4171161,6241141,0,0,0,0,1141041,3101100,1081121,0,0,4010041,0,0,0,0,0,0,-2071011,0,0,0,0,4171161,0,0,0,0,0,0,0,3190100,0,0,0,3051041,0,0
6,437,802.934876352083,1,0,346120.045588375,346121.092664866,0,3,19,0,1,18,3,0,2051200,3011071,2362151,0,0,0,0,0,0,0,0,0,0,0,0,0,0,0,0,0,-2051200,0,0,0,0,3011071,0,0,0,0,1161041,0,0,0,1201110,0,0,0,0
6,438,889.86214104807,0,0,346122.986678569,346124.033701165,0,3,19,1,0,28,7,3181071,2020151,3190172,9422391,0,0,0,0,0,0,3181071,0,0,2020151,0,0,0,0,0,0,0,0,0,0,0,0,0,0,1170101,0,2020071,-3190050,0,0,1070180,0,2131101,0,3031060,0
6,439,570.386504055932,0,0,346126.068940492,346127.115961548,0,3,19,1,0,24,7,2051131,9403381,4111201,5162342,0,0,2051131,0,0,0,0,0,0,1111141,0,3080020,0,0,0,1191160,0,4021060,0,0,0,0,0,-4111201,0,0,0,3021161,2141181,0,0,0,0,0,0,0
6,440,991.13574589137,1,0,346128.704159184,346129.7511864,0,3,19,1,1,8,3,6181050,4110180,0,2101150,0,0,0,0,2061030,0,0,-4120020,0,0,0,0,0,0,0,0,0,4110180,0,0,0,0,0,0,0,0,0,0,0,0,0,2101150,0,0,0,0
6,441,728.702854190487,0,0,346131.927599765,346132.974676256,0,3,19,0,0,9,3,1181110,4120190,1171091,3161160,0,0,0,0,0,0,0,0,-1181110,0,0,0,0,0,0,0,4120190,0,0,0,0,0,0,0,0,0,1171091,3161160,0,0,0,0,0,0,0,0
6,442,719.341758522205,1,0,346134.809875624,346135.856897065,0,3,19,0,1,2,3,4110011,0,3150120,4211211,0,-4110011,0,0,0,0,0,0,0,0,0,0,0,0,0,0,0,0,0,0,0,0,0,3150120,0,0,0,3110200,0,0,0,0,0,0,0,1101011
6,443,1351.22283943929,0,0,346137.750958503,346138.797989184,0,3,19,0,0,31,7,8241290,4020021,7231422,8282222,4131160,0,0,0,0,0,0,4110130,0,4020021,0,0,0,0,0,0,0,0,0,0,2070140,0,0,0,1081101,4080181,0,4131151,0,0,-4151071,0,0,0,0,0
6,444,801.110546337441,1,0,346141.292048466,346142.339060669,0,3,19,0,1,14,3,0,7151261,3170190,1021141,0,0,0,0,0,0,0,0,0,0,0,0,0,-4081060,0,0,3070201,0,0,3170190,0,0,0,0,0,0,0,0,0,0,0,0,0,0,1021141,0
6,445,1354.6636205283,1,0,346144.315491434,346145.362557146,0,3,19,1,1,11,7,4050040,3161261,3201371,9360163,0,0,0,4050040,0,0,0,0,0,0,-2151131,0,0,0,0,1010130,0,0,0,0,1140190,0,2061181,0,0,0,0,0,2090031,0,3080041,0,0,4190091,0,0
6,446,668.590430170298,1,0,346147.903621702,346148.950640449,0,3,19,0,1,5,3,3122200,0,0,4310311,0,0,0,0,-1071100,0,0,2051100,0,0,0,0,0,0,0,0,0,0,0,0,0,0,0,0,0,0,0,0,0,3150110,0,0,1160201,0,0,0
6,447,818.793343147263,1,0,346150.715371557,346151.762326785,0,3,19,1,1,25,3,0,1050010,7231222,1090131,0,0,0,0,0,0,0,0,0,0,0,1050010,0,0,0,0,0,0,0,0,0,0,3121081,0,-4110141,0,0,0,1090131,0,0,0,0,0,0,0
6,448,644.528060336597,1,0,346153.750512334,346154.797546094,0,3,19,1,1,4,7,8211181,5110320,0,11453393,0,0,4070070,-4141111,0,0,0,0,0,0,0,4050130,0,1060190,0,0,0,0,0,0,0,0,0,0,0,0,0,3091111,0,2130031,4141121,0,2091130,0,0,0
6,449,1008.69458523812,1,0,346156.456322472,346157.5033366,0,3,19,0,1,1,7,8422213,8271251,4181101,3282152,-1091031,4130121,0,0,0,0,3201061,0,0,0,0,0,0,0,4080061,4191190,0,0,0,0,0,0,0,0,0,4181101,0,0,0,0,2111031,1171121,0,0,0,0
6,450,766.912154387683,1,0,346159.562110899,346160.609136191,0,3,19,1,1,16,3,2050110,3311212,0,4090150,2050110,0,0,0,0,0,0,0,0,0,0,0,0,2161161,0,-1150051,0,0,0,0,0,0,0,0,0,0,0,0,4090150,0,0,0,0,0,0,0
6,451,914.725229667965,0,0,346162.397388414,346163.444348647,0,3,19,1,0,27,7,4131180,6290241,4040151,8302400,0,0,0,0,4131180,0,0,0,0,0,0,2020010,0,2170080,0,0,2100151,0,0,0,0,0,0,0,0,0,-4040151,0,3160160,2061180,0,3081060,0,0,0,0
6,452,795.506669615861,0,0,346165.538415397,346166.585434914,0,3,19,1,0,19,3,0,6401331,2390370,0,0,0,0,0,0,0,0,0,0,0,3201151,3200180,0,0,0,0,0,0,-1200170,0,0,0,0,0,0,0,1190200,0,0,0,0,0,0,0,0,0
6,453,1800.18279043725,0,0,346168.467743879,346169.514768785,0,3,19,0,0,34,7,7351342,6220130,5211350,4101161,2110130,0,0,0,3131151,0,0,2110061,0,2040090,0,0,0,0,4180040,0,0,0,0,2091170,0,0,0,0,0,3120180,0,0,0,0,0,0,0,-4101161,0,0
6,454,885.443944076542,1,0,346172.479395878,346173.526415394,0,3,19,1,1,10,7,4341191,5381262,0,13502471,0,0,0,0,1191141,3150050,0,0,0,-2191201,0,3190061,0,0,0,0,0,0,0,0,0,0,0,0,0,0,0,0,0,0,0,0,2041170,4140150,4170140,3151011
6,455,2098.28231512802,1,0,346175.62047791,346176.667506281,0,3,19,0,1,35,3,2091200,4020041,0,5210251,0,0,0,2091200,0,0,0,0,0,0,0,0,0,4020041,0,0,0,0,0,0,0,0,0,0,0,0,0,0,0,0,0,3130171,0,0,-2080080,0
6,456,1180.20470236661,0,0,346179.808597553,346180.85561784,0,3,19,0,0,36,7,2142181,3070030,5161181,7173392,0,0,0,0,0,1121110,1021071,0,0,0,0,0,0,0,0,3070030,0,0,0,0,4081131,0,1080050,0,0,0,0,0,0,0,0,1021101,3091091,0,0,-3061200
6,457,2262.57441431517,1,0,346186.573118858,346187.620132985,0,3,20,0,1,1,3,1170140,4030141,0,4280210,-1170140,0,0,0,0,0,0,0,0,0,0,0,0,0,0,0,0,4030141,0,0,0,0,0,0,0,0,0,0,0,0,3160070,0,0,0,0,1120140
6,458,1862.86020925036,0,0,346190.972985893,346192.020011954,0,3,20,0,0,35,7,1131141,7452442,4190020,6141101,0,0,1131141,0,0,0,0,0,0,0,3171151,1160161,0,0,0,0,0,3121130,0,0,0,4190020,0,0,0,0,0,2060021,0,0,0,0,0,0,-1070060,3011020
6,459,1206.25385572203,1,0,346195.043459926,346196.090486372,0,3,20,1,1,10,7,4341191,5381262,0,13502471,0,0,0,0,1191141,3150050,0,0,0,-2191201,0,3190061,0,0,0,0,0,0,0,0,0,0,0,0,0,0,0,0,0,0,0,0,2041170,4140150,4170140,3151011
6,460,948.709583259188,0,0,346198.466910054,346199.513919177,0,3,20,1,0,28,7,3181071,2020151,3190172,9422391,0,0,0,0,0,0,3181071,0,0,2020151,0,0,0,0,0,0,0,0,0,0,0,0,0,0,1170101,0,2020071,-3190050,0,0,1070180,0,2131101,0,3031060,0
6,461,1249.40335995052,1,0,346201.549161198,346202.596180329,0,3,20,0,1,14,3,3141161,1171021,8221161,0,0,0,3141161,0,0,0,0,0,0,0,0,0,0,-1171021,0,0,0,0,0,0,0,0,4190071,0,0,0,4031090,0,0,0,0,0,0,0,0,0
6,462,1385.00008406118,1,0,346204.925532525,346205.972556276,0,3,20,1,1,24,7,2051131,9403381,4111201,5162342,0,0,2051131,0,0,0,0,0,0,1111141,0,3080020,0,0,0,1191160,0,4021060,0,0,0,0,0,-4111201,0,0,0,3021161,2141181,0,0,0,0,0,0,0
6,463,887.829932093155,1,0,346208.513663562,346209.560690393,0,3,20,0,1,5,7,11493393,0,9362431,4121010,0,0,0,2191031,-3101091,0,3081110,0,3120161,0,0,0,0,0,0,0,0,0,3151130,0,0,0,0,0,0,2061150,4150151,0,0,4121010,0,0,0,0,0,0
6,464,696.435426420067,0,0,346211.490052367,346212.537078428,0,3,20,0,0,18,3,3091190,4181181,0,4120100,0,0,0,3091190,0,0,0,0,0,0,0,0,0,0,0,0,2161011,-2020170,0,0,0,0,0,0,0,0,0,0,0,0,0,0,0,0,4120100,0
6,465,861.417760548647,1,0,346214.33703231,346215.384055291,0,3,20,0,1,9,3,5261201,4010101,0,1170091,0,0,0,0,0,0,4160111,0,-1101090,0,0,4010101,0,0,0,0,0,0,0,0,0,0,0,0,0,0,0,0,0,0,0,0,0,0,1170091,0
6,466,1150.55731893517,1,0,346217.336949928,346218.383974064,0,3,20,0,1,31,3,0,4101191,6121302,3081130,0,0,0,0,0,0,0,0,0,0,0,0,0,0,4101191,0,0,0,0,0,0,0,4080161,0,0,0,2041141,0,0,0,-3081130,0,0,0,0,0
6,467,605.084190377966,0,0,346220.560383195,346221.607407331,0,3,20,1,0,8,3,6181050,4110180,0,2101150,0,0,0,0,2061030,0,0,-4120020,0,0,0,0,0,0,0,0,0,4110180,0,0,0,0,0,0,0,0,0,0,0,0,0,2101150,0,0,0,0
6,468,812.076159287244,1,0,346223.360309744,346224.407328876,0,3,20,1,1,25,3,0,1050010,7231222,1090131,0,0,0,0,0,0,0,0,0,0,0,1050010,0,0,0,0,0,0,0,0,0,0,3121081,0,-4110141,0,0,0,1090131,0,0,0,0,0,0,0
6,469,723.647161852568,1,0,346226.383753482,346227.430772228,0,3,20,1,1,7,3,2060150,2020091,0,3201241,0,0,0,0,0,0,-2060150,0,0,2020091,0,0,0,0,0,0,0,0,0,0,0,0,0,0,0,0,0,0,0,1050201,0,0,0,2151040,0,0
