sub_id,Trial,RT,Resp,Error,Fix_onset,Disp_onset,q1,q2,block,repeat,tid,tloc,d_setsize,quad1,quad2,quad3,quad4,loc1,loc2,loc3,loc4,loc5,loc6,loc7,loc8,loc9,loc10,loc11,loc12,loc13,loc14,loc15,loc16,loc17,loc18,loc19,loc20,loc21,loc22,loc23,loc24,loc25,loc26,loc27,loc28,loc29,loc30,loc31,loc32,loc33,loc34,loc35,loc36
7,1,1471.40607715119,0,0,519507.85960388,519508.906684016,0,0,1,1,0,1,7,7392483,4011181,0,11442352,-3181181,0,1191161,0,0,0,0,3020141,0,4011181,0,0,0,0,0,0,0,0,0,0,0,0,0,0,0,0,0,0,0,3200161,4051091,0,2170070,2021030,0,0
7,2,1202.61182571994,1,0,519511.412598579,519512.459679101,0,0,1,0,1,19,7,2041060,4480443,5210171,6302192,0,0,2041060,0,0,0,0,0,0,0,2140191,1190071,0,0,1150181,0,0,0,-4180030,0,0,0,0,0,1030141,0,0,2181071,0,0,0,0,0,4121121,0,0
7,3,911.602931504603,0,0,519514.777423637,519515.824470282,0,0,1,1,0,12,3,1040161,4160150,6152051,0,0,0,0,0,1040161,0,0,0,0,0,0,-4160150,0,0,0,0,0,0,2091030,0,0,0,0,0,4061021,0,0,0,0,0,0,0,0,0,0,0
7,4,1007.44664605008,1,0,519517.87153579,519518.918600529,0,0,1,1,1,10,7,2191200,9361351,6141211,7181341,0,0,0,0,0,2191200,0,0,0,-4010130,3200170,0,2151051,0,0,0,0,0,0,0,0,0,0,0,2100131,4041080,0,0,0,0,3160150,0,0,0,0,4021191
7,5,909.83017947292,0,0,519521.13040725,519522.177470064,0,0,1,0,0,16,3,0,4101161,3051091,0,0,0,0,0,0,0,0,0,0,0,0,0,0,1020020,0,-1041040,2040101,0,0,0,0,0,0,0,3051091,0,0,0,0,0,0,0,0,0,0,0
7,6,938.429039379116,0,0,519524.271630337,519525.318693151,0,0,1,1,0,35,3,4201201,0,0,5141422,0,0,0,4201201,0,0,0,0,0,0,0,0,0,0,0,0,0,0,0,0,0,0,0,0,0,0,0,0,1071151,0,0,0,2050120,0,-2020151,0
7,7,1254.86239313614,1,0,519527.342268251,519528.389332604,0,0,1,1,1,32,7,1100040,6132251,5070281,4301271,1100040,0,0,0,0,0,0,0,0,0,1010070,0,3101071,0,2021110,0,0,0,0,0,0,2010120,0,0,0,0,3060161,0,0,2130131,0,-2171140,0,0,0,0
7,8,725.479749671649,1,0,519530.836437225,519531.883503888,0,0,1,0,1,22,7,3121102,3131090,4201322,7332462,0,0,0,0,0,0,2041041,1080061,0,3131090,0,0,0,0,0,0,0,0,0,0,0,-3151121,0,0,0,1050201,0,0,0,0,0,2021081,3171180,0,2140201,0
7,9,661.335382610559,0,0,519533.683532067,519534.730602965,0,0,1,0,0,18,3,7211310,1081060,2201161,0,0,0,3160200,4051110,0,0,0,0,0,0,0,0,0,0,0,0,0,-1081060,0,0,0,0,0,0,2201161,0,0,0,0,0,0,0,0,0,0,0
7,10,757.119043031707,0,0,519536.424747609,519537.471827361,0,0,1,0,0,9,3,4180180,0,0,6373301,0,0,0,0,0,0,0,0,-4180180,0,0,0,0,0,0,0,0,0,0,0,0,0,0,0,0,0,0,4051171,0,0,1121050,0,1201080,0,0,0
7,11,746.489075070713,0,0,519539.283615373,519540.330692815,0,0,1,1,0,11,3,3181021,3040030,4181121,1010051,0,0,0,0,0,0,0,3181021,0,0,-3040030,0,0,0,0,0,0,0,0,0,0,0,0,4181121,0,0,0,0,0,0,0,0,0,0,0,1010051
7,12,1354.13034859812,1,0,519542.118959622,519543.166021665,0,0,1,0,1,33,7,12373272,3061200,4181031,4272100,0,0,4141040,3101090,4080011,0,1051131,0,0,3061200,0,0,0,0,0,0,0,0,0,0,0,0,0,0,0,0,4181031,0,0,0,0,2091030,-2181070,0,0,0
7,13,774.564386054408,0,0,519545.707244984,519546.754324736,0,0,1,1,0,25,3,0,0,6151490,2140200,0,0,0,0,0,0,0,0,0,0,0,0,0,0,0,0,0,0,1030140,0,4080190,0,0,0,-1041160,0,0,0,0,0,0,2140200,0,0,0,0
7,14,1015.26176853804,0,0,519548.730822393,519549.777879048,0,0,1,0,0,5,3,4121090,1130041,0,6101152,0,0,0,0,-4121090,0,0,0,0,0,0,1130041,0,0,0,0,0,0,0,0,0,0,0,0,0,0,0,0,3050051,0,0,0,0,0,3051101,0
7,15,1585.50779038342,0,0,519551.860279489,519552.907346152,0,0,1,1,0,34,7,3180021,0,12502282,4281193,0,0,0,0,0,0,0,3180021,0,0,0,0,0,0,0,0,0,0,0,4111030,3180031,0,0,1150050,4061171,0,0,0,0,0,1120011,0,0,-2081011,1080171,0
7,16,816.772053251043,0,0,519555.577979985,519556.625049343,0,0,1,0,0,7,3,2091071,2071381,0,4130091,0,0,0,0,0,0,-2091071,0,0,0,1021180,0,0,0,0,1050201,0,0,0,0,0,0,0,0,0,0,0,0,0,0,0,4130091,0,0,0,0
7,17,616.152725706343,0,0,519558.601551235,519559.648622903,0,0,1,1,0,24,3,4060061,0,3210211,3130141,0,0,0,0,0,0,0,0,4060061,0,0,0,0,0,0,0,0,0,0,2020070,0,0,0,-1190141,0,0,0,3130141,0,0,0,0,0,0,0,0
7,18,1050.07007269887,1,0,519561.295709738,519562.342782176,0,0,1,0,1,23,7,2160102,11342383,5251240,1020081,0,0,0,0,1130081,0,0,0,1030021,0,4181131,0,0,0,4090191,0,0,3071061,0,0,0,0,-2060160,0,0,0,3191080,0,0,0,0,0,0,0,1020081,0
7,19,1039.03050470399,1,0,519564.401654482,519565.44872384,0,0,1,0,1,17,7,3030200,3152252,3182252,6283251,0,0,0,0,0,0,0,0,3030200,0,0,0,0,2141071,0,0,-1011181,0,1011171,0,0,0,0,0,2171081,0,0,1101071,1121110,0,0,4061070,0,0,0,0
7,20,632.786182919517,1,0,519567.542866405,519568.589960401,0,0,1,0,1,14,7,3061080,5371240,5211152,6223391,0,0,0,3061080,0,0,0,0,0,0,0,1190180,0,-4181060,0,0,0,0,0,3150041,0,2061111,0,0,0,0,0,0,1021180,0,2091051,3111160,0,0,0,0
7,21,618.799342482816,0,0,519570.331139756,519571.37820642,0,0,1,1,0,20,7,4232030,0,9412211,6341462,0,0,0,0,0,1181010,0,0,3051020,0,0,0,0,0,0,0,0,0,0,-3201010,0,0,0,0,3021150,3190051,0,0,0,0,2170171,3020161,1151130,0,0,0
7,22,754.114796116482,1,0,519573.013528803,519574.060598545,0,0,1,0,1,30,3,5161272,0,3050141,4090151,0,3020081,0,0,0,2141191,0,0,0,0,0,0,0,0,0,0,0,0,0,0,0,0,3050141,0,0,0,0,0,0,-4090151,0,0,0,0,0,0
7,23,591.487027006224,1,0,519575.884161404,519576.931235381,0,0,1,1,1,29,3,1101010,1060060,0,8142192,0,1101010,0,0,0,0,0,0,0,0,0,1060060,0,0,0,0,0,0,0,0,0,0,0,0,0,0,0,0,-4031141,0,0,0,0,4111051,0,0
7,24,1011.7844028282,1,0,519578.543048108,519579.590094368,0,0,1,1,1,13,7,4041151,9350161,2091030,6542363,4041151,0,0,0,0,0,0,0,0,0,4170020,0,-3080090,0,0,2100051,0,0,2091030,0,0,0,0,0,0,0,0,0,2140151,0,2201051,0,2201161,0,0,0
7,25,974.036910454743,0,0,519614.849445106,519615.896514464,0,0,2,1,0,34,7,3180021,0,12502282,4281193,0,0,0,0,0,0,0,3180021,0,0,0,0,0,0,0,0,0,0,0,4111030,3180031,0,0,1150050,4061171,0,0,0,0,0,1120011,0,0,-2081011,1080171,0
7,26,676.786620228086,1,0,519618.03774217,519619.084800749,0,0,2,1,1,35,3,4201201,0,0,5141422,0,0,0,4201201,0,0,0,0,0,0,0,0,0,0,0,0,0,0,0,0,0,0,0,0,0,0,0,0,1071151,0,0,0,2050120,0,-2020151,0
7,27,702.206075307913,1,0,519620.955429116,519622.002491929,0,0,2,0,1,23,3,0,0,6361393,2171040,0,0,0,0,0,0,0,0,0,0,0,0,0,0,0,0,0,0,0,0,0,0,-1191171,3070041,2100181,0,0,0,0,0,0,0,2171040,0,0,0
7,28,889.156541437842,1,0,519623.720256714,519624.767247155,0,0,2,1,1,12,3,1040161,4160150,6152051,0,0,0,0,0,1040161,0,0,0,0,0,0,-4160150,0,0,0,0,0,0,2091030,0,0,0,0,0,4061021,0,0,0,0,0,0,0,0,0,0,0
7,29,567.423794651404,1,0,519626.767275642,519627.814341535,0,0,2,0,1,30,7,4331200,3110150,2111031,7592383,0,3150090,0,0,0,0,0,1181110,0,0,0,0,0,3110150,0,0,0,0,0,0,0,0,0,2111031,0,0,0,0,0,-2190041,0,1071051,0,0,1131150,3200141
7,30,1001.19293114403,1,0,519629.579079822,519630.626156495,0,0,2,0,1,19,7,3151030,2091151,14301552,6271272,3151030,0,0,0,0,0,0,0,0,0,2091151,0,0,0,0,0,0,0,-4121071,0,4080111,3060170,0,0,3040200,0,0,2171121,0,0,0,4100151,0,0,0,0
7,31,756.405322579667,0,0,519632.743849138,519633.790928889,0,0,2,1,0,24,3,4060061,0,3210211,3130141,0,0,0,0,0,0,0,0,4060061,0,0,0,0,0,0,0,0,0,0,2020070,0,0,0,-1190141,0,0,0,3130141,0,0,0,0,0,0,0,0
7,32,946.813521441072,1,0,519635.661548017,519636.708653946,0,0,2,0,1,5,7,1081131,5192192,3091181,6282120,0,0,0,0,-1081131,0,0,0,0,0,3031111,0,1140040,0,0,1021041,0,0,0,0,2080100,0,0,0,1011081,0,0,3121030,0,0,3161090,0,0,0,0,0
7,33,866.75596178975,1,0,519638.861581817,519639.908641165,0,0,2,1,1,29,3,1101010,1060060,0,8142192,0,1101010,0,0,0,0,0,0,0,0,0,1060060,0,0,0,0,0,0,0,0,0,0,0,0,0,0,0,0,-4031141,0,0,0,0,4111051,0,0
7,34,1094.66874162899,1,0,519641.861635326,519642.90869506,0,0,2,1,1,13,7,4041151,9350161,2091030,6542363,4041151,0,0,0,0,0,0,0,0,0,4170020,0,-3080090,0,0,2100051,0,0,2091030,0,0,0,0,0,0,0,0,0,2140151,0,2201051,0,2201161,0,0,0
7,35,1055.67551078275,0,0,519645.16761002,519646.214624714,0,0,2,0,0,18,3,4100020,4121171,5230130,0,0,0,0,0,0,4100020,0,0,0,0,0,0,0,0,0,0,0,-4121171,0,0,0,2090080,0,0,0,3140050,0,0,0,0,0,0,0,0,0,0
7,36,672.472731093876,1,0,519648.402891366,519649.449965729,0,0,2,0,1,9,3,3201091,0,10401251,0,0,0,0,0,0,0,0,0,-3201091,0,0,0,0,0,0,0,0,0,0,0,4141010,0,3190201,0,3070040,0,0,0,0,0,0,0,0,0,0,0
7,37,745.537832845002,1,0,519651.167641202,519652.214705171,0,0,2,1,1,25,3,0,0,6151490,2140200,0,0,0,0,0,0,0,0,0,0,0,0,0,0,0,0,0,0,1030140,0,4080190,0,0,0,-1041160,0,0,0,0,0,0,2140200,0,0,0,0
7,38,1030.34998656949,0,0,519654.108862442,519655.155928335,0,0,2,1,0,32,7,1100040,6132251,5070281,4301271,1100040,0,0,0,0,0,0,0,0,0,1010070,0,3101071,0,2021110,0,0,0,0,0,0,2010120,0,0,0,0,3060161,0,0,2130131,0,-2171140,0,0,0,0
7,39,810.802440682892,1,0,519657.332446704,519658.379506438,0,0,2,0,1,17,3,0,7270292,1090131,1110180,0,0,0,0,0,0,0,0,0,4180111,0,0,0,0,0,0,-3090181,0,0,0,0,0,0,0,0,1090131,0,0,0,0,0,0,1110180,0,0,0
7,40,2160.94772540964,0,0,519660.238403074,519661.28543663,0,0,2,0,0,33,7,9202163,5221241,4161070,4291140,0,2080031,0,0,4021031,3101101,0,0,0,0,0,0,0,0,0,0,2161191,3060050,0,0,0,0,0,0,0,4161070,0,0,0,0,3111040,0,-1180100,0,0,0
7,41,641.446682973765,0,0,519664.579606066,519665.626673884,0,0,2,0,0,14,3,3022231,8192161,0,0,2011111,0,0,0,0,0,1011120,0,0,4111010,0,0,0,-4081151,0,0,0,0,0,0,0,0,0,0,0,0,0,0,0,0,0,0,0,0,0,0
7,42,871.892900613602,0,0,519667.391470301,519668.43847845,0,0,2,0,0,22,7,6172361,9411211,6020270,0,0,0,4051191,0,0,0,0,2121170,0,2040070,0,0,1200021,2151050,0,0,0,4020070,0,0,0,-4010170,0,0,2010100,0,0,0,0,0,0,0,0,0,0,0
7,43,1023.32211221801,0,0,519670.367931387,519671.414994201,0,0,2,1,0,10,7,2191200,9361351,6141211,7181341,0,0,0,0,0,2191200,0,0,0,-4010130,3200170,0,2151051,0,0,0,0,0,0,0,0,0,0,0,2100131,4041080,0,0,0,0,3160150,0,0,0,0,4021191
7,44,734.967534081079,0,0,519673.462084347,519674.509160634,0,0,2,1,0,11,3,3181021,3040030,4181121,1010051,0,0,0,0,0,0,0,3181021,0,0,-3040030,0,0,0,0,0,0,0,0,0,0,0,0,4181121,0,0,0,0,0,0,0,0,0,0,0,1010051
7,45,1395.76442172984,0,0,519676.250373481,519677.29743514,0,0,2,0,0,7,3,6080181,0,1141191,2090100,0,0,0,0,0,0,-2010120,4070061,0,0,0,0,0,0,0,0,0,0,0,0,0,0,0,0,1141191,0,0,0,0,0,0,0,0,0,0,2090100
7,46,768.214430485386,1,0,519679.82710304,519680.873960284,0,0,2,1,1,20,7,4232030,0,9412211,6341462,0,0,0,0,0,1181010,0,0,3051020,0,0,0,0,0,0,0,0,0,0,-3201010,0,0,0,0,3021150,3190051,0,0,0,0,2170171,3020161,1151130,0,0,0
7,47,1799.84102002345,0,0,519682.709292599,519683.756354258,0,0,2,1,0,1,7,7392483,4011181,0,11442352,-3181181,0,1191161,0,0,0,0,3020141,0,4011181,0,0,0,0,0,0,0,0,0,0,0,0,0,0,0,0,0,0,0,3200161,4051091,0,2170070,2021030,0,0
7,48,696.02434837725,0,0,519686.721110561,519687.768181844,0,0,2,0,0,16,7,12631772,4050081,1050201,2191120,2191121,4010140,0,1180191,0,4120150,0,0,1130170,0,0,0,0,0,0,-4050081,0,0,0,0,0,0,1050201,0,0,0,0,0,0,0,0,0,0,2191120,0,0
7,49,1101.02293174714,0,0,519708.897906488,519709.94497931,0,0,3,0,0,30,7,2181061,9141301,4100141,4292281,0,0,2181061,0,0,0,0,0,0,2071061,0,0,0,4060140,0,0,3010100,0,0,0,4100141,0,0,0,0,0,0,0,0,-2020080,0,0,1191030,0,1081171,0
7,50,495.341117028147,0,0,519712.12148536,519713.168562802,0,0,3,0,0,23,3,1090100,0,3040171,4242210,0,0,0,0,0,0,1090100,0,0,0,0,0,0,0,0,0,0,0,0,0,0,0,-3040171,0,0,0,0,0,2131160,0,0,0,2111050,0,0,0
7,51,768.475050106645,1,0,519714.82741717,519715.874469589,0,0,3,1,1,20,7,4232030,0,9412211,6341462,0,0,0,0,0,1181010,0,0,3051020,0,0,0,0,0,0,0,0,0,0,-3201010,0,0,0,0,3021150,3190051,0,0,0,0,2170171,3020161,1151130,0,0,0
7,52,530.612915928941,0,0,519717.780399782,519718.82746683,0,0,3,1,0,29,3,1101010,1060060,0,8142192,0,1101010,0,0,0,0,0,0,0,0,0,1060060,0,0,0,0,0,0,0,0,0,0,0,0,0,0,0,0,-4031141,0,0,0,0,4111051,0,0
7,53,919.600141351111,1,0,519720.380436122,519721.42750856,0,0,3,1,1,11,3,3181021,3040030,4181121,1010051,0,0,0,0,0,0,0,3181021,0,0,-3040030,0,0,0,0,0,0,0,0,0,0,0,0,4181121,0,0,0,0,0,0,0,0,0,0,0,1010051
7,54,832.456193107646,1,0,519723.533223408,519724.580521892,0,0,3,1,1,35,3,4201201,0,0,5141422,0,0,0,4201201,0,0,0,0,0,0,0,0,0,0,0,0,0,0,0,0,0,0,0,0,0,0,0,0,1071151,0,0,0,2050120,0,-2020151,0
7,55,677.201224782038,1,0,519726.427587092,519727.474651445,0,0,3,0,1,33,7,9402394,0,5391251,6342251,0,0,0,0,2011111,3120061,1080191,0,3191031,0,0,0,0,0,0,0,0,0,2191100,0,0,0,3200151,0,0,0,0,0,0,0,0,0,-3191090,3151161,0,0
7,56,1134.20207478339,1,0,519729.32177593,519730.368808332,0,0,3,0,1,7,7,2232200,0,8201201,11430540,0,0,0,0,0,0,-1051130,0,1181070,0,0,0,0,0,0,0,0,0,0,0,4171141,0,0,4030060,0,0,0,0,2110160,1160200,0,0,4010030,0,4150150,0
7,57,720.896771876141,0,0,519732.615913799,519733.662976612,0,0,3,0,0,9,3,5312082,3130171,1100161,0,4181021,0,0,0,0,0,0,0,-1131061,3130171,0,0,0,0,0,0,0,0,0,1100161,0,0,0,0,0,0,0,0,0,0,0,0,0,0,0,0
7,58,870.129772636574,1,0,519735.580675877,519736.627715208,0,0,3,0,1,19,3,0,2110090,7273432,0,0,0,0,0,0,0,0,0,0,0,0,0,2110090,0,0,0,0,0,-3011110,0,0,0,2201121,0,0,2061201,0,0,0,0,0,0,0,0,0,0
7,59,907.110034837388,0,0,519738.639528165,519739.686597523,0,0,3,0,0,14,3,0,2230170,1010090,1011040,0,0,0,0,0,0,0,0,0,0,0,1090160,0,-1140010,0,0,0,0,0,0,0,0,0,0,1010090,0,0,0,0,0,0,1011040,0,0,0,0
7,60,611.581681587268,0,0,519741.710167234,519742.757231587,0,0,3,0,0,17,7,5250090,3352050,7352353,4180111,0,0,1160010,0,4090080,0,0,0,0,0,0,1181010,0,0,0,0,-2171040,0,0,2141171,0,4031171,0,0,1180011,0,0,0,0,0,0,4180111,0,0,0,0
7,61,1122.94115335681,1,0,519744.427898912,519745.474923614,0,0,3,0,1,5,3,3010091,3100151,0,3311352,0,0,0,0,-3010091,0,0,0,0,0,0,3100151,0,0,0,0,0,0,0,0,0,0,0,0,0,0,0,0,0,0,0,0,2170151,0,0,1141201
7,62,1273.88993179193,0,0,519747.674965498,519748.722025617,0,0,3,1,0,12,3,1040161,4160150,6152051,0,0,0,0,0,1040161,0,0,0,0,0,0,-4160150,0,0,0,0,0,0,2091030,0,0,0,0,0,4061021,0,0,0,0,0,0,0,0,0,0,0
7,63,1002.40787258372,1,0,519751.004419051,519752.051495339,0,0,3,1,1,10,7,2191200,9361351,6141211,7181341,0,0,0,0,0,2191200,0,0,0,-4010130,3200170,0,2151051,0,0,0,0,0,0,0,0,0,0,0,2100131,4041080,0,0,0,0,3160150,0,0,0,0,4021191
7,64,958.942148135975,1,0,519754.086853754,519755.13389424,0,0,3,1,1,13,7,4041151,9350161,2091030,6542363,4041151,0,0,0,0,0,0,0,0,0,4170020,0,-3080090,0,0,2100051,0,0,2091030,0,0,0,0,0,0,0,0,0,2140151,0,2201051,0,2201161,0,0,0
7,65,813.728925131727,1,0,519757.275098464,519758.322167822,0,0,3,1,1,25,3,0,0,6151490,2140200,0,0,0,0,0,0,0,0,0,0,0,0,0,0,0,0,0,0,1030140,0,4080190,0,0,0,-1041160,0,0,0,0,0,0,2140200,0,0,0,0
7,66,858.102775993757,0,0,519760.157499752,519761.204566415,0,0,3,1,0,34,7,3180021,0,12502282,4281193,0,0,0,0,0,0,0,3180021,0,0,0,0,0,0,0,0,0,0,0,4111030,3180031,0,0,1150050,4061171,0,0,0,0,0,1120011,0,0,-2081011,1080171,0
7,67,779.429156449623,1,0,519763.216371288,519764.263432947,0,0,3,1,1,24,3,4060061,0,3210211,3130141,0,0,0,0,0,0,0,0,4060061,0,0,0,0,0,0,0,0,0,0,2020070,0,0,0,-1190141,0,0,0,3130141,0,0,0,0,0,0,0,0
7,68,794.629013515078,0,0,519766.23993253,519767.286996883,0,0,3,0,0,18,7,4180330,6252452,3370030,3121111,0,0,2100200,0,0,0,0,0,2080130,0,2121191,0,0,3080110,0,0,0,-1051151,0,0,0,0,0,0,1180020,0,2190010,3121111,0,0,0,0,0,0,0,0
7,69,1845.8709793631,0,0,519769.204690758,519770.251757421,0,0,3,1,0,1,7,7392483,4011181,0,11442352,-3181181,0,1191161,0,0,0,0,3020141,0,4011181,0,0,0,0,0,0,0,0,0,0,0,0,0,0,0,0,0,0,0,3200161,4051091,0,2170070,2021030,0,0
7,70,524.477384460624,0,0,519773.192985975,519774.240056103,0,0,3,0,0,22,3,0,4221211,6081101,0,0,0,0,0,0,0,0,0,0,0,3160010,0,0,0,0,0,0,1061201,0,0,0,-4050011,2031090,0,0,0,0,0,0,0,0,0,0,0,0,0
7,71,624.665015202481,0,0,519775.804799471,519776.851853431,0,0,3,0,0,16,7,10260241,7320203,0,7201291,0,0,0,0,4030170,3200060,0,0,3030011,0,0,0,2120091,0,0,-4010041,1190071,0,0,0,0,0,0,0,0,0,0,4081180,0,0,0,0,0,0,0,3120111
7,72,858.120869204868,0,0,519778.581299516,519779.628362714,0,0,3,1,0,32,7,1100040,6132251,5070281,4301271,1100040,0,0,0,0,0,0,0,0,0,1010070,0,3101071,0,2021110,0,0,0,0,0,0,2010120,0,0,0,0,3060161,0,0,2130131,0,-2171140,0,0,0,0
7,73,640.987807768397,1,0,519810.558232566,519811.605313473,0,0,4,0,1,18,3,2110050,6122211,2201170,0,0,0,0,0,2110050,0,0,0,0,0,0,0,0,0,2031100,0,0,-4091111,0,0,2201170,0,0,0,0,0,0,0,0,0,0,0,0,0,0,0
7,74,947.292414726689,0,0,519813.264162066,519814.311235658,0,0,4,1,0,34,7,3180021,0,12502282,4281193,0,0,0,0,0,0,0,3180021,0,0,0,0,0,0,0,0,0,0,0,4111030,3180031,0,0,1150050,4061171,0,0,0,0,0,1120011,0,0,-2081011,1080171,0
7,75,1172.94777475763,1,0,519816.299509317,519817.346569821,0,0,4,0,1,9,7,9231410,5221262,5372181,4180091,0,0,0,0,4010140,0,0,3051090,-2170180,0,0,0,0,2191121,3030141,0,0,0,0,0,0,1201160,0,0,0,4171021,0,0,0,0,0,0,0,4180091,0,0
7,76,703.322466404643,1,0,519819.581903522,519820.628980964,0,0,4,0,1,33,3,1080121,0,3160130,5250301,0,0,0,1080121,0,0,0,0,0,0,0,0,0,0,0,0,0,0,0,0,0,0,0,0,0,0,3160130,0,0,0,0,0,-2130111,0,3120190,0
7,77,567.227463820018,1,0,519822.370186497,519823.417235452,0,0,4,1,1,29,3,1101010,1060060,0,8142192,0,1101010,0,0,0,0,0,0,0,0,0,1060060,0,0,0,0,0,0,0,0,0,0,0,0,0,0,0,0,-4031141,0,0,0,0,4111051,0,0
7,78,818.153298518155,1,0,519825.181991447,519826.22906196,0,0,4,1,1,12,3,1040161,4160150,6152051,0,0,0,0,0,1040161,0,0,0,0,0,0,-4160150,0,0,0,0,0,0,2091030,0,0,0,0,0,4061021,0,0,0,0,0,0,0,0,0,0,0
7,79,1079.36802442418,1,0,519828.13497252,519829.182043417,0,0,4,0,1,19,3,0,1191201,7340191,4121140,0,0,0,0,0,0,0,0,0,0,1191201,0,0,0,0,0,0,0,-4150180,0,0,0,0,0,3190011,0,0,0,0,0,0,0,0,0,4121140,0
7,80,572.832901962101,1,0,519831.323254956,519832.37036435,0,0,4,1,1,25,3,0,0,6151490,2140200,0,0,0,0,0,0,0,0,0,0,0,0,0,0,0,0,0,0,1030140,0,4080190,0,0,0,-1041160,0,0,0,0,0,0,2140200,0,0,0,0
7,81,565.007000404876,1,0,519833.982124336,519835.029189845,0,0,4,0,1,17,3,0,8030201,0,2391291,0,0,0,0,0,0,0,0,0,0,0,0,0,0,0,0,-4010181,4020020,0,0,0,0,0,0,0,0,0,1201140,0,1190151,0,0,0,0,0,0
7,82,574.792360770516,0,0,519836.723342958,519837.770415011,0,0,4,0,0,14,7,1181171,8322191,8201383,1130201,0,0,0,0,0,0,1181171,0,0,3150130,0,1071051,0,-4101010,0,0,0,0,0,3051111,0,1060071,0,0,4090201,0,0,0,0,0,0,0,0,0,0,1130201
7,83,594.950149185024,0,0,519839.523446975,519840.570448964,0,0,4,1,0,24,3,4060061,0,3210211,3130141,0,0,0,0,0,0,0,0,4060061,0,0,0,0,0,0,0,0,0,0,2020070,0,0,0,-1190141,0,0,0,3130141,0,0,0,0,0,0,0,0
7,84,450.417154817842,0,0,519842.264593609,519843.311664122,0,0,4,0,0,23,3,2180130,2151051,3131101,4160170,0,0,0,0,0,2180130,0,0,0,0,0,2151051,0,0,0,0,0,0,0,0,0,0,-3131101,0,0,0,0,0,0,4160170,0,0,0,0,0,0
7,85,486.354168795515,0,0,519844.852940565,519845.899941784,0,0,4,1,0,10,7,2191200,9361351,6141211,7181341,0,0,0,0,0,2191200,0,0,0,-4010130,3200170,0,2151051,0,0,0,0,0,0,0,0,0,0,0,2100131,4041080,0,0,0,0,3160150,0,0,0,0,4021191
7,86,1023.36022350937,0,0,519847.405888299,519848.452933019,0,0,4,0,0,5,7,2322280,2031200,4392251,6380211,0,0,0,0,-1131080,0,0,0,1191200,0,0,0,0,0,0,0,0,2031200,0,1141081,0,0,0,0,0,1201050,2050120,0,0,0,4180191,2200020,0,0,0,0
7,87,726.763599435799,0,0,519850.629459472,519851.676490334,0,0,4,1,0,35,3,4201201,0,0,5141422,0,0,0,4201201,0,0,0,0,0,0,0,0,0,0,0,0,0,0,0,0,0,0,0,0,0,0,0,0,1071151,0,0,0,2050120,0,-2020151,0
7,88,949.191819410771,1,0,519853.500054347,519854.547122165,0,0,4,0,1,7,7,4121291,8360242,0,8112421,0,0,0,0,0,2060151,-2061140,0,0,1190070,0,0,0,0,0,4090111,0,3080061,0,0,0,0,0,0,0,0,0,0,3061130,0,0,0,2020150,3031141,0,0
7,89,692.555836809333,0,0,519856.629516062,519857.676588884,0,0,4,1,0,20,7,4232030,0,9412211,6341462,0,0,0,0,0,1181010,0,0,3051020,0,0,0,0,0,0,0,0,0,0,-3201010,0,0,0,0,3021150,3190051,0,0,0,0,2170171,3020161,1151130,0,0,0
7,90,563.240022805985,0,0,519859.464833363,519860.511923124,0,0,4,0,0,16,7,7351142,4262482,6211170,1191061,0,0,0,4201101,0,0,3150041,0,0,0,0,0,0,0,1131181,-2110111,1021190,0,4071110,0,2140060,0,0,0,0,0,0,0,0,0,0,0,1191061,0,0,0
7,91,488.153868238442,0,0,519862.159001875,519863.206076623,0,0,4,0,0,22,3,9412352,0,2161160,0,0,3191161,4200080,2021111,0,0,0,0,0,0,0,0,0,0,0,0,0,0,0,0,0,-2161160,0,0,0,0,0,0,0,0,0,0,0,0,0,0
7,92,1975.13636318035,0,0,519864.723752943,519865.770816912,0,0,4,1,0,1,7,7392483,4011181,0,11442352,-3181181,0,1191161,0,0,0,0,3020141,0,4011181,0,0,0,0,0,0,0,0,0,0,0,0,0,0,0,0,0,0,0,3200161,4051091,0,2170070,2021030,0,0
7,93,2163.94542797934,0,0,519868.959142464,519870.0061791,0,0,4,1,0,32,7,1100040,6132251,5070281,4301271,1100040,0,0,0,0,0,0,0,0,0,1010070,0,3101071,0,2021110,0,0,0,0,0,0,2010120,0,0,0,0,3060161,0,0,2130131,0,-2171140,0,0,0,0
7,94,921.653530967887,1,0,519873.206227913,519874.253292651,0,0,4,1,1,13,7,4041151,9350161,2091030,6542363,4041151,0,0,0,0,0,0,0,0,0,4170020,0,-3080090,0,0,2100051,0,0,2091030,0,0,0,0,0,0,0,0,0,2140151,0,2201051,0,2201161,0,0,0
7,95,759.656715439633,1,0,519876.312163033,519877.359224307,0,0,4,1,1,11,3,3181021,3040030,4181121,1010051,0,0,0,0,0,0,0,3181021,0,0,-3040030,0,0,0,0,0,0,0,0,0,0,0,0,4181121,0,0,0,0,0,0,0,0,0,0,0,1010051
7,96,1404.88187223673,1,0,519879.323964441,519880.371071911,0,0,4,0,1,30,7,10261210,2171170,4290252,7232371,0,3121040,4010040,0,0,3130130,0,0,0,0,0,2171170,0,0,0,0,0,0,0,0,2190131,0,0,0,0,0,2100121,0,0,-4041200,3191171,0,0,0,0,0
7,97,674.263576336671,1,0,519903.406670158,519904.453741056,0,0,5,1,1,24,3,4060061,0,3210211,3130141,0,0,0,0,0,0,0,0,4060061,0,0,0,0,0,0,0,0,0,0,2020070,0,0,0,-1190141,0,0,0,3130141,0,0,0,0,0,0,0,0
7,98,420.43281509541,1,0,519906.277308148,519907.324378661,0,0,5,0,1,9,3,6171211,1081031,3100120,0,0,0,0,3060041,0,0,0,0,-3111170,1081031,0,0,0,0,0,0,0,0,3100120,0,0,0,0,0,0,0,0,0,0,0,0,0,0,0,0,0
7,99,912.256212846842,0,0,519908.865583116,519909.912649779,0,0,5,1,0,13,7,4041151,9350161,2091030,6542363,4041151,0,0,0,0,0,0,0,0,0,4170020,0,-3080090,0,0,2100051,0,0,2091030,0,0,0,0,0,0,0,0,0,2140151,0,2201051,0,2201161,0,0,0
7,100,522.716181294527,0,0,519911.947980093,519912.995046371,0,0,5,1,0,10,7,2191200,9361351,6141211,7181341,0,0,0,0,0,2191200,0,0,0,-4010130,3200170,0,2151051,0,0,0,0,0,0,0,0,0,0,0,2100131,4041080,0,0,0,0,3160150,0,0,0,0,4021191
7,101,692.375674378127,1,0,519914.677429257,519915.724505545,0,0,5,1,1,25,3,0,0,6151490,2140200,0,0,0,0,0,0,0,0,0,0,0,0,0,0,0,0,0,0,1030140,0,4080190,0,0,0,-1041160,0,0,0,0,0,0,2140200,0,0,0,0
7,102,507.632967841346,0,0,519917.453978192,519918.501015983,0,0,5,0,0,22,7,5131221,4060212,5301072,6151262,0,2060140,0,0,0,0,0,3071081,0,3020111,0,1040101,0,0,0,0,0,0,0,0,0,-4120061,1181011,0,0,0,0,3071191,3080071,0,0,0,0,0,0,0
7,103,1126.28031760687,1,0,519920.183399255,519921.230468228,0,0,5,0,1,18,3,1141171,3011200,3231151,0,0,0,0,0,0,0,1141171,0,0,0,0,0,0,0,0,0,0,-3011200,0,0,0,0,0,1030101,2201050,0,0,0,0,0,0,0,0,0,0,0
7,104,880.542236787733,0,0,519923.44226802,519924.489339688,0,0,5,1,0,32,7,1100040,6132251,5070281,4301271,1100040,0,0,0,0,0,0,0,0,0,1010070,0,3101071,0,2021110,0,0,0,0,0,0,2010120,0,0,0,0,3060161,0,0,2130131,0,-2171140,0,0,0,0
7,105,924.329019966535,1,0,519926.548220848,519927.595285586,0,0,5,0,1,33,3,0,0,1110071,6270251,0,0,0,0,0,0,0,0,0,0,0,0,0,0,0,0,0,0,1110071,0,0,0,0,0,0,0,0,0,0,0,0,1020030,-4180021,1070200,0,0
7,106,1964.02211248642,1,0,519929.583534223,519930.630597036,0,0,5,0,1,7,7,5151200,1121071,1070151,9492431,0,0,2061130,0,0,0,-3090070,0,0,0,0,1121071,0,0,0,0,0,0,0,0,0,0,1070151,0,0,0,0,0,0,4200191,0,0,0,1050040,2181070,2061130
7,107,639.993064804003,0,0,519933.689476272,519934.73654486,0,0,5,0,0,14,7,3102140,4140040,3121110,7162361,0,1091010,0,0,0,0,0,0,2011130,0,0,0,0,-4140040,0,0,0,0,2111020,0,0,0,0,0,1010090,0,0,1130051,0,4021180,0,0,2011130,0,0,0
7,108,795.930186577607,0,0,519936.536581509,519937.583708996,0,0,5,1,0,35,3,4201201,0,0,5141422,0,0,0,4201201,0,0,0,0,0,0,0,0,0,0,0,0,0,0,0,0,0,0,0,0,0,0,0,0,1071151,0,0,0,2050120,0,-2020151,0
7,109,1725.94940394629,0,0,519939.489564506,519940.536632709,0,0,5,1,0,1,7,7392483,4011181,0,11442352,-3181181,0,1191161,0,0,0,0,3020141,0,4011181,0,0,0,0,0,0,0,0,0,0,0,0,0,0,0,0,0,0,0,3200161,4051091,0,2170070,2021030,0,0
7,110,853.483996645082,1,0,519943.324907599,519944.371986966,0,0,5,0,1,17,3,0,5211380,4100101,4051040,0,0,0,0,0,0,0,0,0,0,2180180,0,0,0,0,0,-3031200,0,0,4100101,0,0,0,0,0,0,0,0,0,0,4051040,0,0,0,0,0
7,111,876.044335600454,0,0,519946.242608404,519947.289678531,0,0,5,0,0,30,7,6192120,4250130,4161090,9222130,0,2071010,0,0,0,0,0,4121110,0,0,0,1060080,0,0,0,3190050,0,0,0,0,0,4161090,0,0,0,0,0,4071050,0,-4110050,0,0,0,1041030,0,0
7,112,571.458201040514,0,0,519949.230885142,519950.277952575,0,0,5,1,0,29,3,1101010,1060060,0,8142192,0,1101010,0,0,0,0,0,0,0,0,0,1060060,0,0,0,0,0,0,0,0,0,0,0,0,0,0,0,0,-4031141,0,0,0,0,4111051,0,0
7,113,473.597668344155,0,0,519951.936804633,519952.983875531,0,0,5,0,0,23,7,0,2111031,7231491,10542352,0,0,0,0,0,0,0,0,0,0,0,0,0,0,0,0,2111031,0,0,0,3100180,2051110,-2080201,0,0,0,0,2181111,2070010,3160100,0,3131131,0,0,0,0
7,114,746.815138263628,1,0,519954.642752995,519955.689799641,0,0,5,1,1,34,7,3180021,0,12502282,4281193,0,0,0,0,0,0,0,3180021,0,0,0,0,0,0,0,0,0,0,0,4111030,3180031,0,0,1150050,4061171,0,0,0,0,0,1120011,0,0,-2081011,1080171,0
7,115,724.389921058901,1,0,519957.583950367,519958.63102088,0,0,5,1,1,20,7,4232030,0,9412211,6341462,0,0,0,0,0,1181010,0,0,3051020,0,0,0,0,0,0,0,0,0,0,-3201010,0,0,0,0,3021150,3190051,0,0,0,0,2170171,3020161,1151130,0,0,0
7,116,714.400915603619,1,0,519960.478139205,519961.52519278,0,0,5,1,1,12,3,1040161,4160150,6152051,0,0,0,0,0,1040161,0,0,0,0,0,0,-4160150,0,0,0,0,0,0,2091030,0,0,0,0,0,4061021,0,0,0,0,0,0,0,0,0,0,0
7,117,623.583270760719,1,0,519963.384034366,519964.431104494,0,0,5,1,1,11,3,3181021,3040030,4181121,1010051,0,0,0,0,0,0,0,3181021,0,0,-3040030,0,0,0,0,0,0,0,0,0,0,0,0,4181121,0,0,0,0,0,0,0,0,0,0,0,1010051
7,118,1014.54496855149,1,0,519966.101749876,519967.148787282,0,0,5,0,1,5,3,4160110,1020151,6251280,0,0,0,0,0,-4160110,0,0,0,0,0,0,1020151,0,0,0,0,0,0,0,0,0,3090140,0,3161140,0,0,0,0,0,0,0,0,0,0,0,0
7,119,830.428210960235,0,0,519969.242946401,519970.290013834,0,0,5,0,0,19,7,10481451,2171020,5190050,2292162,0,0,0,4160141,3150150,0,3171160,0,0,0,0,0,0,2171020,0,0,0,0,-2050040,0,0,0,0,0,3140010,0,0,1181121,0,0,0,0,0,1111041,0,0
7,120,495.690662937704,1,0,519972.313638594,519973.360643278,0,0,5,0,1,16,3,0,3352092,4101201,3130041,0,0,0,0,0,0,0,0,0,2171071,0,0,0,0,0,-1181021,0,0,4101201,0,0,0,0,0,0,0,0,0,0,0,0,0,0,0,0,3130041
7,121,842.100272246171,0,0,519989.290294471,519990.337365754,0,0,6,0,0,18,3,0,9203311,4020200,0,0,0,0,0,0,0,0,0,0,3031170,0,0,4131070,0,0,0,0,-2041071,0,0,0,0,0,0,4020200,0,0,0,0,0,0,0,0,0,0,0
7,122,1593.86878967052,0,0,519992.23152649,519993.278591998,0,0,6,1,0,1,7,7392483,4011181,0,11442352,-3181181,0,1191161,0,0,0,0,3020141,0,4011181,0,0,0,0,0,0,0,0,0,0,0,0,0,0,0,0,0,0,0,3200161,4051091,0,2170070,2021030,0,0
7,123,1251.11131911399,1,0,519995.960979504,519997.008057331,0,0,6,1,1,34,7,3180021,0,12502282,4281193,0,0,0,0,0,0,0,3180021,0,0,0,0,0,0,0,0,0,0,0,4111030,3180031,0,0,1150050,4061171,0,0,0,0,0,1120011,0,0,-2081011,1080171,0
7,124,540.988038701471,1,0,519999.455153098,520000.502227075,0,0,6,0,1,22,7,4200061,4340151,8353482,5111322,0,0,0,0,4200061,0,0,0,0,2190120,0,0,0,0,0,0,2150031,0,2061171,0,0,-4201181,0,0,0,2091130,0,0,0,0,3061151,0,0,0,2050171,0
7,125,566.829412651714,1,0,520002.243433378,520003.290499271,0,0,6,1,1,10,7,2191200,9361351,6141211,7181341,0,0,0,0,0,2191200,0,0,0,-4010130,3200170,0,2151051,0,0,0,0,0,0,0,0,0,0,0,2100131,4041080,0,0,0,0,3160150,0,0,0,0,4021191
7,126,882.56328960415,0,0,520004.890517519,520005.937609589,0,0,6,0,0,30,7,8210142,10502302,3090031,4112381,4080131,4130011,0,0,0,0,0,0,0,0,4141161,0,3161070,0,0,0,3200071,0,0,0,0,0,0,0,0,0,3090031,0,2061200,-2051181,0,0,0,0,0,0
7,127,1070.31563250348,0,0,520007.984779037,520009.031763704,0,0,6,1,0,32,7,1100040,6132251,5070281,4301271,1100040,0,0,0,0,0,0,0,0,0,1010070,0,3101071,0,2021110,0,0,0,0,0,0,2010120,0,0,0,0,3060161,0,0,2130131,0,-2171140,0,0,0,0
7,128,884.794916899409,1,0,520011.114147591,520012.161270459,0,0,6,1,1,13,7,4041151,9350161,2091030,6542363,4041151,0,0,0,0,0,0,0,0,0,4170020,0,-3080090,0,0,2100051,0,0,2091030,0,0,0,0,0,0,0,0,0,2140151,0,2201051,0,2201161,0,0,0
7,129,545.254192489665,1,0,520014.125964783,520015.173024902,0,0,6,0,1,14,3,0,2131041,6121160,2131160,0,0,0,0,0,0,0,0,0,0,0,0,0,-2131041,0,0,0,0,0,3010070,0,0,3111090,0,0,0,0,0,0,0,2131160,0,0,0,0,0
7,130,881.606657931115,1,0,520016.855478622,520017.902487926,0,0,6,1,1,24,3,4060061,0,3210211,3130141,0,0,0,0,0,0,0,0,4060061,0,0,0,0,0,0,0,0,0,0,2020070,0,0,0,-1190141,0,0,0,3130141,0,0,0,0,0,0,0,0
7,131,422.021170146763,1,0,520019.820222992,520020.86723268,0,0,6,0,1,16,3,6151171,3030050,2121170,0,0,4020041,0,2131130,0,0,0,0,0,0,0,0,0,0,0,-3030050,0,0,0,0,0,0,0,0,0,0,2121170,0,0,0,0,0,0,0,0,0
7,132,1719.97517178534,1,0,520022.479027314,520023.526094747,0,0,6,0,1,19,7,2011081,0,12271312,8381300,0,2011081,0,0,0,0,0,0,0,0,0,0,0,0,0,0,0,0,-2060140,0,0,4011141,3050021,0,3150010,0,0,0,0,0,1151070,4190120,0,0,0,3040110
7,133,610.097266442608,0,0,520026.443792471,520027.490862984,0,0,6,0,0,7,3,3071160,4231302,2081021,0,0,0,0,0,0,0,-3071160,0,0,3130181,0,0,0,0,1101121,0,0,0,0,0,0,0,0,0,0,0,2081021,0,0,0,0,0,0,0,0,0
7,134,699.456288537476,0,0,520029.149711962,520030.196782089,0,0,6,0,0,33,3,0,4130121,4011201,8301210,0,0,0,0,0,0,0,0,0,0,0,0,0,0,0,0,0,4130121,0,0,0,0,0,0,4011201,0,0,0,0,0,0,4180160,-4121050,0,0,0
7,135,485.059925122187,0,0,520031.996811808,520033.043875777,0,0,6,0,0,23,3,2030090,0,1081040,8252092,0,0,0,0,0,2030090,0,0,0,0,0,0,0,0,0,0,0,0,0,0,0,0,-1081040,0,0,0,0,0,0,0,4071051,0,0,4181041,0,0
7,136,1209.05340224272,0,0,520034.643913272,520035.690977626,0,0,6,0,0,5,7,14402373,0,7220100,1021011,0,3081051,0,3100160,-3030071,4090010,0,1101081,0,0,0,0,0,0,0,0,0,0,0,0,4080070,0,0,0,0,3140030,0,0,0,0,0,1021011,0,0,0,0
7,137,721.733680227771,0,0,520037.985161305,520039.032204871,0,0,6,1,0,20,7,4232030,0,9412211,6341462,0,0,0,0,0,1181010,0,0,3051020,0,0,0,0,0,0,0,0,0,0,-3201010,0,0,0,0,3021150,3190051,0,0,0,0,2170171,3020161,1151130,0,0,0
7,138,609.715383732691,1,0,520040.879302408,520041.926365221,0,0,6,1,1,25,3,0,0,6151490,2140200,0,0,0,0,0,0,0,0,0,0,0,0,0,0,0,0,0,0,1030140,0,4080190,0,0,0,-1041160,0,0,0,0,0,0,2140200,0,0,0,0
7,139,537.737415812444,1,0,520043.691111593,520044.738210978,0,0,6,0,1,9,7,10432411,4381412,3010181,3170040,0,0,0,0,4201120,0,3201171,0,-3030120,2080181,0,0,0,1111041,0,0,1190190,0,3010181,0,0,0,0,0,0,0,0,0,0,0,0,0,3170040,0,0,0
7,140,840.690539742354,1,0,520046.279380786,520047.326449374,0,0,6,1,1,35,3,4201201,0,0,5141422,0,0,0,4201201,0,0,0,0,0,0,0,0,0,0,0,0,0,0,0,0,0,0,0,0,0,0,0,0,1071151,0,0,0,2050120,0,-2020151,0
7,141,567.337948014028,1,0,520049.279419667,520050.326492105,0,0,6,0,1,17,7,4212152,5292261,12301381,3050101,0,0,0,2041131,0,0,2171021,0,0,0,0,0,0,0,0,0,-4151150,1141111,4010101,0,4201130,0,0,4090150,0,0,0,3050101,0,0,0,0,0,0,0,0
7,142,480.668658448849,1,0,520051.93827211,520052.985349937,0,0,6,1,1,29,3,1101010,1060060,0,8142192,0,1101010,0,0,0,0,0,0,0,0,0,1060060,0,0,0,0,0,0,0,0,0,0,0,0,0,0,0,0,-4031141,0,0,0,0,4111051,0,0
7,143,687.418705259915,0,0,520054.51483883,520055.573433001,0,0,6,1,0,11,3,3181021,3040030,4181121,1010051,0,0,0,0,0,0,0,3181021,0,0,-3040030,0,0,0,0,0,0,0,0,0,0,0,0,4181121,0,0,0,0,0,0,0,0,0,0,0,1010051
7,144,534.203845600132,0,0,520057.432483044,520058.479586664,0,0,6,1,0,12,3,1040161,4160150,6152051,0,0,0,0,0,1040161,0,0,0,0,0,0,-4160150,0,0,0,0,0,0,2091030,0,0,0,0,0,4061021,0,0,0,0,0,0,0,0,0,0,0
7,145,1123.81925270893,1,0,520067.56203561,520068.609134225,0,0,7,0,1,33,7,0,4290162,5501411,10291381,0,0,0,0,0,0,0,0,0,0,1140071,0,0,0,3150091,0,0,0,0,0,1160100,0,0,3190140,0,0,1151171,2091200,0,0,0,4090100,-4110081,0,0,0
7,146,1152.0728013129,0,0,520070.938563911,520071.985633269,0,0,7,1,0,1,7,7392483,4011181,0,11442352,-3181181,0,1191161,0,0,0,0,3020141,0,4011181,0,0,0,0,0,0,0,0,0,0,0,0,0,0,0,0,0,0,0,3200161,4051091,0,2170070,2021030,0,0
7,147,633.213491179049,0,0,520074.35037864,520075.397449922,0,0,7,1,0,35,3,4201201,0,0,5141422,0,0,0,4201201,0,0,0,0,0,0,0,0,0,0,0,0,0,0,0,0,0,0,0,0,0,0,0,0,1071151,0,0,0,2050120,0,-2020151,0
7,148,366.631233948283,0,0,520077.221011626,520078.268078674,0,0,7,0,0,16,3,4040080,4010080,0,3251181,0,4040080,0,0,0,0,0,0,0,0,0,0,0,0,0,-4010080,0,0,0,0,0,0,0,0,0,0,0,0,1080160,2171021,0,0,0,0,0,0
7,149,540.81981012132,0,1,520079.821048351,520080.868126178,0,0,7,1,1,25,3,0,0,6151490,2140200,0,0,0,0,0,0,0,0,0,0,0,0,0,0,0,0,0,0,1030140,0,4080190,0,0,0,-1041160,0,0,0,0,0,0,2140200,0,0,0,0
7,150,768.120114691556,0,0,520082.550499826,520083.597563794,0,0,7,1,0,20,7,4232030,0,9412211,6341462,0,0,0,0,0,1181010,0,0,3051020,0,0,0,0,0,0,0,0,0,0,-3201010,0,0,0,0,3021150,3190051,0,0,0,0,2170171,3020161,1151130,0,0,0
7,151,772.556806914508,1,0,520085.527021351,520086.574084165,0,0,7,0,1,7,7,5152152,1021010,6292283,4251091,0,0,1011121,0,0,0,-4141031,0,0,0,0,1021010,0,0,0,0,0,0,0,4150071,0,1091011,0,0,0,1051201,0,0,0,3160081,0,0,1091010,0,0,0
7,152,630.653875879943,1,0,520088.374118888,520089.421189786,0,0,7,1,1,13,7,4041151,9350161,2091030,6542363,4041151,0,0,0,0,0,0,0,0,0,4170020,0,-3080090,0,0,2100051,0,0,2091030,0,0,0,0,0,0,0,0,0,2140151,0,2201051,0,2201161,0,0,0
7,153,498.417351918761,0,0,520091.127098883,520092.174168241,0,0,7,0,0,14,7,4161151,5362181,10382343,1160010,0,0,0,4161151,0,0,0,0,0,0,0,0,0,-3201040,2161141,0,0,0,3050091,0,0,2030041,3201120,2101091,0,0,0,1160010,0,0,0,0,0,0,0,0
7,154,911.607936024666,1,0,520093.738896981,520094.785968648,0,0,7,0,1,30,7,7482331,6071151,4051070,6192221,2111110,1171030,0,0,4200191,0,0,0,0,0,0,2060060,0,0,4011091,0,0,0,0,0,4051070,0,0,0,0,0,0,0,0,-2031181,0,0,0,4161040,0,0
7,155,835.935098701157,1,0,520096.856592703,520097.903665141,0,0,7,0,1,5,3,2090191,2212330,1091200,0,0,0,0,0,-2090191,0,0,0,0,1161150,0,0,0,0,0,1051180,0,0,0,0,0,0,0,0,0,1091200,0,0,0,0,0,0,0,0,0,0
7,156,608.578589570243,0,0,520099.880174733,520100.927244476,0,0,7,0,0,22,3,0,1170201,8301240,2190020,0,0,0,0,0,0,0,0,0,0,0,0,0,0,0,0,1170201,0,4100160,0,0,-4201080,0,0,0,0,0,0,0,2190020,0,0,0,0,0,0
7,157,1141.44013862824,0,0,520102.586095378,520103.633163196,0,0,7,0,0,19,7,0,1100181,17672774,3182070,0,0,0,0,0,0,0,0,0,0,0,0,1100181,0,0,0,0,0,-3111151,0,0,0,4200161,3051190,0,3110161,4200111,1161060,0,0,0,0,0,0,0,2021010
7,158,966.870834643487,0,0,520105.903787559,520106.950857302,0,0,7,0,0,18,3,0,2181141,5351191,3040171,0,0,0,0,0,0,0,0,0,0,0,0,0,0,0,0,0,-2181141,1181131,4170060,0,0,0,0,0,0,0,0,0,0,0,0,3040171,0,0,0
7,159,1715.8325908822,0,0,520109.009704586,520110.056817444,0,0,7,1,0,32,7,1100040,6132251,5070281,4301271,1100040,0,0,0,0,0,0,0,0,0,1010070,0,3101071,0,2021110,0,0,0,0,0,0,2010120,0,0,0,0,3060161,0,0,2130131,0,-2171140,0,0,0,0
7,160,871.250013413373,1,0,520112.892129356,520113.939201024,0,0,7,1,1,12,3,1040161,4160150,6152051,0,0,0,0,0,1040161,0,0,0,0,0,0,-4160150,0,0,0,0,0,0,2091030,0,0,0,0,0,4061021,0,0,0,0,0,0,0,0,0,0,0
7,161,627.379770332482,0,0,520115.892168238,520116.939237595,0,0,7,1,0,29,3,1101010,1060060,0,8142192,0,1101010,0,0,0,0,0,0,0,0,0,1060060,0,0,0,0,0,0,0,0,0,0,0,0,0,0,0,0,-4031141,0,0,0,0,4111051,0,0
7,162,850.637199357152,1,0,520118.715765357,520119.762824706,0,0,7,1,1,11,3,3181021,3040030,4181121,1010051,0,0,0,0,0,0,0,3181021,0,0,-3040030,0,0,0,0,0,0,0,0,0,0,0,0,4181121,0,0,0,0,0,0,0,0,0,0,0,1010051
7,163,704.907356761396,0,0,520121.821677765,520122.868729799,0,0,7,0,0,9,7,8222421,3150040,5072191,5372130,0,0,0,4021180,0,0,3120081,0,-1081160,0,0,3150040,0,0,0,0,0,0,0,0,0,0,0,0,1051121,4021070,0,0,0,2171050,0,0,3201080,0,0,0
7,164,819.432143704034,1,0,520124.609949961,520125.657013929,0,0,7,1,1,24,3,4060061,0,3210211,3130141,0,0,0,0,0,0,0,0,4060061,0,0,0,0,0,0,0,0,0,0,2020070,0,0,0,-1190141,0,0,0,3130141,0,0,0,0,0,0,0,0
7,165,768.626725301147,0,0,520127.527643451,520128.574710114,0,0,7,0,0,17,3,0,2121340,2150190,2131031,0,0,0,0,0,0,0,0,0,0,0,0,1110150,0,0,0,-1011190,0,0,0,2150190,0,0,0,0,0,0,0,0,0,0,0,0,0,2131031,0
7,166,776.07459371211,1,0,520130.539451789,520131.586513062,0,0,7,0,1,23,3,4040121,0,6141071,4070171,4040121,0,0,0,0,0,0,0,0,0,0,0,0,0,0,0,0,0,4061041,0,0,0,-2080030,0,0,0,0,0,0,0,0,0,0,0,4070171,0
7,167,604.745518532582,1,0,520133.527722753,520134.574798655,0,0,7,1,1,10,7,2191200,9361351,6141211,7181341,0,0,0,0,0,2191200,0,0,0,-4010130,3200170,0,2151051,0,0,0,0,0,0,0,0,0,0,0,2100131,4041080,0,0,0,0,3160150,0,0,0,0,4021191
7,168,1021.29682479426,1,0,520136.210117958,520137.257185007,0,0,7,1,1,34,7,3180021,0,12502282,4281193,0,0,0,0,0,0,0,3180021,0,0,0,0,0,0,0,0,0,0,0,4111030,3180031,0,0,1150050,4061171,0,0,0,0,0,1120011,0,0,-2081011,1080171,0
7,169,767.068397370167,1,0,520162.822269452,520163.869355748,0,0,8,0,1,5,3,5211192,1031090,0,4131150,0,0,0,0,-4130041,0,0,1081151,0,0,1031090,0,0,0,0,0,0,0,0,0,0,0,0,0,0,0,0,0,0,0,0,0,0,0,4131150,0
7,170,772.962172341067,1,0,520165.834093188,520166.881141373,0,0,8,0,1,30,7,3171091,3201222,3051131,8543443,3171091,0,0,0,0,0,0,0,0,0,2041031,0,1160191,0,0,0,0,0,0,0,0,0,0,0,3051131,0,0,0,0,-1180121,2161041,0,3081181,2121100,0,0
7,171,700.60039695818,1,0,520168.669424348,520169.716489857,0,0,8,0,1,33,3,3100040,5401250,0,1130140,0,0,0,0,0,0,3100040,0,0,0,0,0,0,4200100,1201150,0,0,0,0,0,0,0,0,0,0,0,0,0,0,0,0,0,-1130140,0,0,0
7,172,1002.1422485006,0,0,520171.445982137,520172.492998371,0,0,8,1,0,13,7,4041151,9350161,2091030,6542363,4041151,0,0,0,0,0,0,0,0,0,4170020,0,-3080090,0,0,2100051,0,0,2091030,0,0,0,0,0,0,0,0,0,2140151,0,2201051,0,2201161,0,0,0
7,173,757.789262628648,0,0,520174.62245893,520175.669524054,0,0,8,1,0,34,7,3180021,0,12502282,4281193,0,0,0,0,0,0,0,3180021,0,0,0,0,0,0,0,0,0,0,0,4111030,3180031,0,0,1150050,4061171,0,0,0,0,0,1120011,0,0,-2081011,1080171,0
7,174,645.490328490268,1,0,520177.610723735,520178.657799638,0,0,8,0,1,14,7,1060171,7151371,4340222,10253130,0,0,0,0,0,0,1060171,0,0,0,0,0,0,-4071190,0,0,0,3080181,0,0,0,3200151,0,1140071,0,0,0,0,2081050,0,0,0,4031070,0,0,4141010
7,175,941.595355456229,0,0,520180.469599968,520181.516665477,0,0,8,0,0,7,7,3180171,4171140,6280250,7352331,0,0,0,0,0,0,-3180171,0,0,0,0,0,0,0,0,0,0,4171140,0,0,0,0,2120130,0,4160120,0,0,0,0,2051080,2020141,1201060,0,2080050,0,0
7,176,704.957786889281,0,0,520183.540235957,520184.58730416,0,0,8,0,0,19,3,3170160,3190121,3080131,4160060,0,0,0,3170160,0,0,0,0,0,0,0,3190121,0,0,0,0,0,0,-3080131,0,0,0,0,0,0,0,0,0,0,0,4160060,0,0,0,0,0
7,177,886.564589280169,1,0,520186.481494153,520187.528525785,0,0,8,0,1,17,7,0,10431301,5170301,10413132,0,0,0,0,0,0,0,0,0,0,3130070,3121190,0,0,0,0,-4180041,0,1030111,0,0,0,4140190,0,0,0,0,0,0,0,0,2161061,4091030,0,0,4161041
7,178,628.30637494335,1,0,520189.57561516,520190.622682594,0,0,8,0,1,23,3,0,8131311,4131140,1200140,0,0,0,0,0,0,0,0,0,0,0,4121161,0,0,0,0,0,4010150,0,0,0,0,-4131140,0,0,0,0,0,0,0,0,0,1200140,0,0,0
7,179,886.545341170859,0,0,520192.340357297,520193.387445518,0,0,8,0,0,16,3,1020061,4201020,4130110,3040030,0,0,0,0,0,0,1020061,0,0,0,0,0,0,0,0,-4201020,0,0,4130110,0,0,0,0,0,0,0,0,0,0,0,0,0,0,0,0,3040030
7,180,1133.43715440715,0,0,520195.434524115,520196.481596938,0,0,8,1,0,32,7,1100040,6132251,5070281,4301271,1100040,0,0,0,0,0,0,0,0,0,1010070,0,3101071,0,2021110,0,0,0,0,0,0,2010120,0,0,0,0,3060161,0,0,2130131,0,-2171140,0,0,0,0
7,181,631.241713592317,0,0,520198.622806936,520199.669873985,0,0,8,1,0,29,3,1101010,1060060,0,8142192,0,1101010,0,0,0,0,0,0,0,0,0,1060060,0,0,0,0,0,0,0,0,0,0,0,0,0,0,0,0,-4031141,0,0,0,0,4111051,0,0
7,182,959.019910544157,1,0,520201.422848204,520202.469914868,0,0,8,1,1,24,3,4060061,0,3210211,3130141,0,0,0,0,0,0,0,0,4060061,0,0,0,0,0,0,0,0,0,0,2020070,0,0,0,-1190141,0,0,0,3130141,0,0,0,0,0,0,0,0
7,183,708.069438289385,1,0,520204.575837669,520205.622901637,0,0,8,1,1,11,3,3181021,3040030,4181121,1010051,0,0,0,0,0,0,0,3181021,0,0,-3040030,0,0,0,0,0,0,0,0,0,0,0,0,4181121,0,0,0,0,0,0,0,0,0,0,0,1010051
7,184,811.155066243373,0,0,520207.434699658,520208.481767476,0,0,8,1,0,20,7,4232030,0,9412211,6341462,0,0,0,0,0,1181010,0,0,3051020,0,0,0,0,0,0,0,0,0,0,-3201010,0,0,0,0,3021150,3190051,0,0,0,0,2170171,3020161,1151130,0,0,0
7,185,1928.31299634418,0,0,520210.493360162,520211.540638243,0,0,8,1,0,1,7,7392483,4011181,0,11442352,-3181181,0,1191161,0,0,0,0,3020141,0,4011181,0,0,0,0,0,0,0,0,0,0,0,0,0,0,0,0,0,0,0,3200161,4051091,0,2170070,2021030,0,0
7,186,756.344883528072,1,0,520214.599513244,520215.646582217,0,0,8,1,1,35,3,4201201,0,0,5141422,0,0,0,4201201,0,0,0,0,0,0,0,0,0,0,0,0,0,0,0,0,0,0,0,0,0,0,0,0,1071151,0,0,0,2050120,0,-2020151,0
7,187,656.069481396116,1,0,520217.540731019,520218.587794987,0,0,8,1,1,25,3,0,0,6151490,2140200,0,0,0,0,0,0,0,0,0,0,0,0,0,0,0,0,0,0,1030140,0,4080190,0,0,0,-1041160,0,0,0,0,0,0,2140200,0,0,0,0
7,188,762.125094595831,1,0,520220.29374412,520221.34079115,0,0,8,0,1,18,3,1050040,4031201,2091051,4150201,0,0,0,0,0,1050040,0,0,0,0,0,0,0,0,0,0,0,-4031201,2091051,0,0,0,0,0,0,0,0,0,0,0,0,4150201,0,0,0,0
7,189,703.738995711319,1,0,520223.22316934,520224.270241008,0,0,8,1,1,10,7,2191200,9361351,6141211,7181341,0,0,0,0,0,2191200,0,0,0,-4010130,3200170,0,2151051,0,0,0,0,0,0,0,0,0,0,0,2100131,4041080,0,0,0,0,3160150,0,0,0,0,4021191
7,190,508.618086692877,1,0,520226.129092988,520227.176165426,0,0,8,0,1,9,7,9784934,1080170,1100201,0,0,1010171,0,1131151,1161150,4201150,0,1190131,-1091181,0,0,0,0,0,0,1080170,0,0,0,0,0,0,0,0,0,1100201,0,0,0,0,0,0,0,0,0,0
7,191,675.271408050321,0,0,520228.764427305,520229.811494738,0,0,8,0,0,22,7,2121061,4292112,3160251,8052560,0,0,0,0,0,0,2121061,0,0,0,0,0,0,2181101,0,2111011,0,0,0,0,0,-1080060,2080191,0,0,0,0,0,4021170,0,2020190,0,0,2011200,0,0
7,192,692.100426182151,0,0,520231.658594585,520232.705655474,0,0,8,1,0,12,3,1040161,4160150,6152051,0,0,0,0,0,1040161,0,0,0,0,0,0,-4160150,0,0,0,0,0,0,2091030,0,0,0,0,0,4061021,0,0,0,0,0,0,0,0,0,0,0
7,193,618.597237160429,1,0,520251.705957669,520252.753010089,0,0,9,0,1,9,3,7161102,1180140,3011121,0,0,0,0,0,0,0,0,4051011,-3110091,0,0,0,0,1180140,0,0,0,0,0,0,0,0,3011121,0,0,0,0,0,0,0,0,0,0,0,0,0
7,194,1022.48597377911,1,0,520254.553044427,520255.600119175,0,0,9,0,1,19,7,6191332,1031071,2240161,10442362,0,0,2160151,0,0,0,0,0,4031181,0,0,0,0,0,0,1031071,0,0,-1200050,0,0,0,0,0,1040111,0,0,0,0,4191190,0,0,0,0,2081091,4170081
7,195,1698.4534614021,0,0,520257.706028117,520258.753106714,0,0,9,1,0,32,7,1100040,6132251,5070281,4301271,1100040,0,0,0,0,0,0,0,0,0,1010070,0,3101071,0,2021110,0,0,0,0,0,0,2010120,0,0,0,0,3060161,0,0,2130131,0,-2171140,0,0,0,0
7,196,616.897627944127,0,0,520261.529621388,520262.576688051,0,0,9,1,0,24,3,4060061,0,3210211,3130141,0,0,0,0,0,0,0,0,4060061,0,0,0,0,0,0,0,0,0,0,2020070,0,0,0,-1190141,0,0,0,3130141,0,0,0,0,0,0,0,0
7,197,468.765619734768,1,0,520264.376762811,520265.423792517,0,0,9,0,1,17,3,4150011,4121111,3120080,4091050,0,0,4150011,0,0,0,0,0,0,0,0,0,0,0,0,0,-4121111,0,0,0,0,0,0,0,0,3120080,0,0,0,0,0,0,0,4091050,0,0
7,198,439.675547764637,1,0,520267.012054011,520268.059123754,0,0,9,1,1,11,3,3181021,3040030,4181121,1010051,0,0,0,0,0,0,0,3181021,0,0,-3040030,0,0,0,0,0,0,0,0,0,0,0,0,4181121,0,0,0,0,0,0,0,0,0,0,0,1010051
7,199,769.512523896992,0,0,520269.612090737,520270.659160095,0,0,9,1,0,34,7,3180021,0,12502282,4281193,0,0,0,0,0,0,0,3180021,0,0,0,0,0,0,0,0,0,0,0,4111030,3180031,0,0,1150050,4061171,0,0,0,0,0,1120011,0,0,-2081011,1080171,0
7,200,1050.84384715883,1,0,520272.635702793,520273.682755598,0,0,9,0,1,18,7,5292341,12430383,0,4161071,0,0,0,0,1101051,0,3011100,1180190,0,2170121,0,0,2060040,4190031,0,0,0,-4010191,0,0,0,0,0,0,0,0,0,0,0,0,0,0,0,0,4161071,0
7,201,1745.66525541013,0,0,520275.882788628,520276.929854906,0,0,9,1,0,1,7,7392483,4011181,0,11442352,-3181181,0,1191161,0,0,0,0,3020141,0,4011181,0,0,0,0,0,0,0,0,0,0,0,0,0,0,0,0,0,0,0,3200161,4051091,0,2170070,2021030,0,0
7,202,523.940361919813,0,0,520279.800476728,520280.847542621,0,0,9,0,0,23,3,0,0,1200171,9351420,0,0,0,0,0,0,0,0,0,0,0,0,0,0,0,0,0,0,0,0,0,0,-1200171,0,0,0,0,0,3040200,0,0,2191080,0,0,0,4120140
7,203,659.88792385906,1,0,520282.447558174,520283.494656019,0,0,9,1,1,35,3,4201201,0,0,5141422,0,0,0,4201201,0,0,0,0,0,0,0,0,0,0,0,0,0,0,0,0,0,0,0,0,0,0,0,0,1071151,0,0,0,2050120,0,-2020151,0
7,204,657.177403278183,0,0,520285.306446341,520286.35350261,0,0,9,1,0,12,3,1040161,4160150,6152051,0,0,0,0,0,1040161,0,0,0,0,0,0,-4160150,0,0,0,0,0,0,2091030,0,0,0,0,0,4061021,0,0,0,0,0,0,0,0,0,0,0
7,205,614.055450248998,0,0,520288.118245901,520289.165311795,0,0,9,1,0,10,7,2191200,9361351,6141211,7181341,0,0,0,0,0,2191200,0,0,0,-4010130,3200170,0,2151051,0,0,0,0,0,0,0,0,0,0,0,2100131,4041080,0,0,0,0,3160150,0,0,0,0,4021191
7,206,693.3819661499,1,0,520290.835937928,520291.883001512,0,0,9,0,1,30,3,4060100,4050011,2180140,4100030,0,0,0,0,0,0,0,0,4060100,0,0,0,0,0,4050011,0,0,0,0,0,0,0,0,0,0,0,2180140,0,0,-4100030,0,0,0,0,0,0
7,207,501.883553748485,0,0,520293.753632958,520294.800704241,0,0,9,1,0,29,3,1101010,1060060,0,8142192,0,1101010,0,0,0,0,0,0,0,0,0,1060060,0,0,0,0,0,0,0,0,0,0,0,0,0,0,0,0,-4031141,0,0,0,0,4111051,0,0
7,208,843.572368612513,1,0,520296.447785302,520297.494856199,0,0,9,1,1,25,3,0,0,6151490,2140200,0,0,0,0,0,0,0,0,0,0,0,0,0,0,0,0,0,0,1030140,0,4080190,0,0,0,-1041160,0,0,0,0,0,0,2140200,0,0,0,0
7,209,1290.92990944628,0,0,520299.412536985,520300.459604803,0,0,9,0,0,7,7,9282582,6142372,0,7242231,0,0,1010020,4101190,0,1040171,-3131201,0,0,4011181,0,0,0,0,0,2131191,0,0,0,0,0,0,0,0,0,0,0,0,4181161,0,0,0,0,3061070,0,0
7,210,650.897126004566,0,0,520302.824352869,520303.871409523,0,0,9,0,0,14,3,4021140,7131211,0,3131051,0,0,0,0,4021140,0,0,0,0,0,0,4050071,0,-3081140,0,0,0,0,0,0,0,0,0,0,0,0,0,3131051,0,0,0,0,0,0,0,0
7,211,574.68688103836,0,0,520305.706740298,520306.753811196,0,0,9,0,0,22,7,4080081,4091040,5201202,4212252,0,0,0,4080081,0,0,0,0,0,0,0,0,0,0,0,0,4091040,0,0,0,0,-2070021,1061061,0,2070120,0,0,0,0,0,0,2080071,0,1061171,1071010,0
7,212,806.077411631122,1,0,520308.436194082,520309.483256126,0,0,9,0,1,16,3,0,5050181,3180061,2070011,0,0,0,0,0,0,0,0,0,0,0,2010161,0,0,0,-3040020,0,0,0,0,0,3180061,0,0,0,0,0,0,0,0,0,0,0,0,0,2070011
7,213,820.070411486086,1,0,520311.483300397,520312.530360131,0,0,9,1,1,13,7,4041151,9350161,2091030,6542363,4041151,0,0,0,0,0,0,0,0,0,4170020,0,-3080090,0,0,2100051,0,0,2091030,0,0,0,0,0,0,0,0,0,2140151,0,2201051,0,2201161,0,0,0
7,214,876.507060485892,1,0,520314.553932921,520315.600999969,0,0,9,0,1,33,7,6322260,2041011,1101190,10242412,0,0,2091120,0,0,1200090,0,0,3031050,0,0,2041011,0,0,0,0,0,0,0,0,1101190,0,0,0,0,0,0,0,3131191,3101141,0,0,-4010080,0,0,0
7,215,566.091439628508,1,0,520317.589267469,520318.636350685,0,0,9,1,1,20,7,4232030,0,9412211,6341462,0,0,0,0,0,1181010,0,0,3051020,0,0,0,0,0,0,0,0,0,0,-3201010,0,0,0,0,3021150,3190051,0,0,0,0,2170171,3020161,1151130,0,0,0
7,216,1365.36817217711,1,0,520320.41284457,520321.459910079,0,0,9,0,1,5,7,4171232,0,6341142,10333392,0,0,0,0,-3101071,0,0,0,1070161,0,0,0,0,0,0,0,0,0,0,0,0,4201041,2140101,0,0,0,0,0,1051020,0,4201050,4021161,0,1060161,0,0
7,217,1026.36139065726,0,0,520347.683826948,520348.730903621,0,0,10,0,0,33,7,3140110,1151041,6371151,10322543,0,0,0,0,0,3140110,0,0,0,0,0,0,0,1151041,0,0,0,0,4171010,0,0,0,0,2200141,0,0,0,2030181,0,0,0,0,-2151131,2101080,4040151,0
7,218,578.738225798588,1,0,520350.813296747,520351.860361486,0,0,10,1,1,11,3,3181021,3040030,4181121,1010051,0,0,0,0,0,0,0,3181021,0,0,-3040030,0,0,0,0,0,0,0,0,0,0,0,0,4181121,0,0,0,0,0,0,0,0,0,0,0,1010051
7,219,554.175697092433,0,0,520353.636856911,520354.683928193,0,0,10,1,0,10,7,2191200,9361351,6141211,7181341,0,0,0,0,0,2191200,0,0,0,-4010130,3200170,0,2151051,0,0,0,0,0,0,0,0,0,0,0,2100131,4041080,0,0,0,0,3160150,0,0,0,0,4021191
7,220,516.82702585822,1,0,520356.366329558,520357.413385058,0,0,10,1,1,24,3,4060061,0,3210211,3130141,0,0,0,0,0,0,0,0,4060061,0,0,0,0,0,0,0,0,0,0,2020070,0,0,0,-1190141,0,0,0,3130141,0,0,0,0,0,0,0,0
7,221,557.582999696024,0,0,520358.966350885,520360.013419858,0,0,10,0,0,9,7,8342172,11192311,1070140,1180200,0,0,4181031,0,0,0,1081051,0,-3080090,0,0,0,0,4160181,0,3021020,0,4011110,1070140,0,0,0,0,0,0,0,0,0,0,0,1180200,0,0,0,0,0
7,222,722.077066660859,1,0,520361.636978174,520362.684044837,0,0,10,1,1,12,3,1040161,4160150,6152051,0,0,0,0,0,1040161,0,0,0,0,0,0,-4160150,0,0,0,0,0,0,2091030,0,0,0,0,0,4061021,0,0,0,0,0,0,0,0,0,0,0
7,223,753.821839636657,0,0,520364.48413615,520365.531148534,0,0,10,1,0,35,3,4201201,0,0,5141422,0,0,0,4201201,0,0,0,0,0,0,0,0,0,0,0,0,0,0,0,0,0,0,0,0,0,0,0,0,1071151,0,0,0,2050120,0,-2020151,0
7,224,494.791390665341,0,0,520367.42530542,520368.472369003,0,0,10,0,0,22,7,8212302,2121080,5323500,3101070,3040081,0,0,2111181,0,3061040,0,0,0,0,0,0,2121080,0,0,0,0,0,1031170,0,0,-3201150,1091180,0,0,0,0,0,0,3101070,0,0,0,0,0,0
7,225,494.077285344247,1,0,520370.143014,520371.190056026,0,0,10,1,1,29,3,1101010,1060060,0,8142192,0,1101010,0,0,0,0,0,0,0,0,0,1060060,0,0,0,0,0,0,0,0,0,0,0,0,0,0,0,0,-4031141,0,0,0,0,4111051,0,0
7,226,595.18382139504,1,0,520372.801851429,520373.848920787,0,0,10,0,1,14,7,4041140,7522421,4201240,2130040,0,0,0,0,0,0,4041140,0,0,0,1141111,2130010,0,-3201140,0,1050160,0,0,0,0,0,0,0,0,2120100,0,2081140,0,0,0,0,0,2130040,0,0,0
7,227,978.326546959579,0,0,520375.519573868,520376.566612814,0,0,10,0,0,7,7,7262271,6162162,2080141,6140180,0,0,3111101,0,0,0,-1100080,0,3051090,0,2101111,0,0,0,0,0,0,4061051,0,0,2080141,0,0,0,0,0,0,0,3130140,0,0,3010040,0,0,0,0
7,228,1076.48850529222,1,0,520378.578409218,520379.625473186,0,0,10,1,1,1,7,7392483,4011181,0,11442352,-3181181,0,1191161,0,0,0,0,3020141,0,4011181,0,0,0,0,0,0,0,0,0,0,0,0,0,0,0,0,0,0,0,3200161,4051091,0,2170070,2021030,0,0
7,229,702.410490368493,1,0,520381.872571724,520382.919642622,0,0,10,1,1,32,7,1100040,6132251,5070281,4301271,1100040,0,0,0,0,0,0,0,0,0,1010070,0,3101071,0,2021110,0,0,0,0,0,0,2010120,0,0,0,0,3060161,0,0,2130131,0,-2171140,0,0,0,0
7,230,606.390848057345,1,0,520384.684376675,520385.731454117,0,0,10,0,1,19,3,0,3031051,7261201,0,0,0,0,0,0,0,0,0,0,3031051,0,0,0,0,0,0,0,0,-3081061,0,0,0,3100100,0,0,1080040,0,0,0,0,0,0,0,0,0,0
7,231,565.072444092948,0,0,520387.413836234,520388.460895967,0,0,10,1,0,13,7,4041151,9350161,2091030,6542363,4041151,0,0,0,0,0,0,0,0,0,4170020,0,-3080090,0,0,2100051,0,0,2091030,0,0,0,0,0,0,0,0,0,2140151,0,2201051,0,2201161,0,0,0
7,232,579.764535708819,1,0,520390.049164776,520391.096237214,0,0,10,0,1,16,3,4110160,2212290,0,2101040,0,0,0,0,0,0,0,0,4110160,0,0,0,0,0,0,-1071180,0,1141110,0,0,0,0,0,0,0,0,0,0,0,2101040,0,0,0,0,0,0
7,233,719.878161209635,0,0,520392.813913457,520393.86097858,0,0,10,0,0,23,3,5362391,0,2061091,0,0,0,0,1151171,0,0,2171160,0,2040060,0,0,0,0,0,0,0,0,0,0,0,0,0,-2061091,0,0,0,0,0,0,0,0,0,0,0,0,0
7,234,582.891585596371,1,0,520395.719833641,520396.766950734,0,0,10,0,1,17,3,2050010,5191062,0,2011111,0,2050010,0,0,0,0,0,0,0,0,0,0,0,0,1140011,0,-4051051,0,0,0,0,0,0,0,0,0,0,0,0,0,0,2011111,0,0,0,0
7,235,532.764471019618,0,0,520398.461051877,520399.508119695,0,0,10,1,0,20,7,4232030,0,9412211,6341462,0,0,0,0,0,1181010,0,0,3051020,0,0,0,0,0,0,0,0,0,0,-3201010,0,0,0,0,3021150,3190051,0,0,0,0,2170171,3020161,1151130,0,0,0
7,236,669.740652665496,1,0,520401.119923568,520402.166989846,0,0,10,1,1,25,3,0,0,6151490,2140200,0,0,0,0,0,0,0,0,0,0,0,0,0,0,0,0,0,0,1030140,0,4080190,0,0,0,-1041160,0,0,0,0,0,0,2140200,0,0,0,0
7,237,775.854010193143,1,0,520404.014074679,520405.061147502,0,0,10,0,1,30,3,0,3090131,1101151,5302141,0,0,0,0,0,0,0,0,0,0,0,0,0,3090131,0,0,0,0,0,0,0,0,0,0,0,0,1101151,0,0,-4191110,0,0,1111031,0,0,0
7,238,599.70289550256,0,0,520406.920017961,520407.967076155,0,0,10,0,0,18,3,3071120,7120201,0,3090140,0,0,0,0,0,0,0,0,3071120,0,0,0,0,0,0,0,3040081,-4080120,0,0,0,0,0,0,0,0,0,0,0,3090140,0,0,0,0,0,0
7,239,754.603698384017,0,0,520409.720042675,520410.767117807,0,0,10,0,0,5,7,8491372,5331212,4162040,2050111,0,0,0,3171191,-3170060,0,0,2150121,0,0,0,1131181,0,4200031,0,0,0,0,0,0,0,0,0,0,0,2111030,2051010,0,0,0,0,0,2050111,0,0,0
7,240,1360.5992574594,0,0,520412.673029907,520413.72009426,0,0,10,1,0,34,7,3180021,0,12502282,4281193,0,0,0,0,0,0,0,3180021,0,0,0,0,0,0,0,0,0,0,0,4111030,3180031,0,0,1150050,4061171,0,0,0,0,0,1120011,0,0,-2081011,1080171,0
7,241,786.084772087634,0,0,520422.661404811,520423.708478788,0,0,11,1,0,11,3,3181021,3040030,4181121,1010051,0,0,0,0,0,0,0,3181021,0,0,-3040030,0,0,0,0,0,0,0,0,0,0,0,0,4181121,0,0,0,0,0,0,0,0,0,0,0,1010051
7,242,570.22093172418,0,0,520425.520279119,520426.567352712,0,0,11,0,0,19,3,2151141,0,2221322,2091100,0,2151141,0,0,0,0,0,0,0,0,0,0,0,0,0,0,0,0,-1150181,0,0,0,0,0,0,1071141,0,0,0,0,2091100,0,0,0,0,0
7,243,544.699076679535,0,0,520428.343895487,520429.390921729,0,0,11,0,0,17,7,1180050,4221180,4121271,10393271,0,0,1180050,0,0,0,0,0,0,0,0,0,0,0,0,3140100,-1081080,0,0,0,0,1020091,0,0,3101180,0,0,0,0,2161200,0,4071060,0,0,0,4161011
7,244,479.90874259267,1,0,520431.061540164,520432.108597203,0,0,11,1,1,29,3,1101010,1060060,0,8142192,0,1101010,0,0,0,0,0,0,0,0,0,1060060,0,0,0,0,0,0,0,0,0,0,0,0,0,0,0,0,-4031141,0,0,0,0,4111051,0,0
7,245,455.152577836998,0,0,520433.614511766,520434.661580354,0,0,11,0,0,14,3,0,6292291,4150080,1110181,0,0,0,0,0,0,0,0,0,0,0,0,4171190,-2121101,0,0,0,0,0,0,0,0,0,0,0,4150080,0,0,0,0,0,0,1110181,0,0,0
7,246,546.118433238007,1,0,520436.320435491,520437.367499074,0,0,11,1,1,10,7,2191200,9361351,6141211,7181341,0,0,0,0,0,2191200,0,0,0,-4010130,3200170,0,2151051,0,0,0,0,0,0,0,0,0,0,0,2100131,4041080,0,0,0,0,3160150,0,0,0,0,4021191
7,247,463.093968050089,0,0,520438.967556203,520440.014598228,0,0,11,0,0,9,7,9361102,3041040,6232162,7211242,0,0,0,0,2160021,0,4180041,0,-3021040,0,0,3041040,0,0,0,0,0,0,0,4081151,0,0,0,0,0,2151011,0,3081061,0,0,0,4130181,0,0,0,0
7,248,1100.07284441963,0,0,520441.626404025,520442.673461065,0,0,11,0,0,5,7,4192341,8432281,6241480,0,0,0,0,1041190,-3151151,0,0,0,0,0,0,0,0,3120130,0,2171030,3141121,0,0,1100150,1081140,4060190,0,0,0,0,0,0,0,0,0,0,0,0,0,0
7,249,707.753769063856,1,0,520444.955855654,520446.002924242,0,0,11,1,1,13,7,4041151,9350161,2091030,6542363,4041151,0,0,0,0,0,0,0,0,0,4170020,0,-3080090,0,0,2100051,0,0,2091030,0,0,0,0,0,0,0,0,0,2140151,0,2201051,0,2201161,0,0,0
7,250,688.730080029927,0,0,520447.76765714,520448.814786167,0,0,11,1,0,35,3,4201201,0,0,5141422,0,0,0,4201201,0,0,0,0,0,0,0,0,0,0,0,0,0,0,0,0,0,0,0,0,0,0,0,0,1071151,0,0,0,2050120,0,-2020151,0
7,251,493.15414542798,0,0,520450.591241941,520451.638309374,0,0,11,0,0,22,7,6351321,4010190,7280331,3010131,2140060,0,3021111,0,0,0,0,0,1190150,0,0,0,0,0,0,0,4010190,0,0,0,1120090,-4060100,0,0,0,2100141,0,0,0,0,0,0,0,3010131,0,0
7,252,598.32549985731,0,0,520453.19129368,520454.238351104,0,0,11,0,0,7,3,6222101,0,4180070,4040121,0,0,0,0,0,0,-2141080,0,4081021,0,0,0,0,0,0,0,0,0,0,0,4180070,0,0,0,0,0,0,0,0,0,4040121,0,0,0,0,0
7,253,1081.32979297079,0,0,520455.908960299,520456.956028117,0,0,11,1,0,32,7,1100040,6132251,5070281,4301271,1100040,0,0,0,0,0,0,0,0,0,1010070,0,3101071,0,2021110,0,0,0,0,0,0,2010120,0,0,0,0,3060161,0,0,2130131,0,-2171140,0,0,0,0
7,254,729.432929016184,1,0,520459.156067692,520460.203140899,0,0,11,1,1,12,3,1040161,4160150,6152051,0,0,0,0,0,1040161,0,0,0,0,0,0,-4160150,0,0,0,0,0,0,2091030,0,0,0,0,0,4061021,0,0,0,0,0,0,0,0,0,0,0
7,255,570.318327285349,1,0,520461.991391922,520463.05025191,0,0,11,0,1,23,7,5151382,3181151,5392292,4171030,0,0,0,0,0,3080181,0,2071201,0,0,3181151,0,0,0,0,0,0,0,0,0,0,0,-1190091,1101080,3101121,0,0,0,0,1040020,0,0,0,0,3131010,0
7,256,627.700059092604,0,0,520464.720855331,520465.767927383,0,0,11,0,0,16,7,2181172,6180242,7192201,2162221,0,0,0,1050101,0,0,0,1131071,0,0,0,0,0,0,0,-2010101,0,4170141,0,4091071,0,0,0,3101130,0,0,0,0,0,1021040,0,0,1141181,0,0,0
7,257,621.872497606091,1,0,520467.497370774,520468.544425503,0,0,11,1,1,20,7,4232030,0,9412211,6341462,0,0,0,0,0,1181010,0,0,3051020,0,0,0,0,0,0,0,0,0,0,-3201010,0,0,0,0,3021150,3190051,0,0,0,0,2170171,3020161,1151130,0,0,0
7,258,860.528039396741,1,0,520470.17976444,520471.226827638,0,0,11,0,1,18,3,3180040,6101301,0,2161131,3180040,0,0,0,0,0,0,0,0,0,0,0,3070170,0,0,0,0,-3031131,0,0,0,0,0,0,0,0,0,0,0,0,0,0,0,0,0,2161131
7,259,777.255273540504,1,0,520473.168040793,520474.215109766,0,0,11,0,1,30,3,0,3130080,4040180,4272221,0,0,0,0,0,0,0,0,0,0,0,0,3130080,0,0,0,0,0,4040180,0,0,0,0,0,0,0,0,0,0,-1201121,0,0,0,0,0,3071100
7,260,1230.97855324158,1,0,520476.050503675,520477.09750066,0,0,11,1,1,1,7,7392483,4011181,0,11442352,-3181181,0,1191161,0,0,0,0,3020141,0,4011181,0,0,0,0,0,0,0,0,0,0,0,0,0,0,0,0,0,0,0,3200161,4051091,0,2170070,2021030,0,0
7,261,736.757609411143,1,0,520479.450474264,520480.497568645,0,0,11,1,1,24,3,4060061,0,3210211,3130141,0,0,0,0,0,0,0,0,4060061,0,0,0,0,0,0,0,0,0,0,2020070,0,0,0,-1190141,0,0,0,3130141,0,0,0,0,0,0,0,0
7,262,714.058298966847,0,0,520482.321116874,520483.368179688,0,0,11,1,0,25,3,0,0,6151490,2140200,0,0,0,0,0,0,0,0,0,0,0,0,0,0,0,0,0,0,1030140,0,4080190,0,0,0,-1041160,0,0,0,0,0,0,2140200,0,0,0,0
7,263,947.678532043938,0,0,520485.250574046,520486.297644944,0,0,11,1,0,34,7,3180021,0,12502282,4281193,0,0,0,0,0,0,0,3180021,0,0,0,0,0,0,0,0,0,0,0,4111030,3180031,0,0,1150050,4061171,0,0,0,0,0,1120011,0,0,-2081011,1080171,0
7,264,943.572907533962,1,0,520488.34473971,520489.391810607,0,0,11,0,1,33,3,0,1200060,2101081,8210190,0,0,0,0,0,0,0,0,0,0,0,1200060,0,0,0,0,0,0,0,0,2101081,0,0,0,0,0,0,0,4180060,0,0,0,-4030130,0,0,0
7,265,550.642511807382,1,0,520509.074451034,520510.121527321,0,0,12,1,1,29,3,1101010,1060060,0,8142192,0,1101010,0,0,0,0,0,0,0,0,0,1060060,0,0,0,0,0,0,0,0,0,0,0,0,0,0,0,0,-4031141,0,0,0,0,4111051,0,0
7,266,909.70314189326,1,0,520511.827430258,520512.874501926,0,0,12,1,1,32,7,1100040,6132251,5070281,4301271,1100040,0,0,0,0,0,0,0,0,0,1010070,0,3101071,0,2021110,0,0,0,0,0,0,2010120,0,0,0,0,3060161,0,0,2130131,0,-2171140,0,0,0,0
7,267,696.070543897804,1,0,520514.898068172,520515.945139455,0,0,12,1,1,11,3,3181021,3040030,4181121,1010051,0,0,0,0,0,0,0,3181021,0,0,-3040030,0,0,0,0,0,0,0,0,0,0,0,0,4181121,0,0,0,0,0,0,0,0,0,0,0,1010051
7,268,677.125772170257,1,0,520517.662819163,520518.709874277,0,0,12,0,1,7,7,5252163,5372233,6061210,0,0,0,2171071,0,0,2040051,-1041041,0,0,1140051,0,0,0,0,2201121,0,0,2031061,0,0,0,4031200,0,0,2030010,0,0,0,0,0,0,0,0,0,0,0
7,269,1535.26403219439,0,0,520520.521682307,520521.568753205,0,0,12,1,0,1,7,7392483,4011181,0,11442352,-3181181,0,1191161,0,0,0,0,3020141,0,4011181,0,0,0,0,0,0,0,0,0,0,0,0,0,0,0,0,0,0,0,3200161,4051091,0,2170070,2021030,0,0
7,270,730.115082522389,0,0,520524.262912093,520525.309970672,0,0,12,1,0,12,3,1040161,4160150,6152051,0,0,0,0,0,1040161,0,0,0,0,0,0,-4160150,0,0,0,0,0,0,2091030,0,0,0,0,0,4061021,0,0,0,0,0,0,0,0,0,0,0
7,271,846.279424556997,1,0,520527.215900479,520528.262960983,0,0,12,0,1,30,3,0,4082190,2091121,1111200,0,0,0,0,0,0,0,0,0,0,0,0,0,0,2021140,0,0,2061050,0,2091121,0,0,0,0,0,0,0,0,0,-1111200,0,0,0,0,0,0
7,272,909.136862144805,0,0,520530.168877702,520531.21594783,0,0,12,1,0,24,3,4060061,0,3210211,3130141,0,0,0,0,0,0,0,0,4060061,0,0,0,0,0,0,0,0,0,0,2020070,0,0,0,-1190141,0,0,0,3130141,0,0,0,0,0,0,0,0
7,273,582.914683385752,1,0,520533.20426268,520534.251293541,0,0,12,0,1,16,3,2200141,3281121,2171131,0,0,0,0,2200141,0,0,0,0,0,0,1200021,0,0,0,0,-2081100,0,0,0,2171131,0,0,0,0,0,0,0,0,0,0,0,0,0,0,0,0
7,274,725.216050457675,0,0,520535.921912746,520536.968972095,0,0,12,1,0,13,7,4041151,9350161,2091030,6542363,4041151,0,0,0,0,0,0,0,0,0,4170020,0,-3080090,0,0,2100051,0,0,2091030,0,0,0,0,0,0,0,0,0,2140151,0,2201051,0,2201161,0,0,0
7,275,1290.62540410087,0,0,520538.851363758,520539.898436196,0,0,12,0,0,33,7,6291272,3041101,7571303,4170061,0,2131121,4160151,0,0,0,0,0,0,0,0,0,0,0,3041101,0,0,0,4131161,1160071,0,1170040,0,0,0,0,1110031,0,0,0,0,0,-4170061,0,0,0
7,276,645.693203667179,1,0,520542.263175792,520543.310251309,0,0,12,0,1,23,7,1130091,3121170,13361321,4261242,0,0,0,0,0,0,1130091,0,0,0,0,3121170,0,0,0,0,0,0,4030130,3091020,0,4090011,-2150160,0,0,0,0,0,1141151,0,3120091,0,0,0,0,0
7,277,467.736230173614,1,0,520544.969092203,520546.01617388,0,0,12,0,1,14,3,2021100,3181232,0,2130170,2021100,0,0,0,0,0,0,0,0,1130201,0,0,0,-2051031,0,0,0,0,0,0,0,0,0,0,0,0,0,0,0,0,2130170,0,0,0,0,0
7,278,857.670078228693,0,0,520547.557378335,520548.604444613,0,0,12,0,0,9,3,4241221,4201071,2110030,0,0,0,0,0,0,0,0,2070140,-2171081,0,0,0,4201071,0,0,0,0,0,0,0,0,0,0,0,0,2110030,0,0,0,0,0,0,0,0,0,0
7,279,1008.72433633776,0,0,520550.628026642,520551.675084066,0,0,12,0,0,19,7,5203402,8191211,2070021,6151121,0,0,3031061,1071170,0,0,0,0,1101171,0,0,0,0,0,4101150,0,4090061,0,-2070021,0,0,0,0,0,0,0,0,0,0,2090100,0,0,0,0,4061021,0
7,280,1357.33516095206,0,0,520553.757467184,520554.804542316,0,0,12,0,0,5,3,6241312,0,3181221,0,0,0,0,0,-2081121,0,0,4160191,0,0,0,0,0,0,0,0,0,0,0,0,0,0,0,2070161,1111060,0,0,0,0,0,0,0,0,0,0,0
7,281,728.875888395123,0,0,520557.239871321,520558.286940294,0,0,12,0,0,22,7,3111101,5161142,7392323,4121031,0,0,0,0,0,3111101,0,0,0,0,0,2130021,3031121,0,0,0,0,0,0,0,3161041,-1031160,0,0,2190081,1010041,0,0,4121031,0,0,0,0,0,0,0
7,282,722.625638125464,0,0,520560.12230456,520561.169337732,0,0,12,1,0,35,3,4201201,0,0,5141422,0,0,0,4201201,0,0,0,0,0,0,0,0,0,0,0,0,0,0,0,0,0,0,0,0,0,0,0,0,1071151,0,0,0,2050120,0,-2020151,0
7,283,960.836933285464,1,0,520562.945843166,520563.99295718,0,0,12,1,1,10,7,2191200,9361351,6141211,7181341,0,0,0,0,0,2191200,0,0,0,-4010130,3200170,0,2151051,0,0,0,0,0,0,0,0,0,0,0,2100131,4041080,0,0,0,0,3160150,0,0,0,0,4021191
7,284,950.053750246298,0,0,520566.157654122,520567.20471732,0,0,12,0,0,17,7,5260231,7362252,6222251,4061141,0,0,0,0,1190141,0,0,0,4070090,0,1091070,0,0,0,0,4181081,-2090101,0,4111161,0,0,0,2111090,0,0,0,0,4061141,0,0,0,0,0,0,0,0
7,285,818.580606777687,1,0,520569.287110447,520570.334185579,0,0,12,1,1,25,3,0,0,6151490,2140200,0,0,0,0,0,0,0,0,0,0,0,0,0,0,0,0,0,0,1030140,0,4080190,0,0,0,-1041160,0,0,0,0,0,0,2140200,0,0,0,0
7,286,721.081168798264,1,0,520572.216547216,520573.263628508,0,0,12,0,1,18,3,1170101,5191271,0,1100031,0,1170101,0,0,0,0,0,0,0,4130100,0,0,0,0,0,0,0,-1061171,0,0,0,0,0,0,0,0,0,0,0,0,0,0,1100031,0,0,0
7,287,822.27124174824,1,0,520575.169551001,520576.216616894,0,0,12,1,1,34,7,3180021,0,12502282,4281193,0,0,0,0,0,0,0,3180021,0,0,0,0,0,0,0,0,0,0,0,4111030,3180031,0,0,1150050,4061171,0,0,0,0,0,1120011,0,0,-2081011,1080171,0
7,288,602.466925804038,0,0,520578.228416763,520579.275489971,0,0,12,1,0,20,7,4232030,0,9412211,6341462,0,0,0,0,0,1181010,0,0,3051020,0,0,0,0,0,0,0,0,0,0,-3201010,0,0,0,0,3021150,3190051,0,0,0,0,2170171,3020161,1151130,0,0,0
7,289,678.773411375005,0,0,520584.216802061,520585.263819064,0,0,13,1,0,12,3,1040161,4160150,6152051,0,0,0,0,0,1040161,0,0,0,0,0,0,-4160150,0,0,0,0,0,0,2091030,0,0,0,0,0,4061021,0,0,0,0,0,0,0,0,0,0,0
7,290,814.864564337768,1,0,520586.969724696,520588.016793284,0,0,13,1,1,35,3,4201201,0,0,5141422,0,0,0,4201201,0,0,0,0,0,0,0,0,0,0,0,0,0,0,0,0,0,0,0,0,0,0,0,0,1071151,0,0,0,2050120,0,-2020151,0
7,291,759.152799553704,0,0,520590.028595848,520591.075655582,0,0,13,0,0,17,3,2071071,6202162,1160091,0,0,0,0,0,0,0,0,0,2071071,0,0,0,0,0,0,0,-3111131,3091031,0,0,0,0,0,1160091,0,0,0,0,0,0,0,0,0,0,0,0
7,292,735.427564184647,0,0,520592.993343682,520594.040402261,0,0,13,0,0,30,7,8350121,4131231,3061200,8272382,4180020,4170101,0,0,0,0,0,0,0,0,0,0,2101031,2030200,0,0,0,0,3061200,0,0,0,0,0,0,0,0,2031040,0,-2111181,4130161,0,0,0,0,0
7,293,695.349509187508,1,0,520595.852202977,520596.899281189,0,0,13,0,1,23,7,1171180,6360241,3151280,5341190,1171180,0,0,0,0,0,0,0,0,1140141,0,0,0,2130050,3090050,0,0,0,0,2020120,0,0,-1131160,0,0,0,0,0,4191130,0,0,0,0,0,1150060,0
7,294,1320.38685056614,1,0,520598.71107921,520599.758150107,0,0,13,1,1,32,7,1100040,6132251,5070281,4301271,1100040,0,0,0,0,0,0,0,0,0,1010070,0,3101071,0,2021110,0,0,0,0,0,0,2010120,0,0,0,0,3060161,0,0,2130131,0,-2171140,0,0,0,0
7,295,844.83389055822,1,0,520602.252301758,520603.299374965,0,0,13,1,1,25,3,0,0,6151490,2140200,0,0,0,0,0,0,0,0,0,0,0,0,0,0,0,0,0,0,1030140,0,4080190,0,0,0,-1041160,0,0,0,0,0,0,2140200,0,0,0,0
7,296,828.059921972454,1,0,520605.299410382,520606.34648051,0,0,13,1,1,10,7,2191200,9361351,6141211,7181341,0,0,0,0,0,2191200,0,0,0,-4010130,3200170,0,2151051,0,0,0,0,0,0,0,0,0,0,0,2100131,4041080,0,0,0,0,3160150,0,0,0,0,4021191
7,297,607.153073651716,1,1,520608.358275759,520609.405342037,0,0,13,0,0,9,3,8232332,0,0,3060081,0,0,0,2101200,0,0,0,3101091,-3030041,0,0,0,0,0,0,0,0,0,0,0,0,0,0,0,0,0,0,0,0,0,0,0,0,3060081,0,0
7,298,1074.8997653136,0,0,520611.099489376,520612.146553345,0,0,13,0,0,5,7,11190371,9181331,5400291,0,3050060,0,0,0,-4070171,0,4070140,0,0,0,0,3011111,3120020,0,0,0,0,3050200,2200160,0,3200131,0,0,0,0,0,0,0,0,0,0,0,0,0,0,0
7,299,595.570323639549,0,0,520614.428957558,520615.476027301,0,0,13,0,0,22,3,3091111,1081121,3080060,2081021,0,0,0,0,0,0,0,3091111,0,1081121,0,0,0,0,0,0,0,0,0,0,0,-3080060,0,0,0,0,0,0,0,2081021,0,0,0,0,0,0
7,300,659.659256169107,0,0,520617.146639961,520618.193750125,0,0,13,0,0,18,3,0,4261341,4151131,0,0,0,0,0,0,0,0,0,0,0,1101101,0,0,1050080,0,0,0,-2110160,4151131,0,0,0,0,0,0,0,0,0,0,0,0,0,0,0,0,0
7,301,727.422655152623,1,0,520619.92315117,520620.970218603,0,0,13,0,1,7,3,3160300,0,4050021,3180031,0,0,1020150,0,0,0,-2140150,0,0,0,0,0,0,0,0,0,0,0,0,0,0,0,4050021,0,0,0,0,0,0,0,0,0,0,0,3180031,0
7,302,778.82630523527,1,0,520622.805602888,520623.852623356,0,0,13,1,1,29,3,1101010,1060060,0,8142192,0,1101010,0,0,0,0,0,0,0,0,0,1060060,0,0,0,0,0,0,0,0,0,0,0,0,0,0,0,0,-4031141,0,0,0,0,4111051,0,0
7,303,1081.06224407675,0,0,520625.687935653,520626.735006165,0,0,13,1,0,34,7,3180021,0,12502282,4281193,0,0,0,0,0,0,0,3180021,0,0,0,0,0,0,0,0,0,0,0,4111030,3180031,0,0,1150050,4061171,0,0,0,0,0,1120011,0,0,-2081011,1080171,0
7,304,647.833209892269,1,0,520628.864507916,520629.911550712,0,0,13,0,1,16,7,6101021,2091111,9171341,8242091,0,4090010,0,0,0,2011011,0,0,0,0,0,0,0,0,0,-2091111,0,0,0,4020131,0,0,0,4091010,1060200,0,0,0,4121031,0,0,0,0,4121060,0,0
7,305,1045.47323612496,0,0,520631.688036513,520632.735098941,0,0,13,1,0,11,3,3181021,3040030,4181121,1010051,0,0,0,0,0,0,0,3181021,0,0,-3040030,0,0,0,0,0,0,0,0,0,0,0,0,4181121,0,0,0,0,0,0,0,0,0,0,0,1010051
7,306,836.248843057547,1,0,520634.841027517,520635.8880911,0,0,13,0,1,14,3,2011091,10372233,0,0,0,0,0,0,0,0,0,0,2011091,0,0,2051191,0,-4160011,4161031,0,0,0,0,0,0,0,0,0,0,0,0,0,0,0,0,0,0,0,0,0
7,307,872.058434470091,0,0,520637.923481468,520638.970497701,0,0,13,0,0,33,7,4170232,5162220,4172191,4151201,0,0,0,0,0,0,2040051,0,2130181,0,0,3041170,0,0,0,2121050,0,0,0,0,0,3141100,0,0,0,1031091,0,0,0,0,0,1100091,-3051110,0,0,0
7,308,1948.9165712148,0,0,520640.982273317,520642.029349604,0,0,13,1,0,1,7,7392483,4011181,0,11442352,-3181181,0,1191161,0,0,0,0,3020141,0,4011181,0,0,0,0,0,0,0,0,0,0,0,0,0,0,0,0,0,0,0,3200161,4051091,0,2170070,2021030,0,0
7,309,746.641905163415,0,0,520645.06470109,520646.111766983,0,0,13,1,0,13,7,4041151,9350161,2091030,6542363,4041151,0,0,0,0,0,0,0,0,0,4170020,0,-3080090,0,0,2100051,0,0,2091030,0,0,0,0,0,0,0,0,0,2140151,0,2201051,0,2201161,0,0,0
7,310,643.855008063838,1,0,520647.935334076,520648.982436541,0,0,13,1,1,20,7,4232030,0,9412211,6341462,0,0,0,0,0,1181010,0,0,3051020,0,0,0,0,0,0,0,0,0,0,-3201010,0,0,0,0,3021150,3190051,0,0,0,0,2170171,3020161,1151130,0,0,0
7,311,1040.02216795925,0,0,520650.747177523,520651.79420723,0,0,13,1,0,24,3,4060061,0,3210211,3130141,0,0,0,0,0,0,0,0,4060061,0,0,0,0,0,0,0,0,0,0,2020070,0,0,0,-1190141,0,0,0,3130141,0,0,0,0,0,0,0,0
7,312,1073.97778023733,1,0,520653.994244879,520655.041309232,0,0,13,0,1,19,7,0,1060140,8141351,8552614,0,0,0,0,0,0,0,0,0,1060140,0,0,0,0,0,0,0,0,-4111171,0,0,4030180,0,0,0,0,0,1170190,1171081,0,0,3010101,1050091,0,0,2151151
7,313,956.92494494142,1,0,520676.253392741,520677.300469799,0,0,14,0,1,7,3,6231152,0,2100201,4160020,0,0,0,0,0,4150091,-2081061,0,0,0,0,0,0,0,0,0,0,0,0,0,0,0,0,0,0,2100201,0,0,0,4160020,0,0,0,0,0,0
7,314,768.94855388673,0,0,520679.312267358,520680.35934249,0,0,14,1,0,24,3,4060061,0,3210211,3130141,0,0,0,0,0,0,0,0,4060061,0,0,0,0,0,0,0,0,0,0,2020070,0,0,0,-1190141,0,0,0,3130141,0,0,0,0,0,0,0,0
7,315,632.199115178082,0,0,520682.288782339,520683.335857471,0,0,14,0,0,22,7,0,6202112,7332300,6472233,0,0,0,0,0,0,0,0,0,0,0,3151071,0,0,0,0,0,3051041,0,0,0,-1190110,2101050,4041140,0,0,0,0,2151041,0,2160091,0,0,0,2161101,0
7,316,897.490593371913,0,0,520684.994709914,520686.041777732,0,0,14,0,0,18,3,4130141,3041010,2050141,4100160,0,0,0,0,0,0,0,4130141,0,0,0,0,0,0,0,0,0,-3041010,0,0,0,0,0,0,2050141,0,0,0,0,0,4100160,0,0,0,0,0
7,317,912.32473612763,0,0,520688.088886741,520689.135937235,0,0,14,1,0,25,3,0,0,6151490,2140200,0,0,0,0,0,0,0,0,0,0,0,0,0,0,0,0,0,0,1030140,0,4080190,0,0,0,-1041160,0,0,0,0,0,0,2140200,0,0,0,0
7,318,685.669628612231,0,0,520691.12420666,520692.17130181,0,0,14,0,0,30,3,2141151,4040020,2030071,2101070,0,0,0,0,2141151,0,0,0,0,0,0,0,0,0,0,0,4040020,0,0,0,0,0,0,0,0,0,2030071,0,0,-2101070,0,0,0,0,0,0
7,319,594.177529565059,0,0,520693.900720948,520694.947787226,0,0,14,0,0,23,7,3181271,2161081,6560421,7222171,0,0,1131131,0,0,0,0,2050140,0,0,0,0,0,2161081,0,0,0,0,1180200,0,0,0,-3190060,0,0,0,2190161,0,0,0,0,0,0,3101101,4121070,0
7,320,893.064680101816,1,0,520696.641931486,520697.688998149,0,0,14,1,1,13,7,4041151,9350161,2091030,6542363,4041151,0,0,0,0,0,0,0,0,0,4170020,0,-3080090,0,0,2100051,0,0,2091030,0,0,0,0,0,0,0,0,0,2140151,0,2201051,0,2201161,0,0,0
7,321,890.184391115326,1,0,520699.594922952,520700.64198923,0,0,14,1,1,35,3,4201201,0,0,5141422,0,0,0,4201201,0,0,0,0,0,0,0,0,0,0,0,0,0,0,0,0,0,0,0,0,0,0,0,0,1071151,0,0,0,2050120,0,-2020151,0
7,322,972.669523849618,0,0,520702.536146116,520703.583234337,0,0,14,1,0,34,7,3180021,0,12502282,4281193,0,0,0,0,0,0,0,3180021,0,0,0,0,0,0,0,0,0,0,0,4111030,3180031,0,0,1150050,4061171,0,0,0,0,0,1120011,0,0,-2081011,1080171,0
7,323,711.9440852548,0,0,520705.700896953,520706.747947833,0,0,14,0,0,33,7,2120021,6192351,2030130,12243662,0,2120021,0,0,0,0,0,0,0,0,0,0,0,0,4151200,2041151,0,0,0,0,0,0,2030130,0,0,0,0,0,0,3071180,0,3011101,-3041200,0,3120181,0
7,324,879.76191798225,1,0,520708.642117422,520709.689199099,0,0,14,1,1,29,3,1101010,1060060,0,8142192,0,1101010,0,0,0,0,0,0,0,0,0,1060060,0,0,0,0,0,0,0,0,0,0,0,0,0,0,0,0,-4031141,0,0,0,0,4111051,0,0
7,325,1006.93002645858,1,0,520711.595105809,520712.653932305,0,0,14,0,1,5,3,7261230,0,5161170,0,0,0,0,0,-3170080,0,4091150,0,0,0,0,0,0,0,0,0,0,0,4091050,0,0,0,0,0,0,1070120,0,0,0,0,0,0,0,0,0,0
7,326,816.393635177519,0,0,520714.830442974,520715.877510408,0,0,14,1,0,20,7,4232030,0,9412211,6341462,0,0,0,0,0,1181010,0,0,3051020,0,0,0,0,0,0,0,0,0,0,-3201010,0,0,0,0,3021150,3190051,0,0,0,0,2170171,3020161,1151130,0,0,0
7,327,785.359117900953,0,0,520717.783419812,520718.830493405,0,0,14,0,0,14,3,0,5112371,1061051,3151190,0,0,0,0,0,0,0,0,0,0,0,0,0,-1081170,4031201,0,0,0,0,0,0,0,0,1061051,0,0,0,0,3151190,0,0,0,0,0,0,0
7,328,1246.71081342967,1,0,520720.748171496,520721.795247013,0,0,14,1,1,32,7,1100040,6132251,5070281,4301271,1100040,0,0,0,0,0,0,0,0,0,1010070,0,3101071,0,2021110,0,0,0,0,0,0,2010120,0,0,0,0,3060161,0,0,2130131,0,-2171140,0,0,0,0
7,329,1699.37313668197,0,0,520724.136484652,520725.183532452,0,0,14,1,0,10,7,2191200,9361351,6141211,7181341,0,0,0,0,0,2191200,0,0,0,-4010130,3200170,0,2151051,0,0,0,0,0,0,0,0,0,0,0,2100131,4041080,0,0,0,0,3160150,0,0,0,0,4021191
7,330,921.45527532557,1,0,520727.90121909,520728.948287678,0,0,14,0,1,17,3,1151200,4261352,2171161,0,0,0,1151200,0,0,0,0,0,0,0,0,2071201,0,0,0,0,-2190151,0,0,0,0,0,0,0,0,2171161,0,0,0,0,0,0,0,0,0,0
7,331,890.683302481193,1,0,520731.054205474,520732.101281761,0,0,14,0,1,19,7,2091292,2141100,12631483,0,0,0,1041131,0,1050161,0,0,0,0,0,0,0,0,0,2141100,0,0,0,-2200050,0,0,0,2131181,2100030,2010131,4190091,0,0,0,0,0,0,0,0,0,0
7,332,1453.59848445514,1,0,520734.007218498,520735.054282082,0,0,14,1,1,1,7,7392483,4011181,0,11442352,-3181181,0,1191161,0,0,0,0,3020141,0,4011181,0,0,0,0,0,0,0,0,0,0,0,0,0,0,0,0,0,0,0,3200161,4051091,0,2170070,2021030,0,0
7,333,830.957149388269,1,0,520737.536658501,520738.583727859,0,0,14,1,1,11,3,3181021,3040030,4181121,1010051,0,0,0,0,0,0,0,3181021,0,0,-3040030,0,0,0,0,0,0,0,0,0,0,0,0,4181121,0,0,0,0,0,0,0,0,0,0,0,1010051
7,334,888.587566907518,0,0,520740.41905286,520741.466124912,0,0,14,0,0,9,7,8210261,1070101,7091072,4330072,0,2040021,0,0,0,4030160,0,0,-2140080,0,0,0,0,0,0,1070101,0,0,3051041,0,0,0,0,4040031,0,0,0,3130031,1200041,0,0,0,0,0,0,0
7,335,1809.79691876564,1,0,520743.536745118,520744.583853357,0,0,14,0,1,16,7,6262451,9382172,4150111,2121020,1050180,0,4121120,0,0,0,0,1091151,0,0,0,3131021,0,0,2150080,-4101071,0,0,0,4150111,0,0,0,0,0,0,0,0,0,0,0,2121020,0,0,0,0
7,336,1012.53700436791,0,0,520747.466221923,520748.513287816,0,0,14,1,0,12,3,1040161,4160150,6152051,0,0,0,0,0,1040161,0,0,0,0,0,0,-4160150,0,0,0,0,0,0,2091030,0,0,0,0,0,4061021,0,0,0,0,0,0,0,0,0,0,0
7,337,834.640470042359,1,0,520755.889898114,520756.936938215,0,0,15,1,1,13,7,4041151,9350161,2091030,6542363,4041151,0,0,0,0,0,0,0,0,0,4170020,0,-3080090,0,0,2100051,0,0,2091030,0,0,0,0,0,0,0,0,0,2140151,0,2201051,0,2201161,0,0,0
7,338,853.671858320013,0,0,520758.889913128,520759.936978251,0,0,15,0,0,22,3,0,0,9482383,0,0,0,0,0,0,0,0,0,0,0,0,0,0,0,0,0,0,0,0,0,0,-1130140,2120041,2191161,0,0,4041041,0,0,0,0,0,0,0,0,0
7,339,936.274019652046,0,0,520761.972315878,520763.019383311,0,0,15,1,0,24,3,4060061,0,3210211,3130141,0,0,0,0,0,0,0,0,4060061,0,0,0,0,0,0,0,0,0,0,2020070,0,0,0,-1190141,0,0,0,3130141,0,0,0,0,0,0,0,0
7,340,942.293677362613,1,0,520765.125300338,520766.172375856,0,0,15,0,1,18,7,2011010,7171092,2070070,16602564,0,2011010,0,0,0,0,0,0,0,0,4131021,0,0,0,0,0,0,-3040071,0,0,0,0,0,2070070,0,0,0,0,0,4150121,4171161,0,4190201,0,4091081,0
7,341,802.959215827286,0,0,520768.160646435,520769.207732346,0,0,15,0,0,17,3,2121110,1031101,2110110,3160131,0,0,0,0,0,0,0,0,2121110,0,0,0,0,0,0,0,-1031101,0,0,0,0,0,0,0,0,0,2110110,3160131,0,0,0,0,0,0,0,0
7,342,1682.90059373248,0,0,520771.160708799,520772.207834361,0,0,15,1,0,1,7,7392483,4011181,0,11442352,-3181181,0,1191161,0,0,0,0,3020141,0,4011181,0,0,0,0,0,0,0,0,0,0,0,0,0,0,0,0,0,0,0,3200161,4051091,0,2170070,2021030,0,0
7,343,1300.30489980709,0,0,520775.090157502,520776.13722455,0,0,15,0,0,5,3,5252111,0,0,2141190,0,0,2181061,0,-2020040,0,1051010,0,0,0,0,0,0,0,0,0,0,0,0,0,0,0,0,0,0,0,0,0,0,2141190,0,0,0,0,0,0
7,344,1113.35250886623,1,0,520778.537260197,520779.584330325,0,0,15,1,1,32,7,1100040,6132251,5070281,4301271,1100040,0,0,0,0,0,0,0,0,0,1010070,0,3101071,0,2021110,0,0,0,0,0,0,2010120,0,0,0,0,3060161,0,0,2130131,0,-2171140,0,0,0,0
7,345,739.452346577309,1,0,520781.843222188,520782.890263828,0,0,15,0,1,23,7,2150150,6511110,3141170,2222190,0,0,0,0,0,0,0,0,2150150,4200060,0,0,0,1191030,0,0,1120020,0,0,0,0,2110100,-1031070,0,0,0,0,1041060,0,0,0,0,1181130,0,0,0
7,346,694.70392720541,1,0,520784.772658572,520785.819739479,0,0,15,0,1,16,7,7252170,3221251,2181111,7491310,4051040,0,0,0,0,0,3201130,0,0,0,0,0,0,0,0,-2031150,1190101,0,0,0,0,2181111,0,0,0,0,0,0,1090010,4201150,0,2200150,0,0,0,0
7,347,598.231954034418,1,0,520787.643275774,520788.690333584,0,0,15,1,1,29,3,1101010,1060060,0,8142192,0,1101010,0,0,0,0,0,0,0,0,0,1060060,0,0,0,0,0,0,0,0,0,0,0,0,0,0,0,0,-4031141,0,0,0,0,4111051,0,0
7,348,595.060248451773,1,0,520790.396258848,520791.443325512,0,0,15,0,1,9,7,5320031,2171171,2171100,10523273,3130020,0,0,0,0,0,0,0,-2190011,0,0,2171171,0,0,0,0,0,0,0,0,0,0,0,2171100,0,0,0,0,1150041,0,4121091,0,4191010,1061131,0,0
7,349,568.437785783317,0,0,520793.055114755,520794.102190273,0,0,15,0,0,14,7,5503232,5472240,6170140,0,0,2171131,0,2191041,0,1141060,0,0,0,0,0,2141090,2170100,-1161050,0,0,0,0,4140070,0,0,0,0,2030070,0,0,0,0,0,0,0,0,0,0,0,0
7,350,679.609934799373,1,0,520795.725753978,520796.772819101,0,0,15,1,1,11,3,3181021,3040030,4181121,1010051,0,0,0,0,0,0,0,3181021,0,0,-3040030,0,0,0,0,0,0,0,0,0,0,0,0,4181121,0,0,0,0,0,0,0,0,0,0,0,1010051
7,351,555.592358927242,0,0,520798.478723193,520799.525812184,0,0,15,1,0,20,7,4232030,0,9412211,6341462,0,0,0,0,0,1181010,0,0,3051020,0,0,0,0,0,0,0,0,0,0,-3201010,0,0,0,0,3021150,3190051,0,0,0,0,2170171,3020161,1151130,0,0,0
7,352,1192.76756606996,0,0,520801.231716276,520802.278796798,0,0,15,0,0,7,7,12232282,4262250,1090130,4091050,2021091,4051010,0,0,0,3150120,-3010061,0,0,0,0,0,0,3191080,0,0,0,1071170,0,0,0,1090130,0,0,0,0,0,4091050,0,0,0,0,0,0,0,0
7,353,853.925163624808,1,0,520804.643536009,520805.690602287,0,0,15,0,1,30,3,2242111,3030181,0,2190161,0,0,0,0,1081081,0,1161030,0,0,0,0,0,0,0,3030181,0,0,0,0,0,0,0,0,0,0,0,0,0,0,-2190161,0,0,0,0,0,0
7,354,1032.20204089303,1,0,520807.56121949,520808.608284613,0,0,15,0,1,33,3,1041080,0,4190121,7141260,0,0,1041080,0,0,0,0,0,0,0,0,0,0,0,0,0,0,0,0,0,0,0,0,0,0,4190121,0,0,0,4130170,0,0,-3011090,0,0,0
7,355,708.376253314782,1,0,520810.725968787,520811.773050464,0,0,15,0,1,19,3,0,6311071,3160191,2141060,0,0,0,0,0,0,0,0,0,0,0,4131021,0,0,2180050,0,0,0,-3160191,0,0,0,0,0,0,0,0,0,0,0,2141060,0,0,0,0,0
7,356,1143.32145010121,0,0,520813.584834241,520814.631900519,0,0,15,1,0,10,7,2191200,9361351,6141211,7181341,0,0,0,0,0,2191200,0,0,0,-4010130,3200170,0,2151051,0,0,0,0,0,0,0,0,0,0,0,2100131,4041080,0,0,0,0,3160150,0,0,0,0,4021191
7,357,996.658843476325,1,0,520816.949619648,520817.996667063,0,0,15,1,1,35,3,4201201,0,0,5141422,0,0,0,4201201,0,0,0,0,0,0,0,0,0,0,0,0,0,0,0,0,0,0,0,0,0,0,0,0,1071151,0,0,0,2050120,0,-2020151,0
7,358,902.997481112834,0,0,520820.020230229,520821.067288808,0,0,15,1,0,25,3,0,0,6151490,2140200,0,0,0,0,0,0,0,0,0,0,0,0,0,0,0,0,0,0,1030140,0,4080190,0,0,0,-1041160,0,0,0,0,0,0,2140200,0,0,0,0
7,359,1079.95085750008,0,0,520823.161506441,520824.208523059,0,0,15,1,0,12,3,1040161,4160150,6152051,0,0,0,0,0,1040161,0,0,0,0,0,0,-4160150,0,0,0,0,0,0,2091030,0,0,0,0,0,4061021,0,0,0,0,0,0,0,0,0,0,0
7,360,1137.91927212151,0,0,520826.46738066,520827.514486589,0,0,15,1,0,34,7,3180021,0,12502282,4281193,0,0,0,0,0,0,0,3180021,0,0,0,0,0,0,0,0,0,0,0,4111030,3180031,0,0,1150050,4061171,0,0,0,0,0,1120011,0,0,-2081011,1080171,0
7,361,891.716926649679,1,0,520845.77354745,520846.820618733,0,0,16,1,1,12,3,1040161,4160150,6152051,0,0,0,0,0,1040161,0,0,0,0,0,0,-4160150,0,0,0,0,0,0,2091030,0,0,0,0,0,4061021,0,0,0,0,0,0,0,0,0,0,0
7,362,716.581727843732,1,0,520848.832415522,520849.879493734,0,0,16,0,1,7,3,7352170,4100140,0,0,2190020,0,0,0,0,0,-2121110,0,3041040,0,4100140,0,0,0,0,0,0,0,0,0,0,0,0,0,0,0,0,0,0,0,0,0,0,0,0,0
7,363,652.172891539522,1,0,520851.667748222,520852.714827589,0,0,16,1,1,13,7,4041151,9350161,2091030,6542363,4041151,0,0,0,0,0,0,0,0,0,4170020,0,-3080090,0,0,2100051,0,0,2091030,0,0,0,0,0,0,0,0,0,2140151,0,2201051,0,2201161,0,0,0
7,364,608.24290238088,1,0,520854.57367418,520855.620753162,0,0,16,1,1,25,3,0,0,6151490,2140200,0,0,0,0,0,0,0,0,0,0,0,0,0,0,0,0,0,0,1030140,0,4080190,0,0,0,-1041160,0,0,0,0,0,0,2140200,0,0,0,0
7,365,1467.86018810235,0,0,520857.409018429,520858.456077008,0,0,16,0,0,5,7,6351280,5210212,6080392,1200181,0,0,0,0,-2090200,0,3090030,0,1171050,2100121,3110091,0,0,0,0,0,0,0,0,2060201,0,0,0,0,0,0,4020191,0,1200181,0,0,0,0,0,0,0
7,366,1736.81073426269,0,0,520860.95030796,520861.997317649,0,0,16,1,0,1,7,7392483,4011181,0,11442352,-3181181,0,1191161,0,0,0,0,3020141,0,4011181,0,0,0,0,0,0,0,0,0,0,0,0,0,0,0,0,0,0,0,3200161,4051091,0,2170070,2021030,0,0
7,367,551.175299857277,0,0,520864.879713163,520865.926780211,0,0,16,0,0,23,7,1040030,4101241,8461391,4242241,0,0,1040030,0,0,0,0,0,0,0,1090141,0,0,0,3011100,0,0,0,0,0,0,3150130,-1120080,0,4191181,0,0,0,0,0,1091140,0,0,3151101,0,0
7,368,614.242542011198,0,0,520867.538589473,520868.585656136,0,0,16,1,0,10,7,2191200,9361351,6141211,7181341,0,0,0,0,0,2191200,0,0,0,-4010130,3200170,0,2151051,0,0,0,0,0,0,0,0,0,0,0,2100131,4041080,0,0,0,0,3160150,0,0,0,0,4021191
7,369,537.236964679323,1,0,520870.397447228,520871.444512736,0,0,16,1,1,24,3,4060061,0,3210211,3130141,0,0,0,0,0,0,0,0,4060061,0,0,0,0,0,0,0,0,0,0,2020070,0,0,0,-1190141,0,0,0,3130141,0,0,0,0,0,0,0,0
7,370,2024.630599597,1,0,520873.103367873,520874.150421447,0,0,16,1,1,34,7,3180021,0,12502282,4281193,0,0,0,0,0,0,0,3180021,0,0,0,0,0,0,0,0,0,0,0,4111030,3180031,0,0,1150050,4061171,0,0,0,0,0,1120011,0,0,-2081011,1080171,0
7,371,866.267829434946,0,0,520877.244607129,520878.291667247,0,0,16,1,0,11,3,3181021,3040030,4181121,1010051,0,0,0,0,0,0,0,3181021,0,0,-3040030,0,0,0,0,0,0,0,0,0,0,0,0,4181121,0,0,0,0,0,0,0,0,0,0,0,1010051
7,372,700.72820445057,1,0,520880.315239268,520881.362299772,0,0,16,1,1,32,7,1100040,6132251,5070281,4301271,1100040,0,0,0,0,0,0,0,0,0,1010070,0,3101071,0,2021110,0,0,0,0,0,0,2010120,0,0,0,0,3060161,0,0,2130131,0,-2171140,0,0,0,0
7,373,640.207103919238,0,0,520883.138806745,520884.185871484,0,0,16,0,0,30,7,5171261,0,4230110,5351201,0,0,3050010,1100051,0,1021200,0,0,0,0,0,0,0,0,0,0,0,0,0,0,0,0,2100040,0,2130070,0,0,0,0,-2120130,0,0,0,2111021,0,1120050
7,374,602.7514130692,1,1,520885.880022672,520886.927127832,0,0,16,0,0,18,3,3130071,1131171,3101051,4101200,0,0,0,3130071,0,0,0,0,0,0,0,0,0,0,0,0,0,-1131171,0,0,0,0,0,0,0,0,3101051,0,4101200,0,0,0,0,0,0,0
7,375,1526.57966437982,1,0,520888.621245529,520889.668311037,0,0,16,0,1,19,7,4020141,6092172,3372332,7352370,0,0,0,0,0,0,0,4020141,0,3051091,3041081,0,0,0,0,0,0,0,-2171171,0,0,0,0,0,0,0,1201161,0,2121120,3180170,0,0,2051080,0,0,0
7,376,700.270869128872,0,0,520892.362472235,520893.409538513,0,0,16,0,0,9,3,6300261,2080141,1041090,0,0,4160180,0,0,0,0,0,0,-2140081,2080141,0,0,0,0,0,0,0,0,1041090,0,0,0,0,0,0,0,0,0,0,0,0,0,0,0,0,0
7,377,662.341289513279,0,0,520895.209580166,520896.2566399,0,0,16,0,0,22,7,0,1091110,9392331,9443563,0,0,0,0,0,0,0,0,0,0,0,0,0,0,1091110,0,0,0,0,0,0,-3120180,0,0,0,3171141,3101010,4081181,0,3141081,0,0,0,1061121,0,1160180
7,378,569.594982836861,0,0,520897.986077901,520899.033151493,0,0,16,1,0,20,7,4232030,0,9412211,6341462,0,0,0,0,0,1181010,0,0,3051020,0,0,0,0,0,0,0,0,0,0,-3201010,0,0,0,0,3021150,3190051,0,0,0,0,2170171,3020161,1151130,0,0,0
7,379,552.624298492447,1,0,520900.680242178,520901.727312306,0,0,16,1,1,29,3,1101010,1060060,0,8142192,0,1101010,0,0,0,0,0,0,0,0,0,1060060,0,0,0,0,0,0,0,0,0,0,0,0,0,0,0,0,-4031141,0,0,0,0,4111051,0,0
7,380,926.224575028755,1,0,520903.42146311,520904.468529773,0,0,16,0,1,33,3,0,4140030,3160071,4181271,0,0,0,0,0,0,0,0,0,0,4140030,0,0,0,0,0,0,0,0,0,0,3160071,0,0,0,0,0,0,0,0,0,0,-1111071,0,3070200,0
7,381,497.158139827661,1,0,520906.574450649,520907.621516927,0,0,16,0,1,17,7,5251211,11442353,3141292,0,0,2101061,3150150,0,0,0,0,0,0,0,3140031,0,2031181,0,0,4110011,-2161130,0,2040161,1101131,0,0,0,0,0,0,0,0,0,0,0,0,0,0,0,0
7,382,644.509444187861,0,0,520909.245078708,520910.292142291,0,0,16,1,0,35,3,4201201,0,0,5141422,0,0,0,4201201,0,0,0,0,0,0,0,0,0,0,0,0,0,0,0,0,0,0,0,0,0,0,0,0,1071151,0,0,0,2050120,0,-2020151,0
7,383,476.036790350918,1,0,520912.021587606,520913.068656194,0,0,16,0,1,16,3,4131090,2171200,5111231,0,0,0,0,0,0,0,0,4131090,0,0,0,0,0,0,0,-2171200,0,0,4031071,1080160,0,0,0,0,0,0,0,0,0,0,0,0,0,0,0,0
7,384,581.084956880659,1,0,520914.668684066,520915.715741875,0,0,16,0,1,14,3,5260091,4081061,3090181,0,0,0,2060081,3200010,0,0,0,0,0,0,0,0,0,-4081061,0,0,0,0,0,0,0,0,0,0,0,0,3090181,0,0,0,0,0,0,0,0,0
7,385,1052.08573606797,0,0,520920.574648905,520921.621779857,0,0,17,1,0,32,7,1100040,6132251,5070281,4301271,1100040,0,0,0,0,0,0,0,0,0,1010070,0,3101071,0,2021110,0,0,0,0,0,0,2010120,0,0,0,0,3060161,0,0,2130131,0,-2171140,0,0,0,0
7,386,702.539067831822,0,0,520923.809996849,520924.857063897,0,0,17,1,0,11,3,3181021,3040030,4181121,1010051,0,0,0,0,0,0,0,3181021,0,0,-3040030,0,0,0,0,0,0,0,0,0,0,0,0,4181121,0,0,0,0,0,0,0,0,0,0,0,1010051
7,387,1078.74707999872,1,0,520926.57475015,520927.621819508,0,0,17,0,1,22,7,10422453,0,5240271,7241191,0,2111181,3051190,0,1150011,0,4110071,0,0,0,0,0,0,0,0,0,0,0,0,2200111,0,-3040160,0,0,0,0,0,0,0,0,0,4160041,0,3081150,0,0
7,388,577.448986645322,1,0,520929.810125427,520930.857150514,0,0,17,0,1,23,3,3161180,0,11311331,0,0,3161180,0,0,0,0,0,0,0,0,0,0,0,0,0,0,0,0,0,0,0,0,-3010140,4200040,0,0,4101151,0,0,0,0,0,0,0,0,0
7,389,1155.57287982665,0,0,520932.457186854,520933.504249668,0,0,17,1,0,34,7,3180021,0,12502282,4281193,0,0,0,0,0,0,0,3180021,0,0,0,0,0,0,0,0,0,0,0,4111030,3180031,0,0,1150050,4061171,0,0,0,0,0,1120011,0,0,-2081011,1080171,0
7,390,996.031739690807,0,0,520935.845476913,520936.892537032,0,0,17,1,0,13,7,4041151,9350161,2091030,6542363,4041151,0,0,0,0,0,0,0,0,0,4170020,0,-3080090,0,0,2100051,0,0,2091030,0,0,0,0,0,0,0,0,0,2140151,0,2201051,0,2201161,0,0,0
7,391,1098.81093754666,0,0,520938.939631412,520939.98669846,0,0,17,1,0,12,3,1040161,4160150,6152051,0,0,0,0,0,1040161,0,0,0,0,0,0,-4160150,0,0,0,0,0,0,2091030,0,0,0,0,0,4061021,0,0,0,0,0,0,0,0,0,0,0
7,392,741.263594827615,1,0,520942.104384944,520943.151451222,0,0,17,0,1,16,7,8221232,3231301,9313372,0,0,0,4201111,0,4020121,0,0,0,0,0,0,0,0,2161150,0,-1070151,0,0,3061011,0,1070160,4151130,1031071,0,0,0,0,0,0,0,0,0,0,0,0,0
7,393,562.770753633231,0,0,520945.045657768,520946.092670152,0,0,17,1,0,10,7,2191200,9361351,6141211,7181341,0,0,0,0,0,2191200,0,0,0,-4010130,3200170,0,2151051,0,0,0,0,0,0,0,0,0,0,0,2100131,4041080,0,0,0,0,3160150,0,0,0,0,4021191
7,394,488.160412583966,0,0,520947.76329436,520948.810361024,0,0,17,0,0,14,7,7172323,6281172,3202160,3050050,3031061,0,0,1070171,3071091,0,0,0,0,2141061,0,0,0,-4140111,0,0,0,0,0,0,2161030,0,0,0,1041130,0,0,0,0,0,0,0,3050050,0,0,0
7,395,800.531257700641,0,0,520950.339802181,520951.386869229,0,0,17,1,0,35,3,4201201,0,0,5141422,0,0,0,4201201,0,0,0,0,0,0,0,0,0,0,0,0,0,0,0,0,0,0,0,0,0,0,0,0,1071151,0,0,0,2050120,0,-2020151,0
7,396,624.574549030513,0,0,520953.24572044,520954.292797497,0,0,17,1,0,24,3,4060061,0,3210211,3130141,0,0,0,0,0,0,0,0,4060061,0,0,0,0,0,0,0,0,0,0,2020070,0,0,0,-1190141,0,0,0,3130141,0,0,0,0,0,0,0,0
7,397,854.320135025773,0,0,520956.081049675,520957.128128272,0,0,17,0,0,5,7,6270042,1150170,9544390,2151110,0,0,0,3070021,-3200021,0,0,0,0,0,0,0,0,0,0,0,1150170,0,0,0,3201090,2151060,0,3071150,1121090,0,0,0,2151110,0,0,0,0,0,0,0
7,398,592.122215079144,1,0,520959.116401161,520960.163468979,0,0,17,0,1,17,3,0,2150040,7121341,1090150,0,0,0,0,0,0,0,0,0,0,0,0,0,0,0,0,-2150040,0,4060160,0,3061181,0,0,0,0,0,0,0,0,0,0,0,0,0,0,1090150
7,399,864.389212685637,1,0,520961.89291699,520962.939985962,0,0,17,1,1,29,3,1101010,1060060,0,8142192,0,1101010,0,0,0,0,0,0,0,0,0,1060060,0,0,0,0,0,0,0,0,0,0,0,0,0,0,0,0,-4031141,0,0,0,0,4111051,0,0
7,400,846.342173346784,1,0,520964.8341313,520965.881188724,0,0,17,0,1,30,3,3060010,3130090,0,3241071,0,0,0,0,0,0,3060010,0,0,0,0,0,0,0,3130090,0,0,0,0,0,0,0,0,0,0,0,0,0,0,-2070061,0,0,0,0,1171010,0
7,401,1735.91492668493,0,0,520967.77534715,520968.822414583,0,0,17,1,0,1,7,7392483,4011181,0,11442352,-3181181,0,1191161,0,0,0,0,3020141,0,4011181,0,0,0,0,0,0,0,0,0,0,0,0,0,0,0,0,0,0,0,3200161,4051091,0,2170070,2021030,0,0
7,402,745.44313212391,1,0,520971.751885229,520972.798958436,0,0,17,1,1,20,7,4232030,0,9412211,6341462,0,0,0,0,0,1181010,0,0,3051020,0,0,0,0,0,0,0,0,0,0,-3201010,0,0,0,0,3021150,3190051,0,0,0,0,2170171,3020161,1151130,0,0,0
7,403,474.360278923996,1,0,520974.657805412,520975.704863991,0,0,17,0,1,9,3,2221220,3131181,2041021,0,0,0,0,0,0,0,1120170,0,-1101050,0,0,0,0,0,3131181,0,0,0,0,0,2041021,0,0,0,0,0,0,0,0,0,0,0,0,0,0,0
7,404,672.378030314576,0,0,520977.210788948,520978.257852146,0,0,17,0,0,18,3,0,2050190,4171090,3170202,0,0,0,0,0,0,0,0,0,0,0,0,0,0,0,0,0,-2050190,0,0,0,0,0,4171090,0,0,0,0,0,0,0,1010011,0,2160191,0,0
7,405,1160.50463367719,1,0,520980.010817512,520981.057905348,0,0,17,0,1,7,7,5092301,6381061,7171351,2151031,0,0,0,0,0,0,-2031151,3061150,0,0,0,1201031,4080010,0,0,0,1100020,0,0,0,0,4151150,0,3020201,0,0,0,0,0,2151031,0,0,0,0,0,0
7,406,825.810971437022,0,0,520983.387407792,520984.434407472,0,0,17,1,0,25,3,0,0,6151490,2140200,0,0,0,0,0,0,0,0,0,0,0,0,0,0,0,0,0,0,1030140,0,4080190,0,0,0,-1041160,0,0,0,0,0,0,2140200,0,0,0,0
7,407,737.417820026167,1,0,520986.363863489,520987.410928997,0,0,17,0,1,19,7,10111190,1160061,7281481,1151071,4010030,0,0,3071120,0,3030040,0,0,0,0,0,0,0,1160061,0,0,0,0,-4050150,0,2200131,0,0,0,0,0,1031200,0,0,0,0,0,0,0,0,1151071
7,408,907.715965760872,1,0,520989.328616713,520990.375677986,0,0,17,0,1,33,3,3171110,3081282,0,1091071,0,3171110,0,0,0,0,0,0,0,0,1071091,0,0,2010191,0,0,0,0,0,0,0,0,0,0,0,0,0,0,0,0,0,0,-1091071,0,0,0
7,409,880.015993199777,1,0,521019.587880064,521020.634948267,0,0,18,1,1,34,7,3180021,0,12502282,4281193,0,0,0,0,0,0,0,3180021,0,0,0,0,0,0,0,0,0,0,0,4111030,3180031,0,0,1150050,4061171,0,0,0,0,0,1120011,0,0,-2081011,1080171,0
7,410,826.47541660117,0,0,521022.59976116,521023.6467593,0,0,18,0,0,19,7,5311321,5311281,4280301,4191331,0,0,2121190,0,3190131,0,0,0,0,0,0,0,0,0,0,4190131,0,1121150,-3140161,0,0,1140140,0,0,0,0,0,0,0,1181141,3010190,0,0,0,0,0
7,411,729.334378673229,0,0,521025.493855297,521026.540918111,0,0,18,1,0,11,3,3181021,3040030,4181121,1010051,0,0,0,0,0,0,0,3181021,0,0,-3040030,0,0,0,0,0,0,0,0,0,0,0,0,4181121,0,0,0,0,0,0,0,0,0,0,0,1010051
7,412,674.163486168254,1,0,521028.293886941,521029.340963228,0,0,18,0,1,22,3,3030131,4121060,1061150,2101070,0,0,0,0,0,3030131,0,0,0,0,0,0,0,0,4121060,0,0,0,0,0,0,-1061150,0,0,0,0,0,0,0,2101070,0,0,0,0,0,0
7,413,583.72541423887,0,0,521031.035121346,521032.08218339,0,0,18,1,0,13,7,4041151,9350161,2091030,6542363,4041151,0,0,0,0,0,0,0,0,0,4170020,0,-3080090,0,0,2100051,0,0,2091030,0,0,0,0,0,0,0,0,0,2140151,0,2201051,0,2201161,0,0,0
7,414,604.604622290935,0,0,521033.72927369,521034.776341508,0,0,18,0,0,17,7,4130221,5311152,7312252,3081330,0,0,1030151,3100070,0,0,0,0,0,0,0,2150091,0,0,0,0,-3161061,0,0,4141151,0,0,0,0,3171101,0,0,0,0,0,0,2031200,0,0,1050130,0
7,415,480.275611800607,0,0,521036.51755012,521037.564612164,0,0,18,1,0,20,7,4232030,0,9412211,6341462,0,0,0,0,0,1181010,0,0,3051020,0,0,0,0,0,0,0,0,0,0,-3201010,0,0,0,0,3021150,3190051,0,0,0,0,2170171,3020161,1151130,0,0,0
7,416,867.754169390537,0,0,521039.094087968,521040.141111901,0,0,18,0,0,7,7,6092342,7112351,12474281,0,0,0,0,0,4051181,0,-2041161,0,0,4101200,0,0,0,3011151,0,0,0,0,0,0,2091121,4091020,0,0,0,3121030,3171110,0,0,0,0,0,0,0,0,0
7,417,970.782822929323,1,0,521042.200043876,521043.247060494,0,0,18,0,1,33,3,1171131,0,3071190,4041211,0,0,0,0,1171131,0,0,0,0,0,0,0,0,0,0,0,0,0,0,0,0,0,0,0,0,0,3071190,0,0,0,0,0,-3031191,1010020,0,0
7,418,1080.54138987791,1,0,521045.388262794,521046.435329457,0,0,18,0,1,5,3,1041081,5231231,0,1201050,0,0,0,0,-1041081,0,0,0,0,4151061,1080170,0,0,0,0,0,0,0,0,0,0,0,0,0,0,0,0,0,0,0,0,0,0,1201050,0,0
7,419,654.635881248396,1,0,521048.600138038,521049.647147727,0,0,18,0,1,9,7,16514494,2130100,6341331,0,0,0,0,4091031,0,4141091,4201111,3020171,-1061090,0,0,0,0,2130100,0,0,0,0,0,0,2190191,0,0,0,4151140,0,0,0,0,0,0,0,0,0,0,0
7,420,568.707259488292,1,0,521051.305990545,521052.353076841,0,0,18,0,1,16,7,8353231,2122281,9402152,0,0,0,2091130,3141011,0,0,0,3121090,0,0,0,0,1091101,0,0,-1031180,0,0,2180021,0,0,0,3041121,4181010,0,0,0,0,0,0,0,0,0,0,0,0
7,421,607.448339869734,0,0,521054.09427275,521055.141344418,0,0,18,1,0,12,3,1040161,4160150,6152051,0,0,0,0,0,1040161,0,0,0,0,0,0,-4160150,0,0,0,0,0,0,2091030,0,0,0,0,0,4061021,0,0,0,0,0,0,0,0,0,0,0
7,422,1087.44877099525,1,0,521056.835486752,521057.88255996,0,0,18,1,1,32,7,1100040,6132251,5070281,4301271,1100040,0,0,0,0,0,0,0,0,0,1010070,0,3101071,0,2021110,0,0,0,0,0,0,2010120,0,0,0,0,3060161,0,0,2130131,0,-2171140,0,0,0,0
7,423,1524.56361608347,1,0,521060.153179703,521061.200255221,0,0,18,0,1,18,7,3171061,3242072,7192213,4132182,0,3171061,0,0,0,0,0,0,0,0,0,0,0,0,2111021,0,0,-1131051,0,0,0,0,1060041,4091081,0,2041091,0,0,3121081,0,0,0,0,0,0,1011101
7,424,924.585789907724,1,0,521063.812060633,521064.859129221,0,0,18,1,1,25,3,0,0,6151490,2140200,0,0,0,0,0,0,0,0,0,0,0,0,0,0,0,0,0,0,1030140,0,4080190,0,0,0,-1041160,0,0,0,0,0,0,2140200,0,0,0,0
7,425,1024.98438005568,1,0,521066.823914396,521067.870942948,0,0,18,0,1,14,3,4040191,2171011,2130191,2130041,0,0,0,0,0,0,4040191,0,0,0,0,0,0,-2171011,0,0,0,0,0,0,0,0,0,2130191,0,0,0,0,0,0,0,0,0,2130041,0,0
7,426,743.840533483308,0,0,521070.071020634,521071.11805342,0,0,18,1,0,35,3,4201201,0,0,5141422,0,0,0,4201201,0,0,0,0,0,0,0,0,0,0,0,0,0,0,0,0,0,0,0,0,0,0,0,0,1071151,0,0,0,2050120,0,-2020151,0
7,427,533.701084612403,1,0,521072.976905016,521074.024002091,0,0,18,1,1,29,3,1101010,1060060,0,8142192,0,1101010,0,0,0,0,0,0,0,0,0,1060060,0,0,0,0,0,0,0,0,0,0,0,0,0,0,0,0,-4031141,0,0,0,0,4111051,0,0
7,428,918.968417972792,0,0,521075.588703499,521076.635779016,0,0,18,1,0,10,7,2191200,9361351,6141211,7181341,0,0,0,0,0,2191200,0,0,0,-4010130,3200170,0,2151051,0,0,0,0,0,0,0,0,0,0,0,2100131,4041080,0,0,0,0,3160150,0,0,0,0,4021191
7,429,595.616519160103,0,0,521078.576985627,521079.624063069,0,0,18,0,0,30,3,3020090,0,0,10171181,0,0,0,0,0,0,3020090,0,0,0,0,0,0,0,0,0,0,0,0,0,0,0,0,0,0,0,0,0,0,-3021071,3040060,0,0,0,4110050,0
7,430,533.656044048257,0,0,521081.224086706,521082.271159913,0,0,18,0,0,23,3,0,1110181,4211370,1121081,0,0,0,0,0,0,0,0,0,0,0,0,0,0,1110181,0,0,0,0,0,0,0,-2020180,0,2191190,0,0,0,0,0,0,0,1121081,0,0,0
7,431,659.080657584127,1,0,521083.906478446,521084.953546649,0,0,18,1,1,24,3,4060061,0,3210211,3130141,0,0,0,0,0,0,0,0,4060061,0,0,0,0,0,0,0,0,0,0,2020070,0,0,0,-1190141,0,0,0,3130141,0,0,0,0,0,0,0,0
7,432,1311.41068128636,0,0,521086.777115667,521087.82418156,0,0,18,1,0,1,7,7392483,4011181,0,11442352,-3181181,0,1191161,0,0,0,0,3020141,0,4011181,0,0,0,0,0,0,0,0,0,0,0,0,0,0,0,0,0,0,0,3200161,4051091,0,2170070,2021030,0,0
7,433,1222.4404712324,0,0,521106.247979785,521107.295052992,0,0,19,1,0,13,7,4041151,9350161,2091030,6542363,4041151,0,0,0,0,0,0,0,0,0,4170020,0,-3080090,0,0,2100051,0,0,2091030,0,0,0,0,0,0,0,0,0,2140151,0,2201051,0,2201161,0,0,0
7,434,987.400496727787,0,0,521109.600968787,521110.648045459,0,0,19,0,0,7,7,4100011,8431491,0,13413363,0,0,0,0,0,0,-4100011,0,0,0,1151200,3110131,0,0,4170160,0,0,0,0,0,0,0,0,0,0,0,0,2121131,0,0,0,4021171,3170030,4101031,0,0
7,435,768.423465138767,0,0,521112.848083878,521113.895152851,0,0,19,0,0,17,7,5341452,8503631,1201181,0,2200190,1110111,0,0,0,0,0,0,2031151,0,1181170,0,0,4060120,0,0,-1091191,2171150,0,0,1201181,0,0,0,0,0,0,0,0,0,0,0,0,0,0,0
7,436,827.206075307913,1,0,521115.683415808,521116.730490556,0,0,19,1,1,34,7,3180021,0,12502282,4281193,0,0,0,0,0,0,0,3180021,0,0,0,0,0,0,0,0,0,0,0,4111030,3180031,0,0,1150050,4061171,0,0,0,0,0,1120011,0,0,-2081011,1080171,0
7,437,1178.64791362081,0,0,521118.718741887,521119.765826258,0,0,19,1,0,32,7,1100040,6132251,5070281,4301271,1100040,0,0,0,0,0,0,0,0,0,1010070,0,3101071,0,2021110,0,0,0,0,0,0,2010120,0,0,0,0,3060161,0,0,2130131,0,-2171140,0,0,0,0
7,438,508.746279287152,0,0,521121.977616041,521123.024700028,0,0,19,1,0,24,3,4060061,0,3210211,3130141,0,0,0,0,0,0,0,0,4060061,0,0,0,0,0,0,0,0,0,0,2020070,0,0,0,-1190141,0,0,0,3130141,0,0,0,0,0,0,0,0
7,439,570.481551345438,1,0,521124.565902173,521125.612974996,0,0,19,0,1,30,3,6250072,0,1110141,2050191,0,0,3150051,0,0,0,0,0,3100021,0,0,0,0,0,0,0,0,0,0,0,1110141,0,0,0,0,0,0,0,0,-2050191,0,0,0,0,0,0
7,440,704.17554321466,1,0,521127.248298533,521128.295363657,0,0,19,1,1,35,3,4201201,0,0,5141422,0,0,0,4201201,0,0,0,0,0,0,0,0,0,0,0,0,0,0,0,0,0,0,0,0,0,0,0,0,1071151,0,0,0,2050120,0,-2020151,0
7,441,453.554598730989,0,0,521130.024804738,521131.071874095,0,0,19,0,0,9,3,6110342,3191141,0,0,0,0,0,0,4020030,1070111,0,0,-1020201,0,0,3191141,0,0,0,0,0,0,0,0,0,0,0,0,0,0,0,0,0,0,0,0,0,0,0,0
7,442,1133.4456235636,0,0,521132.671905046,521133.718975559,0,0,19,0,0,18,3,0,3051191,1130190,6362301,0,0,0,0,0,0,0,0,0,0,0,0,0,0,0,0,0,-3051191,0,0,0,0,0,0,1130190,0,0,0,0,0,2191191,0,0,4171110,0,0
7,443,838.094738021027,0,0,521135.95430541,521137.001369379,0,0,19,1,0,12,3,1040161,4160150,6152051,0,0,0,0,0,1040161,0,0,0,0,0,0,-4160150,0,0,0,0,0,0,2091030,0,0,0,0,0,4061021,0,0,0,0,0,0,0,0,0,0,0
7,444,535.935021704063,0,0,521138.954348141,521140.001416344,0,0,19,1,0,20,7,4232030,0,9412211,6341462,0,0,0,0,0,1181010,0,0,3051020,0,0,0,0,0,0,0,0,0,0,-3201010,0,0,0,0,3021150,3190051,0,0,0,0,2170171,3020161,1151130,0,0,0
7,445,1384.66826430522,0,0,521141.683805005,521142.730871669,0,0,19,0,0,5,7,7381142,5521313,4030070,3202401,0,0,0,0,-3180131,0,0,0,4201011,0,0,1190131,0,0,0,1151131,3180051,0,0,0,0,0,0,0,4030070,0,0,2161200,0,0,0,0,0,1041201,0,0
7,446,776.402581715956,1,0,521145.283852125,521146.330921483,0,0,19,1,1,11,3,3181021,3040030,4181121,1010051,0,0,0,0,0,0,0,3181021,0,0,-3040030,0,0,0,0,0,0,0,0,0,0,0,0,4181121,0,0,0,0,0,0,0,0,0,0,0,1010051
7,447,534.231947909575,0,0,521148.28389909,521149.330973838,0,0,19,1,0,29,3,1101010,1060060,0,8142192,0,1101010,0,0,0,0,0,0,0,0,0,1060060,0,0,0,0,0,0,0,0,0,0,0,0,0,0,0,0,-4031141,0,0,0,0,4111051,0,0
7,448,1077.14448129991,1,0,521150.919234177,521151.966296606,0,0,19,1,1,25,3,0,0,6151490,2140200,0,0,0,0,0,0,0,0,0,0,0,0,0,0,0,0,0,0,1030140,0,4080190,0,0,0,-1041160,0,0,0,0,0,0,2140200,0,0,0,0
7,449,622.538482653908,1,0,521154.154577887,521155.201639161,0,0,19,0,1,19,7,4161240,3110060,6151352,7201352,0,1060120,0,0,3101120,0,0,0,0,0,0,0,3110060,0,0,0,0,0,-1091010,3020181,2040161,0,0,0,0,0,0,0,4111161,0,0,0,0,0,3090191,0
7,450,1100.92823096784,0,0,521156.966387842,521158.013496081,0,0,19,1,0,1,7,7392483,4011181,0,11442352,-3181181,0,1191161,0,0,0,0,3020141,0,4011181,0,0,0,0,0,0,0,0,0,0,0,0,0,0,0,0,0,0,0,3200161,4051091,0,2170070,2021030,0,0
7,451,582.887735974509,0,0,521160.225252372,521161.272345597,0,0,19,0,0,16,3,0,4182252,0,2220151,0,0,0,0,0,0,0,0,0,0,0,0,0,0,0,-2011201,0,2171051,0,0,0,0,0,0,0,0,0,0,0,0,0,0,1170031,0,0,1050120
7,452,1308.83027805248,1,0,521163.02534099,521164.072360688,0,0,19,0,1,33,7,3160031,3190021,12333532,5270190,0,0,0,0,0,0,0,3160031,0,0,0,0,3190021,0,0,0,0,0,0,0,3141161,0,4020070,0,2101200,0,3071101,0,0,0,0,2070060,-3200130,0,0,0
7,453,604.599232843611,1,0,521166.460631883,521167.507709325,0,0,19,0,1,23,7,5351101,7191401,6311222,0,0,0,0,0,0,0,3191070,2160031,0,2060120,0,1071141,0,0,0,0,1010020,3050120,0,0,0,2121021,-4190201,0,0,0,0,0,0,0,0,0,0,0,0,0
7,454,510.487849300262,1,0,521169.154796161,521170.201868983,0,0,19,0,1,22,3,2130161,0,6071340,1141121,0,0,0,0,0,0,2130161,0,0,0,0,0,0,0,0,0,0,0,0,2061180,0,-4010160,0,0,0,0,0,0,0,0,1141121,0,0,0,0,0
7,455,703.303603222594,1,0,521171.860717576,521172.907791168,0,0,19,1,1,10,7,2191200,9361351,6141211,7181341,0,0,0,0,0,2191200,0,0,0,-4010130,3200170,0,2151051,0,0,0,0,0,0,0,0,0,0,0,2100131,4041080,0,0,0,0,3160150,0,0,0,0,4021191
7,456,597.390811075456,1,0,521174.766644689,521175.813705192,0,0,19,0,1,14,3,4041161,9352332,0,0,0,0,0,4041161,0,0,0,0,0,0,0,0,0,-2061191,0,0,3140060,4151081,0,0,0,0,0,0,0,0,0,0,0,0,0,0,0,0,0,0
7,457,511.822129192296,0,0,521198.661119169,521199.708189681,0,0,20,0,0,22,7,3273230,4131181,2180010,4231402,0,0,1061180,0,1031030,1181020,0,0,0,0,0,4131181,0,0,0,0,0,0,0,0,0,-2180010,0,0,0,0,0,0,1020180,0,0,0,0,0,2171061,1040161
7,458,618.22767322883,1,0,521201.225848679,521202.272918037,0,0,20,1,1,11,3,3181021,3040030,4181121,1010051,0,0,0,0,0,0,0,3181021,0,0,-3040030,0,0,0,0,0,0,0,0,0,0,0,0,4181121,0,0,0,0,0,0,0,0,0,0,0,1010051
7,459,645.270514884032,1,0,521203.931780873,521204.978848306,0,0,20,1,1,12,3,1040161,4160150,6152051,0,0,0,0,0,1040161,0,0,0,0,0,0,-4160150,0,0,0,0,0,0,2091030,0,0,0,0,0,4061021,0,0,0,0,0,0,0,0,0,0,0
7,460,698.970080993604,1,0,521206.731824451,521207.778889574,0,0,20,0,1,30,3,1160021,5221161,0,2021121,0,0,0,1160021,0,0,0,0,0,1090090,0,0,0,4131071,0,0,0,0,0,0,0,0,0,0,0,0,0,0,0,-2021121,0,0,0,0,0,0
7,461,875.384125043638,1,0,521209.555393083,521210.602464366,0,0,20,0,1,19,7,7261210,4282191,8512301,2170090,0,4110140,0,0,0,3151070,0,0,0,0,0,2111050,0,0,0,0,0,2171141,-3190111,0,0,1121050,0,4201140,0,0,0,0,0,0,0,0,0,2170090,0,0
7,462,1646.420782723,0,0,521212.661312035,521213.708392172,0,0,20,1,0,1,7,7392483,4011181,0,11442352,-3181181,0,1191161,0,0,0,0,3020141,0,4011181,0,0,0,0,0,0,0,0,0,0,0,0,0,0,0,0,0,0,0,3200161,4051091,0,2170070,2021030,0,0
7,463,674.529585405253,0,0,521216.414326291,521217.461383715,0,0,20,0,0,17,7,8291412,3161171,3191200,3181210,0,3140121,0,0,2031150,0,0,3120141,0,1110010,0,0,0,0,0,0,-2051161,0,3191200,0,0,0,0,0,0,0,0,0,0,0,2060050,0,0,0,0,1121160
7,464,506.528510595672,0,0,521219.320243395,521220.367316217,0,0,20,0,0,23,3,0,5351361,4121111,1191171,0,0,0,0,0,0,0,0,0,0,0,3190160,0,0,2161201,0,0,0,0,0,0,0,-4121111,0,0,0,0,0,0,0,0,0,0,0,1191171,0
7,465,712.171983032022,0,0,521222.002631286,521223.049704878,0,0,20,0,0,9,7,5390052,5230291,6260291,8382312,0,0,0,0,0,0,4200011,0,-1190041,0,0,3090171,2140120,0,0,0,0,0,0,0,0,0,2100170,0,4160121,0,0,0,0,0,4181141,0,0,4201171,0,0
7,466,530.021228652913,0,0,521224.802674094,521225.849736907,0,0,20,1,0,10,7,2191200,9361351,6141211,7181341,0,0,0,0,0,2191200,0,0,0,-4010130,3200170,0,2151051,0,0,0,0,0,0,0,0,0,0,0,2100131,4041080,0,0,0,0,3160150,0,0,0,0,4021191
7,467,870.640232868027,0,0,521227.438014955,521228.485082773,0,0,20,1,0,34,7,3180021,0,12502282,4281193,0,0,0,0,0,0,0,3180021,0,0,0,0,0,0,0,0,0,0,0,4111030,3180031,0,0,1150050,4061171,0,0,0,0,0,1120011,0,0,-2081011,1080171,0
7,468,679.580677649938,0,0,521230.438056146,521231.485120499,0,0,20,0,0,14,7,7271250,7321151,4200040,1191030,0,0,0,1130130,0,3050080,3091040,0,0,0,0,0,0,-4111010,2110041,0,1100100,0,4200040,0,0,0,0,0,0,0,0,0,0,0,0,0,0,0,0,1191030
7,469,780.297246703412,1,0,521233.226350285,521234.273398855,0,0,20,1,1,35,3,4201201,0,0,5141422,0,0,0,4201201,0,0,0,0,0,0,0,0,0,0,0,0,0,0,0,0,0,0,0,0,0,0,0,0,1071151,0,0,0,2050120,0,-2020151,0
