sub_id,Trial,RT,Resp,Error,Fix_onset,Disp_onset,q1,q2,block,repeat,tid,tloc,d_setsize,quad1,quad2,quad3,quad4,loc1,loc2,loc3,loc4,loc5,loc6,loc7,loc8,loc9,loc10,loc11,loc12,loc13,loc14,loc15,loc16,loc17,loc18,loc19,loc20,loc21,loc22,loc23,loc24,loc25,loc26,loc27,loc28,loc29,loc30,loc31,loc32,loc33,loc34,loc35,loc36
8,1,748.491073958576,1,0,347625.662036684,347626.709074294,0,NumLock20,1,0,1,3,3,3171170,0,4070090,5262032,0,0,-3171170,0,0,0,0,0,0,0,0,0,0,0,0,0,0,0,0,0,0,0,0,0,0,0,4070090,0,0,0,0,1181021,0,0,0,4081011
8,2,672.60179494042,1,0,347628.614902834,347629.661931975,0,NumLock20,1,1,1,14,7,5161200,8272462,2191090,6160151,0,0,0,4081010,0,0,1080190,0,0,0,0,0,0,-3021130,2090141,3161191,0,0,0,0,0,0,0,0,0,0,2191090,0,0,2010110,0,0,4150041,0,0,0
8,3,1679.6334918472,0,0,347631.508945794,347632.556002652,0,NumLock20,1,0,0,10,7,4091052,8281372,6211233,0,3050011,0,0,0,0,0,1041041,0,0,-4020180,0,0,0,0,1200061,3061131,0,0,0,2121131,0,1070031,0,0,3020071,0,0,0,0,0,0,0,0,0,0,0
8,4,1506.65089901304,0,0,347635.261785844,347636.308800741,0,NumLock20,1,1,0,29,7,10412543,2141160,0,7471490,0,0,1180150,3031071,0,3030131,0,0,3171191,0,0,0,0,0,0,0,2141160,0,0,0,0,0,0,0,0,0,0,4170120,-2110180,1191190,0,0,0,0,0,0
8,5,1349.49867083924,0,0,347639.002853017,347640.049878693,0,NumLock20,1,1,0,35,7,3120090,5291081,9422091,7181211,0,0,0,0,0,0,3120090,0,0,0,0,0,2181061,0,0,3110020,0,0,0,3190040,0,3091041,0,0,3141010,0,0,0,3160190,0,0,0,0,0,-4021021,0
8,6,818.207119067665,0,0,347642.485109782,347643.532127374,0,NumLock20,1,1,0,34,3,0,0,5131201,7140341,0,0,0,0,0,0,0,0,0,0,0,0,0,0,0,0,0,0,0,0,4081061,0,0,0,0,0,1050140,0,0,0,0,3050141,0,-4090200,0,0
8,7,803.473123291042,1,0,347645.543847895,347646.590868567,0,NumLock20,1,0,1,21,7,4161070,7423393,6030290,3170091,0,0,0,4161070,0,0,0,0,0,0,0,0,0,1170121,3061060,0,1151021,2041191,0,0,-4020180,0,0,0,0,2010110,0,3170091,0,0,0,0,0,0,0,0
8,8,918.832449649926,1,0,347648.602592553,347649.649617844,0,NumLock20,1,1,1,1,3,2181151,3110160,0,2161120,-2181151,0,0,0,0,0,0,0,0,0,0,0,0,3110160,0,0,0,0,0,0,0,0,0,0,0,0,0,1031110,1130010,0,0,0,0,0,0,0
8,9,935.666407574899,0,0,347651.74367574,347652.790698337,0,NumLock20,1,0,0,12,3,0,3131381,2031170,3061011,0,0,0,0,0,0,0,0,0,0,1120200,-2011181,0,0,0,0,0,0,0,0,0,0,0,0,0,0,2031170,0,0,0,3061011,0,0,0,0,0
8,10,819.044794188812,1,0,347654.767117938,347655.814143614,0,NumLock20,1,1,1,6,3,5231250,4011101,2190081,0,0,0,0,0,0,-4090090,0,0,1141160,0,0,0,0,0,0,0,0,4011101,0,0,0,0,2190081,0,0,0,0,0,0,0,0,0,0,0,0,0
8,11,1105.81414785702,0,0,347657.649390332,347658.696472212,0,NumLock20,1,1,0,33,3,2150141,3021111,0,2231260,0,0,0,0,0,0,0,2150141,0,0,3021111,0,0,0,0,0,0,0,0,0,0,0,0,0,0,0,0,1201130,0,0,0,0,-1030130,0,0,0
8,12,1111.68826714857,0,0,347660.896352027,347661.943438142,0,NumLock20,1,0,0,2,7,6220192,5412180,5240081,4070200,0,-3190041,3030151,0,0,0,0,0,0,3200060,1141040,0,0,1071080,0,0,0,0,0,0,3070041,0,0,0,2170040,0,0,4070200,0,0,0,0,0,0,0,0
8,13,765.671496745199,0,0,347664.237447457,347665.284486992,0,NumLock20,1,0,0,4,3,1190080,4280400,0,1130020,0,0,0,-1190080,0,0,0,0,0,3190200,0,0,0,0,1090200,0,0,0,0,0,0,0,0,0,0,0,0,0,0,0,0,1130020,0,0,0,0
8,14,1275.38021217333,1,0,347667.16676824,347668.213788526,0,NumLock20,1,1,1,19,7,4111110,5201151,7311310,5111151,0,0,4111110,0,0,0,0,0,0,0,0,0,0,0,0,0,1121080,4080071,-3200170,0,0,0,2091090,0,0,0,2020050,0,1101081,0,0,0,0,4010070,0,0
8,15,1316.93982763682,1,0,347670.590200274,347671.637220176,0,NumLock20,1,0,1,23,7,4101171,3060051,1151081,10401322,0,0,0,0,0,0,2021081,2080090,0,0,0,0,0,0,3060051,0,0,0,0,0,0,0,-1151081,0,0,0,0,2031180,4150071,0,0,2160011,0,0,2060060,0
8,16,1047.24195267772,0,0,347674.154809812,347675.201835873,0,NumLock20,1,1,0,15,3,0,16482414,0,0,0,0,0,0,0,0,0,0,0,0,0,4041081,4130121,0,-4141101,0,4170111,0,0,0,0,0,0,0,0,0,0,0,0,0,0,0,0,0,0,0
8,17,782.611703849398,0,1,347677.366488681,347678.413504348,0,NumLock20,1,0,1,25,3,1080130,0,7131120,1101131,0,0,0,0,0,0,0,1080130,0,0,0,0,0,0,0,0,0,0,0,0,0,4071080,0,0,-3060040,0,0,0,0,1101131,0,0,0,0,0,0
8,18,1047.59958141949,1,0,347680.272286809,347681.31936638,0,NumLock20,1,1,1,24,7,8191051,1190070,3160091,7302443,0,0,4100010,2050011,0,0,0,2041030,0,0,0,0,0,0,1190070,0,0,0,0,0,0,0,0,-3160091,0,0,0,0,0,0,0,0,1020141,4171131,0,2111171
8,19,615.589076594915,1,0,347683.566361952,347684.613351442,0,NumLock20,1,0,1,26,3,7233252,0,1180190,0,4121061,0,1041160,0,2071031,0,0,0,0,0,0,0,0,0,0,0,0,0,0,0,0,0,0,0,0,-1180190,0,0,0,0,0,0,0,0,0,0
8,20,1548.76947775483,1,0,347686.272122046,347687.319139638,0,NumLock20,1,1,1,30,3,4131020,0,5361192,3160121,0,4131020,0,0,0,0,0,0,0,0,0,0,0,0,0,0,0,0,0,0,0,0,0,0,3161081,2200111,0,0,0,-3160121,0,0,0,0,0,0
8,21,711.558304377832,1,0,347689.907307246,347690.954331383,0,NumLock20,1,1,1,36,7,8121332,4160101,10211591,4201291,4091171,0,0,0,4030161,0,0,0,0,0,4160101,0,0,0,0,0,0,0,4020200,2151201,0,0,4040190,0,0,0,0,2111191,0,0,0,0,0,0,0,-2090100
8,22,726.160643564072,0,0,347692.836635728,347693.883665639,0,NumLock20,1,0,0,8,7,8282222,0,4291171,11062242,0,0,0,0,0,0,0,-4181041,4101181,0,0,0,0,0,0,0,0,0,0,1181030,3110141,0,0,0,0,0,0,3031081,0,3010011,0,1010130,0,0,4011020,0
8,23,784.333249204792,0,0,347695.730677533,347696.777701285,0,NumLock20,1,0,0,9,3,10292282,0,4180061,0,0,0,0,2081010,0,0,4111181,0,-4100091,0,0,0,0,0,0,0,0,0,0,0,0,0,4180061,0,0,0,0,0,0,0,0,0,0,0,0,0
8,24,793.736305669881,1,0,347698.648241608,347699.695267669,0,NumLock20,1,0,1,17,7,7311100,3091280,5280260,6090332,0,0,0,3111070,0,0,4200030,0,0,0,0,0,0,0,0,1061130,-2030150,0,2110130,0,0,3170130,0,0,0,0,0,0,2050171,0,4040161,0,0,0,0,0
8,25,957.378975697793,0,0,347707.424460722,347708.471489093,0,NumLock20,2,1,0,36,7,8121332,4160101,10211591,4201291,4091171,0,0,0,4030161,0,0,0,0,0,4160101,0,0,0,0,0,0,0,4020200,2151201,0,0,4040190,0,0,0,0,2111191,0,0,0,0,0,0,0,-2090100
8,26,771.06172015192,0,0,347710.565555844,347711.61257459,0,NumLock20,2,1,0,29,7,10412543,2141160,0,7471490,0,0,1180150,3031071,0,3030131,0,0,3171191,0,0,0,0,0,0,0,2141160,0,0,0,0,0,0,0,0,0,0,4170120,-2110180,1191190,0,0,0,0,0,0
8,27,547.167270269711,0,0,347713.412531167,347714.459558383,0,NumLock20,2,1,0,33,3,2150141,3021111,0,2231260,0,0,0,0,0,0,0,2150141,0,0,3021111,0,0,0,0,0,0,0,0,0,0,0,0,0,0,0,0,1201130,0,0,0,0,-1030130,0,0,0
8,28,622.422518616077,0,0,347716.071280983,347717.118305119,0,NumLock20,2,0,0,17,3,5342182,4180141,0,4091020,0,2141011,3201171,0,0,0,0,0,0,0,0,0,0,0,0,0,-4180141,0,0,0,0,0,0,0,0,0,0,0,0,0,4091020,0,0,0,0,0
8,29,930.866329348646,1,0,347718.894736346,347719.941756248,0,NumLock20,2,1,1,6,3,5231250,4011101,2190081,0,0,0,0,0,0,-4090090,0,0,1141160,0,0,0,0,0,0,0,0,4011101,0,0,0,0,2190081,0,0,0,0,0,0,0,0,0,0,0,0,0
8,30,1308.57655068394,1,0,347721.977001734,347723.024021251,0,NumLock20,2,1,1,1,3,2181151,3110160,0,2161120,-2181151,0,0,0,0,0,0,0,0,0,0,0,0,3110160,0,0,0,0,0,0,0,0,0,0,0,0,0,1031110,1130010,0,0,0,0,0,0,0
8,31,405.609040637501,1,0,347725.518073219,347726.565103129,0,NumLock20,2,1,1,15,3,0,16482414,0,0,0,0,0,0,0,0,0,0,0,0,0,4041081,4130121,0,-4141101,0,4170111,0,0,0,0,0,0,0,0,0,0,0,0,0,0,0,0,0,0,0
8,32,679.545720748138,1,0,347728.118006389,347729.165029756,0,NumLock20,2,0,1,26,3,1090010,1040020,3061081,2190130,0,0,0,0,1090010,0,0,0,0,0,0,0,0,0,0,0,0,1040020,0,0,0,0,0,0,0,-3061081,0,0,0,0,0,0,2190130,0,0,0
8,33,937.6566556748,0,0,347731.01204088,347732.059061552,0,NumLock20,2,1,0,24,7,8191051,1190070,3160091,7302443,0,0,4100010,2050011,0,0,0,2041030,0,0,0,0,0,0,1190070,0,0,0,0,0,0,0,0,-3160091,0,0,0,0,0,0,0,0,1020141,4171131,0,2111171
8,34,631.036020116881,0,0,347734.14137121,347735.188390342,0,NumLock20,2,0,0,12,3,0,7131331,0,3131381,0,0,0,0,0,0,0,0,0,0,0,-4101150,0,3030181,0,0,0,0,0,0,0,0,0,0,0,0,0,0,0,0,0,1101191,0,2030190,0,0
8,35,560.513096803334,1,0,347737.011871883,347738.058896019,0,NumLock20,2,0,1,4,7,3031010,4100120,9282301,8450222,0,0,0,-3031010,0,0,0,0,0,0,0,0,0,0,0,0,0,4100120,0,0,2011071,0,0,0,4091140,3180090,0,0,0,0,3200031,2060031,0,0,3190160,0
8,36,1554.34563732706,0,0,347739.741210065,347740.788229582,0,NumLock20,2,0,0,25,3,2080150,0,2160191,5230322,0,0,0,0,2080150,0,0,0,0,0,0,0,0,0,0,0,0,0,0,0,0,0,0,0,-2160191,0,0,4090121,0,0,0,0,0,0,0,1140201
8,37,666.79850849323,0,0,347743.364693223,347744.411661155,0,NumLock20,2,0,0,10,7,4211032,4150091,13504572,4080040,0,0,2030011,0,0,0,2181021,0,0,-4150091,0,0,0,0,0,0,0,0,0,0,3201081,4011160,0,0,4151190,2141141,0,0,0,0,0,4080040,0,0,0,0
8,38,717.804680927657,0,0,347746.117499011,347747.164515063,0,NumLock20,2,1,0,34,3,0,0,5131201,7140341,0,0,0,0,0,0,0,0,0,0,0,0,0,0,0,0,0,0,0,0,4081061,0,0,0,0,0,1050140,0,0,0,0,3050141,0,-4090200,0,0
8,39,1699.58409370156,1,0,347748.99977333,347750.046794771,0,NumLock20,2,0,1,21,7,10491331,5251101,8242120,4090131,0,0,0,3190191,0,3200040,0,4101100,0,0,0,0,0,0,4131090,0,0,1120011,0,0,-4131080,0,0,0,4111040,0,0,0,0,4090131,0,0,0,0,0,0
8,40,896.735690534115,1,0,347752.752667274,347753.799634436,0,NumLock20,2,1,1,35,7,3120090,5291081,9422091,7181211,0,0,0,0,0,0,3120090,0,0,0,0,0,2181061,0,0,3110020,0,0,0,3190040,0,3091041,0,0,3141010,0,0,0,3160190,0,0,0,0,0,-4021021,0
8,41,1442.14183592703,1,0,347755.776052882,347756.823077018,0,NumLock20,2,1,1,14,7,5161200,8272462,2191090,6160151,0,0,0,4081010,0,0,1080190,0,0,0,0,0,0,-3021130,2090141,3161191,0,0,0,0,0,0,0,0,0,0,2191090,0,0,2010110,0,0,4150041,0,0,0
8,42,663.159087533131,1,0,347759.270070589,347760.317099344,0,NumLock20,2,0,1,23,3,4200181,2010091,4230141,0,4200181,0,0,0,0,0,0,0,0,0,0,0,0,2010091,0,0,0,0,0,0,0,3160060,-1070081,0,0,0,0,0,0,0,0,0,0,0,0,0
8,43,961.73557889415,1,0,347762.046462935,347763.093499005,0,NumLock20,2,0,1,3,3,4071111,4222181,3191150,0,0,0,-4071111,0,0,0,0,0,0,0,2041121,2181060,0,0,0,0,0,0,0,0,0,0,3191150,0,0,0,0,0,0,0,0,0,0,0,0,0
8,44,569.086177449208,1,0,347765.152265605,347766.199287047,0,NumLock20,2,0,1,9,7,3142182,9342272,4252182,1021190,0,0,0,0,0,0,0,2031071,-1111111,3010030,0,0,0,0,2201081,0,0,4131161,0,0,0,3181041,1071141,0,0,0,0,0,0,0,0,0,0,1021190,0,0
8,45,651.941710035317,1,0,347767.79924524,347768.846269761,0,NumLock20,2,0,1,8,7,7211351,3061062,3130060,8271321,0,4011180,0,0,0,0,0,-3200171,0,0,0,0,1041011,0,0,2020051,0,0,0,0,0,0,3130060,0,0,0,0,1050200,0,0,4190111,0,0,3031010,0,0
8,46,908.097428327892,0,0,347770.610936966,347771.657956483,0,NumLock20,2,1,0,30,3,4131020,0,5361192,3160121,0,4131020,0,0,0,0,0,0,0,0,0,0,0,0,0,0,0,0,0,0,0,0,0,0,3161081,2200111,0,0,0,-3160121,0,0,0,0,0,0
8,47,962.251811521128,0,0,347773.763786486,347774.810798303,0,NumLock20,2,1,0,19,7,4111110,5201151,7311310,5111151,0,0,4111110,0,0,0,0,0,0,0,0,0,0,0,0,0,1121080,4080071,-3200170,0,0,0,2091090,0,0,0,2020050,0,1101081,0,0,0,0,4010070,0,0
8,48,1272.52572664293,0,0,347776.975456116,347778.022486796,0,NumLock20,2,0,0,2,7,5342383,3110161,2200191,4240150,0,-1131121,0,0,1090181,3121081,0,0,0,0,0,0,3110161,0,0,0,0,0,0,0,1170010,0,0,0,0,1030181,0,3170030,1070120,0,0,0,0,0,0,0
8,49,1393.83077510865,1,0,347787.822212781,347788.869245771,0,NumLock20,3,1,1,29,7,10412543,2141160,0,7471490,0,0,1180150,3031071,0,3030131,0,0,3171191,0,0,0,0,0,0,0,2141160,0,0,0,0,0,0,0,0,0,0,4170120,-2110180,1191190,0,0,0,0,0,0
8,50,601.354760117829,0,0,347791.398584416,347792.445609707,0,NumLock20,3,1,0,1,3,2181151,3110160,0,2161120,-2181151,0,0,0,0,0,0,0,0,0,0,0,0,3110160,0,0,0,0,0,0,0,0,0,0,0,0,0,1031110,1130010,0,0,0,0,0,0,0
8,51,1959.55285022501,0,0,347794.057332692,347795.104358369,0,NumLock20,3,0,0,17,7,5051361,4161351,5320341,5251300,0,4030171,0,0,0,1021190,0,0,0,0,0,0,0,2061191,0,0,-2100160,0,0,0,3170170,2150171,0,0,0,0,0,4051140,0,0,0,1200160,0,0,0,0
8,52,831.499821098987,1,0,347798.245450025,347799.292476087,0,NumLock20,3,1,1,35,7,3120090,5291081,9422091,7181211,0,0,0,0,0,0,3120090,0,0,0,0,0,2181061,0,0,3110020,0,0,0,3190040,0,3091041,0,0,3141010,0,0,0,3160190,0,0,0,0,0,-4021021,0
8,53,989.765741338488,1,0,347801.210077888,347802.257107413,0,NumLock20,3,0,1,12,7,0,10394421,4181101,7221532,0,0,0,0,0,0,0,0,0,0,2011081,-3201120,0,0,1131180,0,4051040,0,0,0,0,0,0,4181101,0,0,0,3041140,0,0,3140201,0,0,0,1040191,0
8,54,560.585469473153,1,0,347804.292343275,347805.339370491,0,NumLock20,3,1,1,34,3,0,0,5131201,7140341,0,0,0,0,0,0,0,0,0,0,0,0,0,0,0,0,0,0,0,0,4081061,0,0,0,0,0,1050140,0,0,0,0,3050141,0,-4090200,0,0
8,55,568.444832460955,0,0,347807.092265975,347808.139290881,0,NumLock20,3,1,0,33,3,2150141,3021111,0,2231260,0,0,0,0,0,0,0,2150141,0,0,3021111,0,0,0,0,0,0,0,0,0,0,0,0,0,0,0,0,1201130,0,0,0,0,-1030130,0,0,0
8,56,550.663100730162,0,0,347809.798119999,347810.845090241,0,NumLock20,3,0,0,21,7,9461630,3130181,1080101,7202171,2040200,3120200,0,0,2180160,0,0,2121070,0,0,3130181,0,0,0,0,0,0,0,0,0,-1080101,0,0,0,0,0,0,0,4051121,0,0,0,0,0,0,3151050
8,57,521.282880159561,0,0,347812.57446153,347813.621479122,0,NumLock20,3,0,0,25,3,0,7321481,3030110,0,0,0,0,0,0,0,0,0,0,1110191,0,0,0,3011170,3200120,0,0,0,0,0,0,0,0,0,-3030110,0,0,0,0,0,0,0,0,0,0,0
8,58,1095.78783961479,0,0,347815.350928174,347816.397951155,0,NumLock20,3,0,0,4,7,11572380,0,6030271,7221161,0,2120050,0,-4061140,0,0,2200180,3191010,0,0,0,0,0,0,0,0,0,0,0,2010190,0,0,0,4020081,0,0,0,4101061,0,0,0,0,0,0,3120100,0
8,59,1677.68327961676,1,0,347818.58605463,347819.63308685,0,NumLock20,3,1,1,6,3,5231250,4011101,2190081,0,0,0,0,0,0,-4090090,0,0,1141160,0,0,0,0,0,0,0,0,4011101,0,0,0,0,2190081,0,0,0,0,0,0,0,0,0,0,0,0,0
8,60,1038.41133322567,1,0,347822.327126808,347823.374154024,0,NumLock20,3,1,1,15,3,0,16482414,0,0,0,0,0,0,0,0,0,0,0,0,0,4041081,4130121,0,-4141101,0,4170111,0,0,0,0,0,0,0,0,0,0,0,0,0,0,0,0,0,0,0
8,61,663.774255139288,0,0,347825.491744584,347826.538768335,0,NumLock20,3,0,0,2,7,7382061,15540521,0,4071010,0,-3091020,0,0,1111021,3180020,0,0,0,0,0,4160070,0,4170110,0,4010151,0,3200190,0,0,0,0,0,0,0,0,0,0,0,0,4071010,0,0,0,0,0
8,62,521.60509256646,1,0,347828.32695935,347829.373983871,0,NumLock20,3,0,1,3,3,1200060,3130160,4151020,2110060,0,0,-1200060,0,0,0,0,0,0,0,0,0,0,0,0,3130160,0,0,0,0,0,0,0,4151020,0,0,0,0,2110060,0,0,0,0,0,0,0
8,63,571.660411369521,0,0,347831.032771028,347832.079799399,0,NumLock20,3,0,0,10,3,3301171,3040180,1061071,0,1200020,0,0,0,0,2101151,0,0,0,-3040180,0,0,0,0,0,0,0,0,0,0,1061071,0,0,0,0,0,0,0,0,0,0,0,0,0,0,0
8,64,591.797719243914,1,0,347833.78563302,347834.832648303,0,NumLock20,3,0,1,9,3,7130271,2201141,0,3170190,0,0,0,0,0,0,0,3040200,-4090071,0,0,0,2201141,0,0,0,0,0,0,0,0,0,0,0,0,0,0,0,0,0,0,0,0,0,0,3170190
8,65,1212.10610383423,0,0,347836.597316663,347837.644338104,0,NumLock20,3,0,0,26,7,5240391,0,13923454,0,2100091,0,2080130,1060170,0,0,0,0,0,0,0,0,0,0,0,0,0,0,4201061,0,2201031,1180151,0,0,4141071,-2200140,0,0,0,0,0,0,0,0,0,0
8,66,625.067970366217,1,0,347839.985452012,347841.032480768,0,NumLock20,3,1,1,36,7,8121332,4160101,10211591,4201291,4091171,0,0,0,4030161,0,0,0,0,0,4160101,0,0,0,0,0,0,0,4020200,2151201,0,0,4040190,0,0,0,0,2111191,0,0,0,0,0,0,0,-2090100
8,67,963.404384616297,1,0,347842.797144508,347843.844164025,0,NumLock20,3,1,1,19,7,4111110,5201151,7311310,5111151,0,0,4111110,0,0,0,0,0,0,0,0,0,0,0,0,0,1121080,4080071,-3200170,0,0,0,2091090,0,0,0,2020050,0,1101081,0,0,0,0,4010070,0,0
8,68,598.059109295718,0,0,347845.985293408,347847.03231177,0,NumLock20,3,1,0,14,7,5161200,8272462,2191090,6160151,0,0,0,4081010,0,0,1080190,0,0,0,0,0,0,-3021130,2090141,3161191,0,0,0,0,0,0,0,0,0,0,2191090,0,0,2010110,0,0,4150041,0,0,0
8,69,593.666319793556,0,0,347848.761737724,347849.808727213,0,NumLock20,3,0,0,23,3,1160121,1170111,4301162,0,0,1160121,0,0,0,0,0,0,0,0,0,0,0,0,0,0,0,1170111,0,0,0,0,-3200091,0,1101071,0,0,0,0,0,0,0,0,0,0,0
8,70,821.293351124041,1,0,347851.443955915,347852.49098929,0,NumLock20,3,1,1,30,3,4131020,0,5361192,3160121,0,4131020,0,0,0,0,0,0,0,0,0,0,0,0,0,0,0,0,0,0,0,0,0,0,3161081,2200111,0,0,0,-3160121,0,0,0,0,0,0
8,71,1021.33792964742,1,0,347854.337995795,347855.385022241,0,NumLock20,3,0,1,8,3,3141361,3010011,0,4150030,0,2130201,0,0,0,0,0,-1011160,0,0,3010011,0,0,0,0,0,0,0,0,0,0,0,0,0,0,0,0,0,0,0,0,0,4150030,0,0,0
8,72,1427.5144742569,1,0,347857.596728827,347858.643753349,0,NumLock20,3,1,1,24,7,8191051,1190070,3160091,7302443,0,0,4100010,2050011,0,0,0,2041030,0,0,0,0,0,0,1190070,0,0,0,0,0,0,0,0,-3160091,0,0,0,0,0,0,0,0,1020141,4171131,0,2111171
8,73,693.132917862386,1,0,347864.772993212,347865.820016964,0,NumLock20,4,1,1,35,7,3120090,5291081,9422091,7181211,0,0,0,0,0,0,3120090,0,0,0,0,0,2181061,0,0,3110020,0,0,0,3190040,0,3091041,0,0,3141010,0,0,0,3160190,0,0,0,0,0,-4021021,0
8,74,1526.27235918771,1,0,347867.667029243,347868.714054149,0,NumLock20,4,0,1,26,7,8371142,3140251,6311322,4161190,4201091,0,0,0,0,0,0,0,4170051,0,0,0,1020160,2120091,0,0,0,0,0,0,0,0,0,0,4060101,-1140060,1111161,0,0,0,0,0,0,0,0,4161190
8,75,696.735767531209,0,1,347871.396382824,347872.443361535,0,NumLock20,4,1,1,19,7,4111110,5201151,7311310,5111151,0,0,4111110,0,0,0,0,0,0,0,0,0,0,0,0,0,1121080,4080071,-3200170,0,0,0,2091090,0,0,0,2020050,0,1101081,0,0,0,0,4010070,0,0
8,76,996.789739001542,0,0,347874.290377279,347875.337455695,0,NumLock20,4,0,0,4,3,6201222,0,2230371,0,0,0,0,-4101141,2100081,0,0,0,0,0,0,0,0,0,0,0,0,0,0,0,1200181,0,1030190,0,0,0,0,0,0,0,0,0,0,0,0,0
8,77,608.046536508482,1,0,347877.45499544,347878.502017267,0,NumLock20,4,0,1,8,3,4070040,4211311,1150030,0,0,0,0,0,0,0,0,-4070040,0,0,0,0,0,0,0,2170171,2041140,0,0,0,0,1150030,0,0,0,0,0,0,0,0,0,0,0,0,0,0
8,78,507.070121529978,1,0,347880.196099185,347881.243120242,0,NumLock20,4,0,1,17,3,7301081,3080051,2060100,0,0,3170010,0,0,0,0,0,4131071,0,0,0,0,0,0,0,0,-3080051,0,0,0,0,0,0,0,2060100,0,0,0,0,0,0,0,0,0,0,0
8,79,784.012961725239,1,0,347882.901903165,347883.948927686,0,NumLock20,4,1,1,34,3,0,0,5131201,7140341,0,0,0,0,0,0,0,0,0,0,0,0,0,0,0,0,0,0,0,0,4081061,0,0,0,0,0,1050140,0,0,0,0,3050141,0,-4090200,0,0
8,80,632.068100443576,1,1,347885.795936116,347886.842964487,0,NumLock20,4,1,0,15,3,0,16482414,0,0,0,0,0,0,0,0,0,0,0,0,0,4041081,4130121,0,-4141101,0,4170111,0,0,0,0,0,0,0,0,0,0,0,0,0,0,0,0,0,0,0
8,81,698.385325202253,0,0,347888.56056213,347889.607592811,0,NumLock20,4,1,0,1,3,2181151,3110160,0,2161120,-2181151,0,0,0,0,0,0,0,0,0,0,0,0,3110160,0,0,0,0,0,0,0,0,0,0,0,0,0,1031110,1130010,0,0,0,0,0,0,0
8,82,1298.65495191189,0,0,347891.325193534,347892.372224214,0,NumLock20,4,0,0,3,3,2141091,2141190,2031190,3021181,0,0,-2141091,0,0,0,0,0,0,0,0,0,2141190,0,0,0,0,0,0,0,0,0,0,0,0,0,2031190,0,0,0,0,0,0,3021181,0,0
8,83,1078.84224306326,0,0,347894.819222404,347895.866234992,0,NumLock20,4,0,0,2,7,2181070,5151071,8221133,4191072,0,-2181070,0,0,0,0,0,0,0,0,3131061,0,2020010,0,0,0,0,0,0,0,1010011,0,4171051,0,0,0,3040071,0,0,0,0,0,0,1060021,0,3131051
8,84,963.490230904426,0,0,347897.960304052,347899.007325109,0,NumLock20,4,0,0,12,7,3340160,11713442,7321191,0,0,0,0,0,0,2170080,0,0,1170080,3200050,3161091,-4161150,0,0,0,0,1191151,0,0,4170040,0,0,0,0,3151151,0,0,0,0,0,0,0,0,0,0,0
8,85,868.993478827178,1,0,347901.030812732,347902.077829169,0,NumLock20,4,0,1,23,3,0,3111120,8311211,0,0,0,0,0,0,0,0,0,0,0,0,0,0,0,0,0,3111120,0,0,2080091,0,0,-4191050,2040070,0,0,0,0,0,0,0,0,0,0,0,0
8,86,947.882758686319,0,0,347903.971903311,347905.018916668,0,NumLock20,4,0,0,25,3,4301181,0,5262020,0,0,3100150,1201031,0,0,0,0,0,0,0,0,0,0,0,0,0,0,0,0,0,0,0,0,3181010,-2081010,0,0,0,0,0,0,0,0,0,0,0
8,87,1100.72111431509,1,0,347907.065920017,347908.113007671,0,NumLock20,4,1,1,24,7,8191051,1190070,3160091,7302443,0,0,4100010,2050011,0,0,0,2041030,0,0,0,0,0,0,1190070,0,0,0,0,0,0,0,0,-3160091,0,0,0,0,0,0,0,0,1020141,4171131,0,2111171
8,88,1514.00442328304,1,0,347910.418777158,347911.46579783,0,NumLock20,4,1,1,29,7,10412543,2141160,0,7471490,0,0,1180150,3031071,0,3030131,0,0,3171191,0,0,0,0,0,0,0,2141160,0,0,0,0,0,0,0,0,0,0,4170120,-2110180,1191190,0,0,0,0,0,0
8,89,637.553794134874,1,1,347914.101034616,347915.148076845,0,NumLock20,4,1,0,30,3,4131020,0,5361192,3160121,0,4131020,0,0,0,0,0,0,0,0,0,0,0,0,0,0,0,0,0,0,0,0,0,0,3161081,2200111,0,0,0,-3160121,0,0,0,0,0,0
8,90,1367.73542640731,1,0,347916.795061484,347917.842096015,0,NumLock20,4,1,1,14,7,5161200,8272462,2191090,6160151,0,0,0,4081010,0,0,1080190,0,0,0,0,0,0,-3021130,2090141,3161191,0,0,0,0,0,0,0,0,0,0,2191090,0,0,2010110,0,0,4150041,0,0,0
8,91,723.050543922,1,0,347920.40673481,347921.453750862,0,NumLock20,4,0,1,10,7,3251370,1091141,6412382,5242122,0,0,1090170,0,0,0,0,2161200,0,-1091141,0,0,0,0,0,0,0,0,0,0,0,4031181,0,0,0,1200080,1181121,0,0,0,0,0,0,1041081,4201041,0
8,92,903.214968449902,0,0,347923.32429696,347924.371320326,0,NumLock20,4,0,0,9,7,2160090,8281333,8311242,1201100,0,0,0,0,0,0,0,0,-2160090,1030071,2040101,4151030,0,0,0,0,0,1060131,4161141,4150101,0,0,0,0,0,0,0,0,0,0,0,0,0,0,0,1201100
8,93,775.966892659198,0,0,347926.359513188,347927.40653155,0,NumLock20,4,1,0,33,3,2150141,3021111,0,2231260,0,0,0,0,0,0,0,2150141,0,0,3021111,0,0,0,0,0,0,0,0,0,0,0,0,0,0,0,0,1201130,0,0,0,0,-1030130,0,0,0
8,94,538.182666408829,0,0,347929.359426957,347930.406442239,0,NumLock20,4,0,0,21,7,7251081,1040010,2161221,6260282,4180020,3071061,0,0,0,0,0,0,0,0,0,0,0,0,0,0,0,1040010,1081060,0,-1080161,0,0,0,0,0,0,0,0,0,4070080,0,1180071,1010131,0,0
8,95,1063.76370723592,0,0,347932.135820843,347933.182893869,0,NumLock20,4,1,0,6,3,5231250,4011101,2190081,0,0,0,0,0,0,-4090090,0,0,1141160,0,0,0,0,0,0,0,0,4011101,0,0,0,0,2190081,0,0,0,0,0,0,0,0,0,0,0,0,0
8,96,1011.7050515255,1,0,347935.276897871,347936.323928167,0,NumLock20,4,1,1,36,7,8121332,4160101,10211591,4201291,4091171,0,0,0,4030161,0,0,0,0,0,4160101,0,0,0,0,0,0,0,4020200,2151201,0,0,4040190,0,0,0,0,2111191,0,0,0,0,0,0,0,-2090100
8,97,874.051865888759,0,0,347941.641422025,347942.688451166,0,NumLock20,5,0,0,25,3,0,3070091,1200091,3101231,0,0,0,0,0,0,0,0,0,0,0,0,0,3070091,0,0,0,0,0,0,0,0,0,0,-1200091,0,0,0,0,0,0,0,1031170,2070061,0,0
8,98,1071.98685832554,1,0,347944.68840651,347945.735420253,0,NumLock20,5,0,1,23,7,4040202,3080020,12471572,3121110,0,2020161,0,0,0,0,2020041,0,0,0,0,0,0,0,0,3080020,0,0,4190021,0,1011200,0,-3110180,0,0,4160171,0,0,0,0,0,0,0,0,3121110,0
8,99,938.153255381621,1,0,347947.841261034,347948.888281706,0,NumLock20,5,0,1,8,3,1051171,0,1151181,4142230,0,0,0,0,0,0,0,-1051171,0,0,0,0,0,0,0,0,0,0,0,0,1151181,0,0,0,0,0,0,0,3051110,0,0,0,1091120,0,0,0
8,100,942.068693286274,0,0,347950.888230121,347951.935253872,0,NumLock20,5,0,0,26,7,4130161,3110170,5212250,7432351,0,4130161,0,0,0,0,0,0,0,0,0,0,0,3110170,0,0,0,0,0,0,0,0,0,0,0,-3081080,2131170,0,0,2120160,0,1101041,0,0,1031010,3180140
8,101,997.419920109678,0,0,347954.005796814,347955.05281556,0,NumLock20,5,1,0,34,3,0,0,5131201,7140341,0,0,0,0,0,0,0,0,0,0,0,0,0,0,0,0,0,0,0,0,4081061,0,0,0,0,0,1050140,0,0,0,0,3050141,0,-4090200,0,0
8,102,1639.50477633625,1,0,347957.205696647,347958.252730407,0,NumLock20,5,0,1,4,7,12264501,0,3080011,7331302,0,4091200,1151071,-4011180,3011050,0,0,0,0,0,0,0,0,0,0,0,0,0,0,0,0,0,0,0,3080011,0,0,0,0,0,0,3160121,2010040,0,2161141,0
8,103,1139.29150794866,0,0,347961.087939784,347962.134969309,0,NumLock20,5,1,0,35,7,3120090,5291081,9422091,7181211,0,0,0,0,0,0,3120090,0,0,0,0,0,2181061,0,0,3110020,0,0,0,3190040,0,3091041,0,0,3141010,0,0,0,3160190,0,0,0,0,0,-4021021,0
8,104,799.970878695603,1,0,347964.311446963,347965.358204961,0,NumLock20,5,1,1,24,7,8191051,1190070,3160091,7302443,0,0,4100010,2050011,0,0,0,2041030,0,0,0,0,0,0,1190070,0,0,0,0,0,0,0,0,-3160091,0,0,0,0,0,0,0,0,1020141,4171131,0,2111171
8,105,802.056466927752,1,0,347967.370126177,347968.417140689,0,NumLock20,5,1,1,36,7,8121332,4160101,10211591,4201291,4091171,0,0,0,4030161,0,0,0,0,0,4160101,0,0,0,0,0,0,0,4020200,2151201,0,0,4040190,0,0,0,0,2111191,0,0,0,0,0,0,0,-2090100
8,106,2013.39195040055,0,0,347970.33474403,347971.381764317,0,NumLock20,5,0,0,9,7,4171282,0,11463590,6301262,0,0,0,0,0,0,3140131,0,-1031151,0,0,0,0,0,0,0,0,0,0,0,0,3121200,0,0,2161150,2040040,4141200,0,3141071,3160191,0,0,0,0,0,0
8,107,752.004227775615,1,0,347974.464036634,347975.511064234,0,NumLock20,5,1,1,19,7,4111110,5201151,7311310,5111151,0,0,4111110,0,0,0,0,0,0,0,0,0,0,0,0,0,1121080,4080071,-3200170,0,0,0,2091090,0,0,0,2020050,0,1101081,0,0,0,0,4010070,0,0
8,108,757.692410901655,0,0,347977.3463302,347978.393339323,0,NumLock20,5,1,0,6,3,5231250,4011101,2190081,0,0,0,0,0,0,-4090090,0,0,1141160,0,0,0,0,0,0,0,0,4011101,0,0,0,0,2190081,0,0,0,0,0,0,0,0,0,0,0,0,0
8,109,1140.9445303143,1,0,347980.205056457,347981.252077898,0,NumLock20,5,1,1,29,7,10412543,2141160,0,7471490,0,0,1180150,3031071,0,3030131,0,0,3171191,0,0,0,0,0,0,0,2141160,0,0,0,0,0,0,0,0,0,0,4170120,-2110180,1191190,0,0,0,0,0,0
8,110,875.762247422244,1,0,347983.593259944,347984.640215172,0,NumLock20,5,0,1,2,3,1031121,2070201,0,6190121,0,-1031121,0,0,0,0,0,0,0,0,0,0,0,0,2070201,0,0,0,0,0,0,0,0,0,0,0,0,0,0,4030061,0,0,0,2160060,0,0
8,111,573.155214777216,1,0,347986.557815818,347987.604838415,0,NumLock20,5,0,1,17,3,5191251,6081301,0,0,0,0,0,2130160,0,0,0,0,3061091,0,0,0,0,0,0,3041151,-3040150,0,0,0,0,0,0,0,0,0,0,0,0,0,0,0,0,0,0,0
8,112,573.860463337041,0,0,347989.240100993,347990.287112425,0,NumLock20,5,1,0,30,3,4131020,0,5361192,3160121,0,4131020,0,0,0,0,0,0,0,0,0,0,0,0,0,0,0,0,0,0,0,0,0,0,3161081,2200111,0,0,0,-3160121,0,0,0,0,0,0
8,113,631.242744158953,0,0,347991.95766399,347993.004692361,0,NumLock20,5,0,0,10,3,1191061,3080081,6191162,0,0,0,0,0,1191061,0,0,0,0,-3080081,0,0,0,0,0,0,0,0,0,0,0,0,0,0,3141091,3050071,0,0,0,0,0,0,0,0,0,0
8,114,696.56253507128,0,0,347994.722298088,347995.769319915,0,NumLock20,5,0,0,21,7,7070220,8082491,2190120,6161222,0,0,3040120,0,4030100,0,0,0,0,0,0,0,3030140,2021160,0,0,0,3031191,0,0,-2190120,0,0,0,0,0,0,0,0,0,0,3151181,0,0,3010041,0
8,115,684.067087247968,1,0,347997.592806075,347998.639827132,0,NumLock20,5,0,1,3,3,1111161,4181201,1081010,3161100,0,0,-1111161,0,0,0,0,0,0,0,0,0,0,0,0,4181201,0,0,0,0,0,0,0,0,0,0,1081010,0,0,0,0,0,0,0,3161100,0
8,116,988.778316474054,0,0,348000.475107341,348001.52209914,0,NumLock20,5,0,0,12,7,3040071,5141153,3091200,8272252,0,3040071,0,0,0,0,0,0,0,3061091,0,-1020031,0,0,0,0,0,1060031,0,0,0,0,0,3091200,0,0,0,0,0,0,0,4081091,0,2120041,2071120,0
8,117,524.70787789207,1,0,348003.663221209,348004.710238416,0,NumLock20,5,1,1,15,3,0,16482414,0,0,0,0,0,0,0,0,0,0,0,0,0,4041081,4130121,0,-4141101,0,4170111,0,0,0,0,0,0,0,0,0,0,0,0,0,0,0,0,0,0,0
8,118,786.74387477804,0,0,348006.321974875,348007.369044437,0,NumLock20,5,1,0,1,3,2181151,3110160,0,2161120,-2181151,0,0,0,0,0,0,0,0,0,0,0,0,3110160,0,0,0,0,0,0,0,0,0,0,0,0,0,1031110,1130010,0,0,0,0,0,0,0
8,119,717.59141254006,0,0,348009.310148874,348010.357139904,0,NumLock20,5,1,0,33,3,2150141,3021111,0,2231260,0,0,0,0,0,0,0,2150141,0,0,3021111,0,0,0,0,0,0,0,0,0,0,0,0,0,0,0,0,1201130,0,0,0,0,-1030130,0,0,0
8,120,895.819098455831,0,0,348012.215926984,348013.262986152,0,NumLock20,5,1,0,14,7,5161200,8272462,2191090,6160151,0,0,0,4081010,0,0,1080190,0,0,0,0,0,0,-3021130,2090141,3161191,0,0,0,0,0,0,0,0,0,0,2191090,0,0,2010110,0,0,4150041,0,0,0
8,121,688.80749650998,1,0,348018.851046357,348019.89805317,0,NumLock20,6,1,1,33,3,2150141,3021111,0,2231260,0,0,0,0,0,0,0,2150141,0,0,3021111,0,0,0,0,0,0,0,0,0,0,0,0,0,0,0,0,1201130,0,0,0,0,-1030130,0,0,0
8,122,962.791526806541,0,0,348021.603894876,348022.650918242,0,NumLock20,6,0,0,2,3,4020060,3191160,2030091,3181080,0,-4020060,0,0,0,0,0,0,0,0,0,0,0,0,3191160,0,0,0,0,0,0,0,0,2030091,0,0,0,0,0,3181080,0,0,0,0,0,0
8,123,647.620908275712,0,0,348024.63909994,348025.686122152,0,NumLock20,6,0,0,17,3,1020161,1031110,5151241,0,0,1020161,0,0,0,0,0,0,0,0,0,0,0,0,0,0,-1031110,0,0,3071180,2080061,0,0,0,0,0,0,0,0,0,0,0,0,0,0,0
8,124,658.021783514414,0,0,348027.415490747,348028.462518732,0,NumLock20,6,1,0,30,3,4131020,0,5361192,3160121,0,4131020,0,0,0,0,0,0,0,0,0,0,0,0,0,0,0,0,0,0,0,0,0,0,3161081,2200111,0,0,0,-3160121,0,0,0,0,0,0
8,125,560.064617311582,0,0,348030.215416911,348031.262439893,0,NumLock20,6,0,0,8,3,4080221,0,3160170,4020111,0,2040161,0,0,0,0,0,-2040060,0,0,0,0,0,0,0,0,0,0,3160170,0,0,0,0,0,0,0,0,4020111,0,0,0,0,0,0,0,0
8,126,976.276709232479,0,0,348033.015360014,348034.062359513,0,NumLock20,6,0,0,3,7,5160240,9430483,4141111,2121070,0,0,-1080190,0,0,0,0,4080050,0,2100081,2170180,3040131,0,0,2120091,0,0,0,0,4141111,0,0,0,0,0,0,0,0,0,0,0,0,0,0,2121070,0
8,127,1066.49654509965,0,0,348036.22701232,348037.274036072,0,NumLock20,6,1,0,35,7,3120090,5291081,9422091,7181211,0,0,0,0,0,0,3120090,0,0,0,0,0,2181061,0,0,3110020,0,0,0,3190040,0,3091041,0,0,3141010,0,0,0,3160190,0,0,0,0,0,-4021021,0
8,128,751.561137672979,0,0,348039.532811834,348040.579830581,0,NumLock20,6,0,0,26,3,0,2021010,6561261,0,0,0,0,0,0,0,0,0,0,0,0,0,0,0,0,0,0,2021010,0,0,0,0,0,0,3200080,-1181041,2180140,0,0,0,0,0,0,0,0,0
8,129,1361.84359894833,1,0,348042.438603418,348043.485626784,0,NumLock20,6,1,1,29,7,10412543,2141160,0,7471490,0,0,1180150,3031071,0,3030131,0,0,3171191,0,0,0,0,0,0,0,2141160,0,0,0,0,0,0,0,0,0,0,4170120,-2110180,1191190,0,0,0,0,0,0
8,130,1144.68288619537,1,0,348045.932656156,348046.979651035,0,NumLock20,6,0,1,4,3,5071181,1031021,0,2131200,0,0,0,-3061121,0,0,2010060,0,0,0,0,0,0,0,0,0,0,1031021,0,0,0,0,0,0,0,0,0,0,0,2131200,0,0,0,0,0,0
8,131,636.222214205191,0,0,348049.203117408,348050.250142315,0,NumLock20,6,0,0,12,7,0,7152331,9340351,6271110,0,0,0,0,0,0,0,0,0,0,3070111,-2041060,2041160,0,0,0,0,0,3030201,0,0,0,2170060,0,0,4140090,0,0,0,2081040,4190070,0,0,0,0,0
8,132,660.564065678045,0,0,348051.967742653,348053.014768329,0,NumLock20,6,0,0,23,3,0,8130251,7211271,0,0,0,0,0,0,0,0,0,0,0,4010150,0,0,0,4120101,0,0,0,0,0,4160111,0,-3051160,0,0,0,0,0,0,0,0,0,0,0,0,0
8,133,903.453259263188,1,0,348054.75590595,348055.802928162,0,NumLock20,6,0,1,21,7,0,4150031,10662462,6242331,0,0,0,0,0,0,0,0,0,4150031,0,0,0,0,0,0,0,0,1061050,0,-1131110,0,4200060,0,1120191,0,3150051,0,2101130,4141201,0,0,0,0,0,0
8,134,834.536393114831,1,0,348057.861699382,348058.908725058,0,NumLock20,6,1,1,19,7,4111110,5201151,7311310,5111151,0,0,4111110,0,0,0,0,0,0,0,0,0,0,0,0,0,1121080,4080071,-3200170,0,0,0,2091090,0,0,0,2020050,0,1101081,0,0,0,0,4010070,0,0
8,135,1402.16325508663,1,0,348060.791025169,348061.83804892,0,NumLock20,6,1,1,24,7,8191051,1190070,3160091,7302443,0,0,4100010,2050011,0,0,0,2041030,0,0,0,0,0,0,1190070,0,0,0,0,0,0,0,0,-3160091,0,0,0,0,0,0,0,0,1020141,4171131,0,2111171
8,136,690.529811894521,1,0,348064.296811902,348065.343837963,0,NumLock20,6,1,1,34,3,0,0,5131201,7140341,0,0,0,0,0,0,0,0,0,0,0,0,0,0,0,0,0,0,0,0,4081061,0,0,0,0,0,1050140,0,0,0,0,3050141,0,-4090200,0,0
8,137,1351.66677093366,0,0,348067.155569725,348068.202581928,0,NumLock20,6,1,0,14,7,5161200,8272462,2191090,6160151,0,0,0,4081010,0,0,1080190,0,0,0,0,0,0,-3021130,2090141,3161191,0,0,0,0,0,0,0,0,0,0,2191090,0,0,2010110,0,0,4150041,0,0,0
8,138,814.687421079725,1,0,348070.649577808,348071.696600789,0,NumLock20,6,0,1,10,7,9463450,2192280,0,5240121,0,3140090,0,1121150,0,3171020,0,2031190,0,-1011170,0,0,1181110,0,0,0,0,0,0,0,0,0,0,0,0,0,0,0,0,0,0,4040101,0,1200020,0,0
8,139,945.413234177977,1,0,348073.590671082,348074.637695603,0,NumLock20,6,0,1,25,7,2081011,10301453,8300462,0,0,0,2081011,0,0,0,0,0,0,0,0,4040081,1131101,4100071,1030200,0,0,0,0,0,4150201,0,0,2050161,-2100100,0,0,0,0,0,0,0,0,0,0,0
8,140,476.001077215187,1,0,348076.719995252,348077.767017463,0,NumLock20,6,1,1,15,3,0,16482414,0,0,0,0,0,0,0,0,0,0,0,0,0,4041081,4130121,0,-4141101,0,4170111,0,0,0,0,0,0,0,0,0,0,0,0,0,0,0,0,0,0,0
8,141,564.628329535481,1,0,348079.296452348,348080.343412196,0,NumLock20,6,0,1,9,7,8261131,5222171,8221151,2212151,0,0,0,0,0,4140101,0,0,-4121030,0,0,0,0,0,3071060,0,0,2151111,0,0,0,0,4051081,4170070,0,0,0,1191071,1021080,0,0,0,0,0,0,0
8,142,754.129212233238,0,0,348082.119848043,348083.16686679,0,NumLock20,6,1,0,6,3,5231250,4011101,2190081,0,0,0,0,0,0,-4090090,0,0,1141160,0,0,0,0,0,0,0,0,4011101,0,0,0,0,2190081,0,0,0,0,0,0,0,0,0,0,0,0,0
8,143,1681.52249528794,0,0,348085.025640781,348086.072664918,0,NumLock20,6,1,0,36,7,8121332,4160101,10211591,4201291,4091171,0,0,0,4030161,0,0,0,0,0,4160101,0,0,0,0,0,0,0,4020200,2151201,0,0,4040190,0,0,0,0,2111191,0,0,0,0,0,0,0,-2090100
8,144,637.467947846744,1,0,348088.778475441,348089.825501887,0,NumLock20,6,1,1,1,3,2181151,3110160,0,2161120,-2181151,0,0,0,0,0,0,0,0,0,0,0,0,3110160,0,0,0,0,0,0,0,0,0,0,0,0,0,1031110,1130010,0,0,0,0,0,0,0
8,145,1380.68281841697,1,0,348095.131322189,348096.178285117,0,NumLock20,7,0,1,21,7,10270352,1040030,7230181,3161051,0,0,4040041,3020081,0,0,0,2060180,1150050,0,0,1040030,0,0,0,0,0,0,0,0,-3110101,0,0,0,0,4120080,0,0,0,0,3161051,0,0,0,0,0
8,146,588.601773430128,1,0,348098.719379314,348099.766400756,0,NumLock20,7,1,1,30,3,4131020,0,5361192,3160121,0,4131020,0,0,0,0,0,0,0,0,0,0,0,0,0,0,0,0,0,0,0,0,0,0,3161081,2200111,0,0,0,-3160121,0,0,0,0,0,0
8,147,607.280464144424,1,0,348101.554595235,348102.601617447,0,NumLock20,7,1,1,33,3,2150141,3021111,0,2231260,0,0,0,0,0,0,0,2150141,0,0,3021111,0,0,0,0,0,0,0,0,0,0,0,0,0,0,0,0,1201130,0,0,0,0,-1030130,0,0,0
8,148,589.288158749696,1,0,348104.354509851,348105.401534757,0,NumLock20,7,0,1,25,7,6201212,0,11462421,5202151,0,4180051,0,2021161,0,0,0,0,0,0,0,0,0,0,0,0,0,0,0,0,0,4171150,1120060,2110080,-4061131,0,0,0,4181020,0,0,0,0,1021131,0,0
8,149,689.700605929829,1,0,348107.025051791,348108.072062454,0,NumLock20,7,1,1,1,3,2181151,3110160,0,2161120,-2181151,0,0,0,0,0,0,0,0,0,0,0,0,3110160,0,0,0,0,0,0,0,0,0,0,0,0,0,1031110,1130010,0,0,0,0,0,0,0
8,150,558.165219961666,1,1,348109.789654708,348110.836675764,0,NumLock20,7,1,0,34,3,0,0,5131201,7140341,0,0,0,0,0,0,0,0,0,0,0,0,0,0,0,0,0,0,0,0,4081061,0,0,0,0,0,1050140,0,0,0,0,3050141,0,-4090200,0,0
8,151,1229.47746719001,1,0,348112.554278027,348113.601302548,0,NumLock20,7,0,1,12,7,4130180,9463342,7271321,3020121,0,0,0,0,0,0,0,0,4130180,0,0,-4181071,1131170,0,4151101,0,0,0,0,2070061,0,0,0,0,2150080,0,3051180,0,0,0,0,0,0,0,0,3020121
8,152,793.006804655306,1,0,348115.871833094,348116.918853381,0,NumLock20,7,0,1,3,7,7191201,4081161,7332312,2161011,0,0,-4110050,0,2021141,0,0,0,1060010,0,0,0,0,0,0,0,4081161,0,3171051,0,0,3100181,0,0,0,0,1061080,0,0,0,0,0,0,0,0,2161011
8,153,654.691871197429,0,0,348118.754105873,348119.801129624,0,NumLock20,7,0,0,4,3,3120060,1120131,2101040,1180171,0,0,0,-3120060,0,0,0,0,0,0,0,0,0,0,0,0,1120131,0,2101040,0,0,0,0,0,0,0,0,0,0,0,0,1180171,0,0,0,0
8,154,1178.08440892259,0,0,348121.624615784,348122.671638381,0,NumLock20,7,0,0,8,3,7092141,1130011,0,3071071,0,0,0,4021040,0,0,0,-3071101,0,0,0,0,0,0,1130011,0,0,0,0,0,0,0,0,0,0,0,0,0,0,0,0,3071071,0,0,0,0
8,155,1282.84922474995,0,0,348124.859818077,348125.906871471,0,NumLock20,7,1,0,19,7,4111110,5201151,7311310,5111151,0,0,4111110,0,0,0,0,0,0,0,0,0,0,0,0,0,1121080,4080071,-3200170,0,0,0,2091090,0,0,0,2020050,0,1101081,0,0,0,0,4010070,0,0
8,156,2143.6323277303,0,0,348128.353838479,348129.400866465,0,NumLock20,7,0,0,9,7,7322300,8401372,0,6330332,0,3021180,2100030,0,0,0,0,0,-2201090,0,0,0,3060121,0,1151180,0,4190071,0,0,0,0,0,0,0,0,0,0,0,0,0,4150171,0,0,2180161,0,0
8,157,2818.62287694821,0,0,348132.636070683,348133.683094819,0,NumLock20,7,1,0,36,7,8121332,4160101,10211591,4201291,4091171,0,0,0,4030161,0,0,0,0,0,4160101,0,0,0,0,0,0,0,4020200,2151201,0,0,4040190,0,0,0,0,2111191,0,0,0,0,0,0,0,-2090100
8,158,1179.15075080236,0,0,348137.518287642,348138.565308314,0,NumLock20,7,1,0,29,7,10412543,2141160,0,7471490,0,0,1180150,3031071,0,3030131,0,0,3171191,0,0,0,0,0,0,0,2141160,0,0,0,0,0,0,0,0,0,0,4170120,-2110180,1191190,0,0,0,0,0,0
8,159,1440.62277994817,0,0,348140.94173392,348141.988751897,0,NumLock20,7,1,0,6,3,5231250,4011101,2190081,0,0,0,0,0,0,-4090090,0,0,1141160,0,0,0,0,0,0,0,0,4011101,0,0,0,0,2190081,0,0,0,0,0,0,0,0,0,0,0,0,0
8,160,827.556665928569,0,0,348144.482807715,348145.529818763,0,NumLock20,7,0,0,2,3,4200241,2121201,0,0,0,-2010080,2190161,0,0,0,0,0,0,0,0,0,0,0,1030191,1091010,0,0,0,0,0,0,0,0,0,0,0,0,0,0,0,0,0,0,0,0
8,161,526.635377435014,0,0,348147.529771797,348148.576796319,0,NumLock20,7,0,0,26,3,0,0,3130101,7222323,0,0,0,0,0,0,0,0,0,0,0,0,0,0,0,0,0,0,0,0,0,0,0,0,0,-3130101,0,0,1151021,0,4060141,0,0,2011161,0,0
8,162,548.904214112554,1,0,348150.188522768,348151.235600414,0,NumLock20,7,1,1,15,3,0,16482414,0,0,0,0,0,0,0,0,0,0,0,0,0,4041081,4130121,0,-4141101,0,4170111,0,0,0,0,0,0,0,0,0,0,0,0,0,0,0,0,0,0,0
8,163,1293.32824709127,1,0,348152.953141853,348154.000172149,0,NumLock20,7,1,1,24,7,8191051,1190070,3160091,7302443,0,0,4100010,2050011,0,0,0,2041030,0,0,0,0,0,0,1190070,0,0,0,0,0,0,0,0,-3160091,0,0,0,0,0,0,0,0,1020141,4171131,0,2111171
8,164,546.460096957162,1,0,348156.411874038,348157.458899715,0,NumLock20,7,0,1,17,3,4030091,3090252,0,1041100,0,0,0,0,4030091,0,0,0,0,0,0,0,0,2050081,0,0,-1040171,0,0,0,0,0,0,0,0,0,0,0,0,0,0,1041100,0,0,0,0
8,165,681.639138434548,0,0,348159.023574311,348160.070592673,0,NumLock20,7,0,0,10,7,5351270,4272192,6181102,2210220,0,0,2180120,0,0,0,3171150,0,0,-2091081,0,0,0,0,2181111,0,0,0,0,0,0,0,4040011,0,2141091,0,0,1030050,0,0,0,0,0,0,0,1180170
8,166,1430.892891658,0,0,348161.882307112,348162.929330093,0,NumLock20,7,1,0,35,7,3120090,5291081,9422091,7181211,0,0,0,0,0,0,3120090,0,0,0,0,0,2181061,0,0,3110020,0,0,0,3190040,0,3091041,0,0,3141010,0,0,0,3160190,0,0,0,0,0,-4021021,0
8,167,1330.68177907262,0,0,348165.564602295,348166.611587935,0,NumLock20,7,1,0,14,7,5161200,8272462,2191090,6160151,0,0,0,4081010,0,0,1080190,0,0,0,0,0,0,-3021130,2090141,3161191,0,0,0,0,0,0,0,0,0,0,2191090,0,0,2010110,0,0,4150041,0,0,0
8,168,731.717940012459,1,0,348169.070342063,348170.117422019,0,NumLock20,7,0,1,23,3,0,0,7182130,5202250,0,0,0,0,0,0,0,0,0,0,0,0,0,0,0,0,0,0,0,0,0,0,-4121030,3061100,0,0,0,0,0,0,0,0,2031070,0,0,3171180
8,169,574.469856510405,1,0,348175.59956368,348176.64659359,0,NumLock20,8,1,1,34,3,0,0,5131201,7140341,0,0,0,0,0,0,0,0,0,0,0,0,0,0,0,0,0,0,0,0,4081061,0,0,0,0,0,1050140,0,0,0,0,3050141,0,-4090200,0,0
8,170,635.404942091554,0,0,348178.375959106,348179.422986706,0,NumLock20,8,0,0,4,3,2322132,0,2171050,2110181,0,0,0,-1161111,0,0,1161021,0,0,0,0,0,0,0,0,0,0,0,2171050,0,0,0,0,0,0,0,0,0,0,0,2110181,0,0,0,0,0
8,171,552.27801197907,0,0,348181.222942513,348182.269966264,0,NumLock20,8,0,0,10,3,0,4041051,4231362,0,0,0,0,0,0,0,0,0,0,-4041051,0,0,0,0,0,0,0,0,1111121,0,0,1050160,0,0,0,0,2070081,0,0,0,0,0,0,0,0,0
8,172,867.924827267416,0,0,348183.85816467,348184.905176873,0,NumLock20,8,0,0,26,3,1170120,4010081,5210261,0,0,0,0,0,0,0,0,1170120,0,0,0,0,4010081,0,0,0,0,0,0,0,2110150,0,0,0,0,-3100111,0,0,0,0,0,0,0,0,0,0
8,173,626.799139776267,0,0,348186.799263718,348187.846273226,0,NumLock20,8,1,0,1,3,2181151,3110160,0,2161120,-2181151,0,0,0,0,0,0,0,0,0,0,0,0,3110160,0,0,0,0,0,0,0,0,0,0,0,0,0,1031110,1130010,0,0,0,0,0,0,0
8,174,582.574054657016,0,0,348189.587406998,348190.634438448,0,NumLock20,8,1,0,30,3,4131020,0,5361192,3160121,0,4131020,0,0,0,0,0,0,0,0,0,0,0,0,0,0,0,0,0,0,0,0,0,0,3161081,2200111,0,0,0,-3160121,0,0,0,0,0,0
8,175,914.871971297544,0,0,348192.304983853,348193.352001445,0,NumLock20,8,0,0,17,7,0,4172230,7341421,5161350,0,0,0,0,0,0,0,0,0,0,0,1021070,0,0,1011040,0,-2140120,0,2070160,0,0,0,0,0,4151111,0,1120150,0,0,0,0,3040170,0,0,2121180,0
8,176,1162.99085959326,1,0,348195.304903396,348196.351921373,0,NumLock20,8,1,1,6,3,5231250,4011101,2190081,0,0,0,0,0,0,-4090090,0,0,1141160,0,0,0,0,0,0,0,0,4011101,0,0,0,0,2190081,0,0,0,0,0,0,0,0,0,0,0,0,0
8,177,542.217827169225,1,0,348198.563635273,348199.610655945,0,NumLock20,8,0,1,8,3,10322343,0,1121090,0,0,0,0,0,0,3021141,3160011,-4141191,0,0,0,0,0,0,0,0,0,0,0,0,0,0,0,0,0,1121090,0,0,0,0,0,0,0,0,0,0
8,178,1189.30332624586,1,0,348201.316494571,348202.363521017,0,NumLock20,8,1,1,19,7,4111110,5201151,7311310,5111151,0,0,4111110,0,0,0,0,0,0,0,0,0,0,0,0,0,1121080,4080071,-3200170,0,0,0,2091090,0,0,0,2020050,0,1101081,0,0,0,0,4010070,0,0
8,179,574.780135066248,0,0,348204.586989315,348205.634014606,0,NumLock20,8,0,0,21,7,11153290,4340192,6222281,4091161,0,0,0,3031200,4021070,0,4101020,0,0,0,0,0,0,0,1170181,0,3170011,0,0,0,-4191150,0,0,2031131,0,0,0,0,4091161,0,0,0,0,0,0,0
8,180,818.94046976231,0,0,348207.292797529,348208.339815891,0,NumLock20,8,1,0,29,7,10412543,2141160,0,7471490,0,0,1180150,3031071,0,3030131,0,0,3171191,0,0,0,0,0,0,0,2141160,0,0,0,0,0,0,0,0,0,0,4170120,-2110180,1191190,0,0,0,0,0,0
8,181,971.321106830146,1,0,348210.198604126,348211.245620948,0,NumLock20,8,1,1,14,7,5161200,8272462,2191090,6160151,0,0,0,4081010,0,0,1080190,0,0,0,0,0,0,-3021130,2090141,3161191,0,0,0,0,0,0,0,0,0,0,2191090,0,0,2010110,0,0,4150041,0,0,0
8,182,996.22269149404,0,0,348213.398508194,348214.445537335,0,NumLock20,8,1,0,35,7,3120090,5291081,9422091,7181211,0,0,0,0,0,0,3120090,0,0,0,0,0,2181061,0,0,3110020,0,0,0,3190040,0,3091041,0,0,3141010,0,0,0,3160190,0,0,0,0,0,-4021021,0
8,183,447.343813313637,0,0,348216.5043074,348217.551333076,0,NumLock20,8,1,0,15,3,0,16482414,0,0,0,0,0,0,0,0,0,0,0,0,0,4041081,4130121,0,-4141101,0,4170111,0,0,0,0,0,0,0,0,0,0,0,0,0,0,0,0,0,0,0
8,184,745.584233838599,0,0,348219.116005747,348220.163057216,0,NumLock20,8,1,0,36,7,8121332,4160101,10211591,4201291,4091171,0,0,0,4030161,0,0,0,0,0,4160101,0,0,0,0,0,0,0,4020200,2151201,0,0,4040190,0,0,0,0,2111191,0,0,0,0,0,0,0,-2090100
8,185,664.199252030812,1,0,348222.080660942,348223.127638883,0,NumLock20,8,0,1,9,7,5112251,5141220,3201161,6191371,0,0,0,0,3011131,0,0,0,-2101120,3031100,2110120,0,0,0,0,0,0,0,0,0,0,0,0,3201161,0,0,0,0,0,1091121,1080200,0,4020050,0,0,0
8,186,561.070520314388,1,0,348224.974656937,348226.021674144,0,NumLock20,8,0,1,23,3,1030090,2080170,2011061,2101120,0,0,0,0,0,0,0,0,1030090,0,0,2080170,0,0,0,0,0,0,0,0,0,0,-2011061,0,0,0,0,0,0,0,0,0,0,0,0,2101120
8,187,1962.33072847826,0,0,348227.739281411,348228.786307472,0,NumLock20,8,0,0,2,7,5170340,6432440,4031100,5112290,0,-2080150,0,0,0,0,0,3090190,0,0,3171140,0,0,0,0,1130140,0,2131160,0,0,0,4031100,0,0,0,0,0,0,0,0,0,4081170,0,0,0,1031120
8,188,802.91954940185,1,0,348231.915640496,348232.962658473,0,NumLock20,8,0,1,25,3,2352130,0,5242121,0,0,0,1181040,1171090,0,0,0,0,0,0,0,0,0,0,0,0,0,0,0,0,0,0,0,0,-1121101,0,4121020,0,0,0,0,0,0,0,0,0
8,189,817.296686465852,1,0,348234.786140014,348235.83316723,0,NumLock20,8,0,1,12,7,5330341,6211200,2190141,7190110,2080110,0,0,0,0,2140031,0,0,1110200,0,0,-4141110,0,0,2070090,0,0,0,0,2190141,0,0,0,0,0,0,0,0,0,3020050,4170060,0,0,0,0,0
8,190,646.444467536639,0,0,348237.739002314,348238.786024526,0,NumLock20,8,1,0,33,3,2150141,3021111,0,2231260,0,0,0,0,0,0,0,2150141,0,0,3021111,0,0,0,0,0,0,0,0,0,0,0,0,0,0,0,0,1201130,0,0,0,0,-1030130,0,0,0
8,191,724.9002813478,1,0,348240.609507606,348241.656527123,0,NumLock20,8,0,1,3,7,7152261,4081061,10281241,6261071,0,0,-3131120,0,0,0,0,4021141,0,0,0,0,0,0,0,0,4081061,0,0,0,4161031,0,0,2060180,4060030,0,0,3151050,0,0,0,3110021,0,0,0,0
8,192,1259.64801257942,1,0,348243.444730071,348244.491749203,0,NumLock20,8,1,1,24,7,8191051,1190070,3160091,7302443,0,0,4100010,2050011,0,0,0,2041030,0,0,0,0,0,0,1190070,0,0,0,0,0,0,0,0,-3160091,0,0,0,0,0,0,0,0,1020141,4171131,0,2111171
8,193,544.639616564382,1,0,348250.432755861,348251.479785002,0,NumLock20,9,1,1,19,7,4111110,5201151,7311310,5111151,0,0,4111110,0,0,0,0,0,0,0,0,0,0,0,0,0,1121080,4080071,-3200170,0,0,0,2091090,0,0,0,2020050,0,1101081,0,0,0,0,4010070,0,0
8,194,1002.94564978685,0,0,348253.150336181,348254.197359932,0,NumLock20,9,1,0,36,7,8121332,4160101,10211591,4201291,4091171,0,0,0,4030161,0,0,0,0,0,4160101,0,0,0,0,0,0,0,4020200,2151201,0,0,4040190,0,0,0,0,2111191,0,0,0,0,0,0,0,-2090100
8,195,1574.71276685828,1,0,348256.38557697,348257.43256569,0,NumLock20,9,0,1,25,7,6301162,3070170,6211051,7432093,4171091,2130071,0,0,0,0,0,0,0,0,0,0,3070170,0,0,0,0,0,3010020,0,0,0,0,0,-3201031,0,0,1170051,0,0,3061021,0,0,0,3201021,0
8,196,1354.94856315199,0,0,348260.044263268,348261.09127932,0,NumLock20,9,1,0,6,3,5231250,4011101,2190081,0,0,0,0,0,0,-4090090,0,0,1141160,0,0,0,0,0,0,0,0,4011101,0,0,0,0,2190081,0,0,0,0,0,0,0,0,0,0,0,0,0
8,197,1218.38789677713,0,0,348263.561807094,348264.60882738,0,NumLock20,9,1,0,24,7,8191051,1190070,3160091,7302443,0,0,4100010,2050011,0,0,0,2041030,0,0,0,0,0,0,1190070,0,0,0,0,0,0,0,0,-3160091,0,0,0,0,0,0,0,0,1020141,4171131,0,2111171
8,198,1567.07706616726,1,0,348266.844063165,348267.891086531,0,NumLock20,9,1,1,14,7,5161200,8272462,2191090,6160151,0,0,0,4081010,0,0,1080190,0,0,0,0,0,0,-3021130,2090141,3161191,0,0,0,0,0,0,0,0,0,0,2191090,0,0,2010110,0,0,4150041,0,0,0
8,199,633.960183593445,0,0,348270.4792603,348271.526280201,0,NumLock20,9,0,0,21,3,3071161,0,10562262,0,0,0,0,0,0,0,3071161,0,0,0,0,0,0,0,0,0,0,0,0,2201011,-4160060,0,0,4201191,0,0,0,0,0,0,0,0,0,0,0,0
8,200,1260.57461358141,0,0,348273.208594248,348274.255614535,0,NumLock20,9,1,0,1,3,2181151,3110160,0,2161120,-2181151,0,0,0,0,0,0,0,0,0,0,0,0,3110160,0,0,0,0,0,0,0,0,0,0,0,0,0,1031110,1130010,0,0,0,0,0,0,0
8,201,577.764352434315,1,0,348276.714380981,348277.761403193,0,NumLock20,9,0,1,4,3,4020041,3101110,5181330,0,0,0,0,-4020041,0,0,0,0,0,0,3101110,0,0,0,0,0,0,0,0,1110190,0,0,0,0,0,0,4071140,0,0,0,0,0,0,0,0,0
8,202,432.09974427009,0,0,348279.479005841,348280.526029207,0,NumLock20,9,0,0,8,3,1121111,4180121,3081081,1171151,0,0,0,0,0,0,0,-1121111,0,0,0,0,0,0,0,4180121,0,0,0,3081081,0,0,0,0,0,0,0,0,0,0,0,0,0,0,1171151,0
8,203,690.187581581995,1,0,348281.984818751,348283.031836343,0,NumLock20,9,1,1,34,3,0,0,5131201,7140341,0,0,0,0,0,0,0,0,0,0,0,0,0,0,0,0,0,0,0,0,4081061,0,0,0,0,0,1050140,0,0,0,0,3050141,0,-4090200,0,0
8,204,606.580220221076,0,1,348284.902430176,348285.949410427,0,NumLock20,9,0,1,2,3,4310180,4181181,0,4160161,0,-3120050,0,0,0,0,0,0,1190130,0,0,0,0,0,0,4181181,0,0,0,0,0,0,0,0,0,0,0,0,0,0,0,0,0,0,4160161,0
8,205,671.224404592067,1,0,348287.678771707,348288.725799308,0,NumLock20,9,0,1,23,3,4170181,0,5290151,4051090,0,0,4170181,0,0,0,0,0,0,0,0,0,0,0,0,0,0,0,0,0,0,0,-2150140,3140011,0,0,0,0,4051090,0,0,0,0,0,0,0
8,206,642.69032824086,1,0,348290.455171368,348291.50223708,0,NumLock20,9,0,1,26,7,0,8161260,7611412,5120331,0,0,0,0,0,0,0,0,0,4151070,0,0,0,0,4010190,0,0,0,0,0,0,3150020,1170021,1151180,0,-2140191,0,0,0,1090180,0,4030151,0,0,0,0
8,207,692.682513559703,1,0,348293.349214328,348294.396235769,0,NumLock20,9,1,1,30,3,4131020,0,5361192,3160121,0,4131020,0,0,0,0,0,0,0,0,0,0,0,0,0,0,0,0,0,0,0,0,0,0,3161081,2200111,0,0,0,-3160121,0,0,0,0,0,0
8,208,1024.4341706275,0,0,348296.125594355,348297.172623881,0,NumLock20,9,1,0,29,7,10412543,2141160,0,7471490,0,0,1180150,3031071,0,3030131,0,0,3171191,0,0,0,0,0,0,0,2141160,0,0,0,0,0,0,0,0,0,0,4170120,-2110180,1191190,0,0,0,0,0,0
8,209,2156.79029334569,1,0,348299.29027257,348300.337240117,0,NumLock20,9,0,1,3,7,5030351,9371281,3171190,7211222,0,0,-4010180,1020171,0,0,0,0,0,0,3201140,0,0,3080071,0,3090070,0,0,3171190,0,0,0,0,0,0,0,0,0,0,0,0,0,4040061,0,0,3171161
8,210,710.254826524761,0,0,348303.666565365,348304.713581417,0,NumLock20,9,0,0,17,7,1140171,7231200,4290231,5391540,0,0,0,1140171,0,0,0,0,0,0,0,4101110,0,0,0,0,-3130090,0,2190050,0,0,0,0,0,0,2100181,0,0,0,0,0,0,2100200,0,2180200,1111140
8,211,691.398283757735,0,0,348306.619422661,348307.666439098,0,NumLock20,9,0,0,10,3,2311210,6121191,0,0,0,0,0,1190100,0,0,0,0,1121110,-3041060,0,0,0,0,3080131,0,0,0,0,0,0,0,0,0,0,0,0,0,0,0,0,0,0,0,0,0
8,212,1821.84577011503,0,0,348309.489932187,348310.536945545,0,NumLock20,9,0,0,12,7,5250172,7293202,4170060,6121031,0,0,0,1050031,0,0,0,4200141,0,0,1111020,-4141091,2041091,0,0,0,0,0,4170060,0,0,0,0,0,0,0,0,0,4100010,0,0,0,0,0,0,2021021
8,213,648.300749307964,0,0,348313.407464696,348314.454485752,0,NumLock20,9,1,0,33,3,2150141,3021111,0,2231260,0,0,0,0,0,0,0,2150141,0,0,3021111,0,0,0,0,0,0,0,0,0,0,0,0,0,0,0,0,1201130,0,0,0,0,-1030130,0,0,0
8,214,575.073090323713,1,0,348316.148561126,348317.195587957,0,NumLock20,9,1,1,15,3,0,16482414,0,0,0,0,0,0,0,0,0,0,0,0,0,4041081,4130121,0,-4141101,0,4170111,0,0,0,0,0,0,0,0,0,0,0,0,0,0,0,0,0,0,0
8,215,816.313496150542,0,0,348318.85437242,348319.901395786,0,NumLock20,9,1,0,35,7,3120090,5291081,9422091,7181211,0,0,0,0,0,0,3120090,0,0,0,0,0,2181061,0,0,3110020,0,0,0,3190040,0,3091041,0,0,3141010,0,0,0,3160190,0,0,0,0,0,-4021021,0
8,216,984.723522677086,1,0,348321.724919672,348322.771910702,0,NumLock20,9,0,1,9,7,10332453,7521330,0,1070061,3100031,0,4071130,2021091,0,0,0,0,-1140201,0,0,2141100,0,0,1180160,0,0,4200070,0,0,0,0,0,0,0,0,0,0,0,0,0,0,0,0,1070061,0
8,217,709.977654682007,0,0,348328.230575134,348329.277601965,0,NumLock20,10,1,0,29,7,10412543,2141160,0,7471490,0,0,1180150,3031071,0,3030131,0,0,3171191,0,0,0,0,0,0,0,2141160,0,0,0,0,0,0,0,0,0,0,4170120,-2110180,1191190,0,0,0,0,0,0
8,218,1078.34641338559,1,0,348330.995200763,348332.042227209,0,NumLock20,10,0,1,25,7,6070232,10223313,3021130,7320231,2060061,0,4010171,0,0,0,0,0,0,0,0,4021191,0,0,2181081,4021041,0,0,0,0,0,0,0,0,-3021130,0,0,0,0,0,3170040,0,0,0,4150191,0
8,219,1875.7876548334,0,0,348334.159820849,348335.206906579,0,NumLock20,10,0,0,3,7,3100050,4312331,7311291,7092271,0,0,-3100050,0,0,0,0,0,0,0,0,1141021,1131200,0,2040110,0,0,0,0,4150131,0,0,0,0,0,0,3161160,0,0,0,0,4081171,0,0,0,3011100
8,220,1287.22199628828,1,0,348338.230295267,348339.277318634,0,NumLock20,10,1,1,24,7,8191051,1190070,3160091,7302443,0,0,4100010,2050011,0,0,0,2041030,0,0,0,0,0,0,1190070,0,0,0,0,0,0,0,0,-3160091,0,0,0,0,0,0,0,0,1020141,4171131,0,2111171
8,221,733.430631284136,0,0,348341.73608277,348342.783110371,0,NumLock20,10,0,0,9,7,7272281,9352231,2120091,3080141,0,0,2020120,0,2131130,0,0,0,-3121031,0,4141061,0,3070100,2141070,0,0,0,0,0,0,0,2120091,0,0,0,0,0,0,0,0,0,0,0,0,3080141,0
8,222,687.783500354271,1,0,348344.700711402,348345.747730919,0,NumLock20,10,0,1,26,3,2180191,1060030,3241292,0,0,0,0,2180191,0,0,0,0,0,0,0,0,1060030,0,0,0,0,0,0,0,0,0,2190131,0,0,-1051161,0,0,0,0,0,0,0,0,0,0
8,223,651.586006162688,1,0,348347.594797093,348348.641760791,0,NumLock20,10,1,1,14,7,5161200,8272462,2191090,6160151,0,0,0,4081010,0,0,1080190,0,0,0,0,0,0,-3021130,2090141,3161191,0,0,0,0,0,0,0,0,0,0,2191090,0,0,2010110,0,0,4150041,0,0,0
8,224,591.78001107648,0,0,348350.300547178,348351.347575934,0,NumLock20,10,0,0,23,3,4170130,3151171,3190260,0,0,0,4170130,0,0,0,0,0,0,0,0,0,3151171,0,0,0,0,0,2130060,0,0,0,-1060200,0,0,0,0,0,0,0,0,0,0,0,0,0
8,225,514.079490676522,1,0,348353.100467953,348354.147491704,0,NumLock20,10,0,1,17,7,6202341,4070151,2201071,5071232,0,0,0,0,0,3041150,1021171,0,2140020,0,2020110,0,0,0,0,0,-2050041,0,0,0,0,0,0,2201071,0,0,0,0,0,3011121,0,0,0,0,2060111,0
8,226,2706.08531439211,0,0,348355.712157062,348356.759182738,0,NumLock20,10,0,0,4,7,7432501,3191181,3110181,3201061,1140160,1150020,0,-2121201,0,3021120,0,0,0,0,0,0,0,0,0,2050101,0,1141080,0,0,0,0,0,0,0,0,3110181,3201061,0,0,0,0,0,0,0,0
8,227,626.826087071095,1,1,348360.488542093,348361.535532738,0,NumLock20,10,1,0,33,3,2150141,3021111,0,2231260,0,0,0,0,0,0,0,2150141,0,0,3021111,0,0,0,0,0,0,0,0,0,0,0,0,0,0,0,0,1201130,0,0,0,0,-1030130,0,0,0
8,228,482.436084654182,1,0,348363.311944717,348364.358970778,0,NumLock20,10,0,1,21,3,4121010,0,5251131,2080101,4121010,0,0,0,0,0,0,0,0,0,0,0,0,0,0,0,0,0,0,0,-3080111,2171020,0,0,0,0,0,0,0,0,0,0,2080101,0,0,0
8,229,946.487660170533,1,0,348366.01776294,348367.064772833,0,NumLock20,10,1,1,35,7,3120090,5291081,9422091,7181211,0,0,0,0,0,0,3120090,0,0,0,0,0,2181061,0,0,3110020,0,0,0,3190040,0,3091041,0,0,3141010,0,0,0,3160190,0,0,0,0,0,-4021021,0
8,230,2115.8943506307,1,0,348369.135297296,348370.182330671,0,NumLock20,10,1,1,19,7,4111110,5201151,7311310,5111151,0,0,4111110,0,0,0,0,0,0,0,0,0,0,0,0,0,1121080,4080071,-3200170,0,0,0,2091090,0,0,0,2020050,0,1101081,0,0,0,0,4010070,0,0
8,231,1040.78192281304,1,0,348373.370491505,348374.417533734,0,NumLock20,10,1,1,36,7,8121332,4160101,10211591,4201291,4091171,0,0,0,4030161,0,0,0,0,0,4160101,0,0,0,0,0,0,0,4020200,2151201,0,0,4040190,0,0,0,0,2111191,0,0,0,0,0,0,0,-2090100
8,232,1087.88536099019,0,0,348376.629214143,348377.676242899,0,NumLock20,10,0,0,12,3,0,6191281,3171111,2091080,0,0,0,0,0,0,0,0,0,0,3070110,-3121171,0,0,0,0,0,0,3171111,0,0,0,0,0,0,0,0,0,0,0,0,2091080,0,0,0,0
8,233,767.625558597501,1,0,348379.86443068,348380.911441727,0,NumLock20,10,1,1,6,3,5231250,4011101,2190081,0,0,0,0,0,0,-4090090,0,0,1141160,0,0,0,0,0,0,0,0,4011101,0,0,0,0,2190081,0,0,0,0,0,0,0,0,0,0,0,0,0
8,234,593.003802001476,0,0,348382.829046223,348383.876068819,0,NumLock20,10,1,0,15,3,0,16482414,0,0,0,0,0,0,0,0,0,0,0,0,0,4041081,4130121,0,-4141101,0,4170111,0,0,0,0,0,0,0,0,0,0,0,0,0,0,0,0,0,0,0
8,235,860.829996701796,0,0,348385.511327933,348386.558402114,0,NumLock20,10,0,0,8,3,3020020,2191171,0,6120290,0,0,0,0,0,0,0,-3020020,0,0,2191171,0,0,0,0,0,0,0,0,0,0,0,0,0,0,0,0,0,0,0,0,0,0,3110130,3010160,0
8,236,1162.77682129294,1,0,348388.464181764,348389.51120205,0,NumLock20,10,1,1,1,3,2181151,3110160,0,2161120,-2181151,0,0,0,0,0,0,0,0,0,0,0,0,3110160,0,0,0,0,0,0,0,0,0,0,0,0,0,1031110,1130010,0,0,0,0,0,0,0
8,237,880.344052799046,0,0,348391.840555016,348392.887579922,0,NumLock20,10,1,0,34,3,0,0,5131201,7140341,0,0,0,0,0,0,0,0,0,0,0,0,0,0,0,0,0,0,0,0,4081061,0,0,0,0,0,1050140,0,0,0,0,3050141,0,-4090200,0,0
8,238,641.950433317106,0,0,348394.958112469,348396.00518819,0,NumLock20,10,1,0,30,3,4131020,0,5361192,3160121,0,4131020,0,0,0,0,0,0,0,0,0,0,0,0,0,0,0,0,0,0,0,0,0,0,3161081,2200111,0,0,0,-3160121,0,0,0,0,0,0
8,239,1357.38536604913,1,0,348397.828622381,348398.875642668,0,NumLock20,10,0,1,2,7,6292281,1071121,5070142,8402492,0,-4151191,0,0,0,0,2141090,0,0,1071121,0,0,0,0,0,0,0,0,0,0,0,0,4010021,1060121,0,0,0,0,0,0,0,4141140,2151161,0,2110191,0
8,240,1048.22283319663,1,0,348401.36969964,348402.416726471,0,NumLock20,10,0,1,10,3,0,6281220,1051170,2080160,0,0,0,0,0,0,0,0,0,-3151160,0,0,0,0,0,0,3130060,0,0,0,0,0,0,0,0,0,1051170,0,0,0,0,0,2080160,0,0,0
8,241,1377.02068482758,0,0,348407.804810236,348408.851833602,0,NumLock20,11,1,0,1,3,2181151,3110160,0,2161120,-2181151,0,0,0,0,0,0,0,0,0,0,0,0,3110160,0,0,0,0,0,0,0,0,0,0,0,0,0,1031110,1130010,0,0,0,0,0,0,0
8,242,607.916804612614,1,0,348411.298836796,348412.345852464,0,NumLock20,11,1,1,36,7,8121332,4160101,10211591,4201291,4091171,0,0,0,4030161,0,0,0,0,0,4160101,0,0,0,0,0,0,0,4020200,2151201,0,0,4040190,0,0,0,0,2111191,0,0,0,0,0,0,0,-2090100
8,243,526.150711521041,0,0,348414.004640006,348415.051661063,0,NumLock20,11,1,0,33,3,2150141,3021111,0,2231260,0,0,0,0,0,0,0,2150141,0,0,3021111,0,0,0,0,0,0,0,0,0,0,0,0,0,0,0,0,1201130,0,0,0,0,-1030130,0,0,0
8,244,710.685597849078,1,0,348416.628093907,348417.675115733,0,NumLock20,11,0,1,2,7,9471491,1121201,3251140,7161191,0,-3191190,3140151,0,0,3140150,0,0,0,0,0,0,0,1121201,0,0,0,0,0,0,0,0,0,1140060,0,0,2111080,0,4080041,0,0,0,3081150,0,0,0
8,245,1750.20646001212,1,0,348419.404487022,348420.451516548,0,NumLock20,11,0,1,12,7,6291241,2241141,1180031,7281411,0,3201060,0,0,0,3090181,0,0,0,0,1150030,-1091111,0,0,0,0,0,0,0,0,0,0,0,1180031,0,0,0,3180150,0,0,1050201,3051060,0,0,0,0
8,246,1596.20898694266,1,0,348423.204386625,348424.251402292,0,NumLock20,11,1,1,6,3,5231250,4011101,2190081,0,0,0,0,0,0,-4090090,0,0,1141160,0,0,0,0,0,0,0,0,4011101,0,0,0,0,2190081,0,0,0,0,0,0,0,0,0,0,0,0,0
8,247,728.414974932093,0,0,348427.051336156,348428.098351053,0,NumLock20,11,0,0,21,7,2130041,13402312,6322121,1060141,0,2130041,0,0,0,0,0,0,0,0,0,0,0,2141081,4131050,4040030,3090151,0,0,0,-2181051,0,0,0,4141070,0,0,0,1060141,0,0,0,0,0,0,0
8,248,920.870433037635,1,0,348429.921852226,348430.968866739,0,NumLock20,11,1,1,19,7,4111110,5201151,7311310,5111151,0,0,4111110,0,0,0,0,0,0,0,0,0,0,0,0,0,1121080,4080071,-3200170,0,0,0,2091090,0,0,0,2020050,0,1101081,0,0,0,0,4010070,0,0
8,249,720.404707244597,0,0,348433.051160998,348434.098187829,0,NumLock20,11,0,0,4,3,5202040,0,1090090,1021141,0,0,0,-3091030,0,2111010,0,0,0,0,0,0,0,0,0,0,0,0,0,0,1090090,0,0,0,0,0,0,0,0,1021141,0,0,0,0,0,0
8,250,749.738732469268,1,0,348435.862870818,348436.909875321,0,NumLock20,11,1,1,30,3,4131020,0,5361192,3160121,0,4131020,0,0,0,0,0,0,0,0,0,0,0,0,0,0,0,0,0,0,0,0,0,0,3161081,2200111,0,0,0,-3160121,0,0,0,0,0,0
8,251,1577.39055529237,0,0,348438.839234985,348439.88626451,0,NumLock20,11,0,0,17,7,3150140,8511213,3101100,7391392,0,3150140,0,0,0,0,0,0,0,0,4170041,0,0,0,0,3170131,-1171041,0,0,0,0,0,0,0,3101100,0,0,0,0,1191080,0,3190171,0,3010141,0,0
8,252,1057.94155760668,0,0,348442.568539291,348443.615559963,0,NumLock20,11,0,0,8,7,6402232,0,9360431,7221261,0,0,1181121,0,0,0,0,-1120081,4101030,0,0,0,0,0,0,0,0,0,0,0,0,0,2170180,3040190,0,0,4150061,0,0,3101111,0,4120150,0,0,0,0
8,253,567.786164290737,1,0,348445.7566982,348446.803716177,0,NumLock20,11,0,1,9,3,4101111,3080050,4141050,3091181,0,0,0,0,0,0,0,0,-4101111,3080050,0,0,0,0,0,0,0,0,4141050,0,0,0,0,0,0,0,0,0,0,0,0,0,0,3091181,0,0
8,254,552.336910972372,0,0,348448.533080537,348449.580102748,0,NumLock20,11,0,0,23,3,1090020,2080110,5291221,0,1090020,0,0,0,0,0,0,0,0,0,0,0,0,2080110,0,0,0,0,2190061,0,0,0,-3101160,0,0,0,0,0,0,0,0,0,0,0,0,0
8,255,532.442128518596,0,0,348451.285948688,348452.332968975,0,NumLock20,11,1,0,15,3,0,16482414,0,0,0,0,0,0,0,0,0,0,0,0,0,4041081,4130121,0,-4141101,0,4170111,0,0,0,0,0,0,0,0,0,0,0,0,0,0,0,0,0,0,0
8,256,736.852934234776,0,0,348453.956455982,348455.003473959,0,NumLock20,11,1,0,24,7,8191051,1190070,3160091,7302443,0,0,4100010,2050011,0,0,0,2041030,0,0,0,0,0,0,1190070,0,0,0,0,0,0,0,0,-3160091,0,0,0,0,0,0,0,0,1020141,4171131,0,2111171
8,257,1438.67911206326,1,0,348456.744615045,348457.791696926,0,NumLock20,11,1,1,29,7,10412543,2141160,0,7471490,0,0,1180150,3031071,0,3030131,0,0,3171191,0,0,0,0,0,0,0,2141160,0,0,0,0,0,0,0,0,0,0,4170120,-2110180,1191190,0,0,0,0,0,0
8,258,741.649162839167,1,0,348460.391579666,348461.438618431,0,NumLock20,11,0,1,26,7,9331202,8461263,1110171,3081100,4130020,0,0,0,1030101,0,0,4171081,0,0,0,0,1141131,0,4130101,0,3190031,0,0,0,0,0,0,0,0,-1110171,0,0,0,0,0,0,0,3081100,0,0
8,259,691.423306241632,0,0,348463.367960002,348464.414980288,0,NumLock20,11,0,0,10,3,2031131,1090030,0,3382232,0,0,0,2031131,0,0,0,0,0,-1090030,0,0,0,0,0,0,0,0,0,0,0,0,0,0,0,0,0,1181121,2201111,0,0,0,0,0,0,0
8,260,670.601152814925,0,0,348466.226701657,348467.273726563,0,NumLock20,11,0,0,3,3,6212340,0,7192261,0,0,0,-3121180,0,0,0,0,0,3091160,0,0,0,0,0,0,0,0,0,0,0,0,0,4011170,3181091,0,0,0,0,0,0,0,0,0,0,0,0
8,261,867.707709199749,0,0,348468.97959945,348470.02659125,0,NumLock20,11,1,0,34,3,0,0,5131201,7140341,0,0,0,0,0,0,0,0,0,0,0,0,0,0,0,0,0,0,0,0,4081061,0,0,0,0,0,1050140,0,0,0,0,3050141,0,-4090200,0,0
8,262,755.764526431449,1,0,348472.085425603,348473.132384681,0,NumLock20,11,1,1,14,7,5161200,8272462,2191090,6160151,0,0,0,4081010,0,0,1080190,0,0,0,0,0,0,-3021130,2090141,3161191,0,0,0,0,0,0,0,0,0,0,2191090,0,0,2010110,0,0,4150041,0,0,0
8,263,729.463993571699,1,0,348475.061746655,348476.108773101,0,NumLock20,11,0,1,25,3,1160190,7261170,1080011,0,0,0,0,0,0,1160190,0,0,0,0,0,0,4101060,0,0,3160110,0,0,0,0,0,0,0,0,-1080011,0,0,0,0,0,0,0,0,0,0,0
8,264,921.228061779402,1,0,348478.049899096,348479.096924772,0,NumLock20,11,1,1,35,7,3120090,5291081,9422091,7181211,0,0,0,0,0,0,3120090,0,0,0,0,0,2181061,0,0,3110020,0,0,0,3190040,0,3091041,0,0,3141010,0,0,0,3160190,0,0,0,0,0,-4021021,0
8,265,765.115228132345,1,0,348484.437942825,348485.4849762,0,NumLock20,12,1,1,1,3,2181151,3110160,0,2161120,-2181151,0,0,0,0,0,0,0,0,0,0,0,0,3110160,0,0,0,0,0,0,0,0,0,0,0,0,0,1031110,1130010,0,0,0,0,0,0,0
8,266,1195.27869031299,1,0,348487.437867757,348488.484896898,0,NumLock20,12,0,1,9,7,10481230,9470391,3040030,2110180,2200030,0,0,4171120,0,0,0,0,-4110080,0,1120200,0,0,0,4200140,4150051,0,0,0,0,0,0,0,3040030,0,0,0,0,0,0,2110180,0,0,0,0,0
8,267,1568.35436669644,0,0,348490.837775598,348491.884796654,0,NumLock20,12,1,0,6,3,5231250,4011101,2190081,0,0,0,0,0,0,-4090090,0,0,1141160,0,0,0,0,0,0,0,0,4011101,0,0,0,0,2190081,0,0,0,0,0,0,0,0,0,0,0,0,0
8,268,762.237260001712,1,0,348494.484731365,348495.531750882,0,NumLock20,12,0,1,4,7,9533441,3041070,3190200,3211191,3051020,0,3170140,-1191161,0,2121120,0,0,0,0,3041070,0,0,0,0,0,0,0,0,3190200,0,0,0,0,0,0,0,0,0,0,0,0,0,1140011,0,2071180
8,269,1443.36447189562,0,0,348497.437589046,348498.484613567,0,NumLock20,12,1,0,35,7,3120090,5291081,9422091,7181211,0,0,0,0,0,0,3120090,0,0,0,0,0,2181061,0,0,3110020,0,0,0,3190040,0,3091041,0,0,3141010,0,0,0,3160190,0,0,0,0,0,-4021021,0
8,270,1511.31316123065,1,0,348501.0845733,348502.131564715,0,NumLock20,12,1,1,24,7,8191051,1190070,3160091,7302443,0,0,4100010,2050011,0,0,0,2041030,0,0,0,0,0,0,1190070,0,0,0,0,0,0,0,0,-3160091,0,0,0,0,0,0,0,0,1020141,4171131,0,2111171
8,271,659.396094153635,0,0,348504.684449112,348505.731468628,0,NumLock20,12,0,0,21,3,0,1091060,7330271,1071091,0,0,0,0,0,0,0,0,0,0,0,0,0,0,1091060,0,0,0,0,0,-3190200,0,4140071,0,0,0,0,0,0,0,0,1071091,0,0,0,0
8,272,762.403178145178,0,0,348507.484370272,348508.531391328,0,NumLock20,12,1,0,36,7,8121332,4160101,10211591,4201291,4091171,0,0,0,4030161,0,0,0,0,0,4160101,0,0,0,0,0,0,0,4020200,2151201,0,0,4040190,0,0,0,0,2111191,0,0,0,0,0,0,0,-2090100
8,273,662.99701895332,0,0,348510.460754456,348511.507773973,0,NumLock20,12,0,0,2,3,5281200,0,5151151,0,0,-2120030,0,3161170,0,0,0,0,0,0,0,0,0,0,0,0,0,0,4070140,0,0,0,1081011,0,0,0,0,0,0,0,0,0,0,0,0,0
8,274,634.909497341141,1,0,348513.201858586,348514.248871173,0,NumLock20,12,0,1,12,7,4161110,9332082,2080191,5130251,3141040,0,0,0,0,0,0,1020070,0,0,0,-2051010,0,0,0,3101061,0,4180011,0,0,0,0,0,0,0,2080191,0,0,0,0,0,2060200,0,3070051,0,0
8,275,698.631700244732,1,0,348515.978248622,348517.025263904,0,NumLock20,12,1,1,14,7,5161200,8272462,2191090,6160151,0,0,0,4081010,0,0,1080190,0,0,0,0,0,0,-3021130,2090141,3161191,0,0,0,0,0,0,0,0,0,0,2191090,0,0,2010110,0,0,4150041,0,0,0
8,276,499.555683520157,1,0,348518.88410103,348519.931097449,0,NumLock20,12,0,1,8,3,6291290,2070120,3090010,0,0,0,0,0,0,4110190,0,-2181100,0,0,0,0,0,0,0,0,2070120,0,0,3090010,0,0,0,0,0,0,0,0,0,0,0,0,0,0,0,0
8,277,818.488140590489,1,0,348521.62514626,348522.672169242,0,NumLock20,12,1,1,30,3,4131020,0,5361192,3160121,0,4131020,0,0,0,0,0,0,0,0,0,0,0,0,0,0,0,0,0,0,0,0,0,0,3161081,2200111,0,0,0,-3160121,0,0,0,0,0,0
8,278,816.475949657615,0,0,348524.613292928,348525.660321683,0,NumLock20,12,0,0,10,3,4241150,3130171,0,3061170,1201070,0,0,3040080,0,0,0,0,0,-3130171,0,0,0,0,0,0,0,0,0,0,0,0,0,0,0,0,0,3061170,0,0,0,0,0,0,0,0
8,279,1092.0417845482,0,0,348527.495570326,348528.542593692,0,NumLock20,12,0,0,25,7,9290392,6142190,7282323,0,0,4010031,0,4130160,0,1150201,0,0,0,0,4081080,0,0,0,0,0,2061110,0,0,0,0,3051081,0,0,-3061071,1170171,0,0,0,0,0,0,0,0,0,0
8,280,750.249575648922,1,0,348530.754300278,348531.801321719,0,NumLock20,12,1,1,34,3,0,0,5131201,7140341,0,0,0,0,0,0,0,0,0,0,0,0,0,0,0,0,0,0,0,0,4081061,0,0,0,0,0,1050140,0,0,0,0,3050141,0,-4090200,0,0
8,281,580.367843387648,0,0,348533.648336309,348534.69535775,0,NumLock20,12,1,0,15,3,0,16482414,0,0,0,0,0,0,0,0,0,0,0,0,0,4041081,4130121,0,-4141101,0,4170111,0,0,0,0,0,0,0,0,0,0,0,0,0,0,0,0,0,0,0
8,282,621.661065844819,0,0,348536.318858231,348537.365885062,0,NumLock20,12,1,0,33,3,2150141,3021111,0,2231260,0,0,0,0,0,0,0,2150141,0,0,3021111,0,0,0,0,0,0,0,0,0,0,0,0,0,0,0,0,1201130,0,0,0,0,-1030130,0,0,0
8,283,1489.861981594,0,0,348539.118774772,348540.165802373,0,NumLock20,12,0,0,3,3,1080130,1151201,3141091,2101051,0,0,-1080130,0,0,0,0,0,0,0,0,0,0,1151201,0,0,0,0,0,0,0,0,0,0,0,3141091,0,0,0,0,0,0,0,2101051,0,0
8,284,731.957385665737,1,0,348542.82454218,348543.871567086,0,NumLock20,12,0,1,26,3,5180290,0,4190030,1011041,0,0,0,0,3160120,2020170,0,0,0,0,0,0,0,0,0,0,0,0,0,0,0,0,0,0,0,-4190030,0,0,0,0,0,1011041,0,0,0,0
8,285,1438.73839604203,1,0,348545.659774654,348546.706791091,0,NumLock20,12,1,1,29,7,10412543,2141160,0,7471490,0,0,1180150,3031071,0,3030131,0,0,3171191,0,0,0,0,0,0,0,2141160,0,0,0,0,0,0,0,0,0,0,4170120,-2110180,1191190,0,0,0,0,0,0
8,286,1171.21401068289,1,0,348549.23613551,348550.283155412,0,NumLock20,12,0,1,23,7,8352433,0,6341130,3341252,0,0,2111190,2090111,1080121,0,3071011,0,0,0,0,0,0,0,0,0,0,0,0,0,3181080,0,-3160050,0,0,0,0,0,0,0,0,0,1150201,0,2191051,0
8,287,900.940619118046,0,0,348552.565457293,348553.612473346,0,NumLock20,12,0,0,17,7,2230271,7311342,6180051,1130190,0,0,1100081,0,0,0,0,0,1130190,0,0,0,4091201,0,1200101,0,-2020040,0,0,0,0,0,0,0,3120020,3060031,0,0,0,0,0,0,1130190,0,0,0
8,288,1493.46098158276,0,0,348555.541839554,348556.588864845,0,NumLock20,12,1,0,19,7,4111110,5201151,7311310,5111151,0,0,4111110,0,0,0,0,0,0,0,0,0,0,0,0,0,1121080,4080071,-3200170,0,0,0,2091090,0,0,0,2020050,0,1101081,0,0,0,0,4010070,0,0
8,289,624.313446867745,1,0,348563.376906494,348564.423937945,0,NumLock20,13,1,1,30,3,4131020,0,5361192,3160121,0,4131020,0,0,0,0,0,0,0,0,0,0,0,0,0,0,0,0,0,0,0,0,0,0,3161081,2200111,0,0,0,-3160121,0,0,0,0,0,0
8,290,619.78245631326,0,0,348566.247416791,348567.294452091,0,NumLock20,13,1,0,34,3,0,0,5131201,7140341,0,0,0,0,0,0,0,0,0,0,0,0,0,0,0,0,0,0,0,0,4081061,0,0,0,0,0,1050140,0,0,0,0,3050141,0,-4090200,0,0
8,291,979.318902187515,0,0,348569.059105823,348570.105929933,0,NumLock20,13,0,0,26,7,4130121,4150131,17291723,3150201,0,0,0,0,0,4130121,0,0,0,0,0,0,0,4150131,0,0,0,0,3031200,0,0,0,4100071,0,3110101,-4030150,3020201,0,0,0,3150201,0,0,0,0,0
8,292,974.926651164424,0,0,348572.200199404,348573.247218151,0,NumLock20,13,0,0,2,3,2131030,3030020,0,7151310,0,-2131030,0,0,0,0,0,0,0,0,0,0,0,0,0,3030020,0,0,0,0,0,0,0,0,0,0,0,3020150,0,0,0,0,0,0,0,4131160
8,293,1669.99175964156,0,0,348575.247170031,348576.294190703,0,NumLock20,13,0,0,23,7,4270181,7170420,3191272,2061201,1070171,0,3200010,0,0,0,0,0,0,0,2040130,2070190,0,0,0,3060100,0,0,0,0,1170181,0,-2021091,0,0,0,0,0,2061201,0,0,0,0,0,0,0
8,294,393.503943225369,0,0,348579.11765415,348580.164669817,0,NumLock20,13,0,0,21,3,1070081,0,5352181,4171161,0,0,0,0,0,0,0,1070081,0,0,0,0,0,0,0,0,0,0,0,0,-1201090,0,0,0,0,4151091,0,0,0,0,0,4171161,0,0,0,0
8,295,790.285900584422,1,0,348581.658754892,348582.705780568,0,NumLock20,13,0,1,25,3,7212271,0,2252212,0,0,3081090,0,0,0,0,0,4131181,0,0,0,0,0,0,0,0,0,0,0,1091121,0,0,0,0,-1161091,0,0,0,0,0,0,0,0,0,0,0
8,296,628.021390875801,0,0,348584.693966501,348585.740980629,0,NumLock20,13,1,0,33,3,2150141,3021111,0,2231260,0,0,0,0,0,0,0,2150141,0,0,3021111,0,0,0,0,0,0,0,0,0,0,0,0,0,0,0,0,1201130,0,0,0,0,-1030130,0,0,0
8,297,1612.19179606996,1,0,348587.388007229,348588.435025591,0,NumLock20,13,1,1,14,7,5161200,8272462,2191090,6160151,0,0,0,4081010,0,0,1080190,0,0,0,0,0,0,-3021130,2090141,3161191,0,0,0,0,0,0,0,0,0,0,2191090,0,0,2010110,0,0,4150041,0,0,0
8,298,1621.36156624183,0,0,348591.199661614,348592.246680361,0,NumLock20,13,0,0,12,7,9372391,4231231,1200011,6251112,4161110,0,0,4081161,0,0,0,0,1130120,0,0,-1110100,0,0,0,0,3121131,0,0,0,0,0,0,0,0,1200011,0,0,0,0,0,2171071,0,4080041,0,0
8,299,1764.75144003052,0,0,348595.070233504,348596.117212215,0,NumLock20,13,0,0,8,7,6221252,9522443,0,4180171,0,0,0,0,4041091,0,1030150,-1150011,0,2131191,1031090,0,2180021,0,4180141,0,0,0,0,0,0,0,0,0,0,0,0,4180171,0,0,0,0,0,0,0,0
8,300,1483.33766323049,0,0,348599.046496426,348600.093527877,0,NumLock20,13,1,0,36,7,8121332,4160101,10211591,4201291,4091171,0,0,0,4030161,0,0,0,0,0,4160101,0,0,0,0,0,0,0,4020200,2151201,0,0,4040190,0,0,0,0,2111191,0,0,0,0,0,0,0,-2090100
8,301,694.551883963868,1,0,348602.752275383,348603.799300289,0,NumLock20,13,0,1,3,3,1050110,4231040,0,2071100,0,0,-1050110,0,0,0,0,0,0,0,0,0,0,0,3120030,1111010,0,0,0,0,0,0,0,0,0,0,0,0,2071100,0,0,0,0,0,0,0
8,302,633.194496214855,1,0,348605.681610024,348606.728635316,0,NumLock20,13,1,1,19,7,4111110,5201151,7311310,5111151,0,0,4111110,0,0,0,0,0,0,0,0,0,0,0,0,0,1121080,4080071,-3200170,0,0,0,2091090,0,0,0,2020050,0,1101081,0,0,0,0,4010070,0,0
8,303,1265.0012797094,1,0,348608.363878646,348609.410909326,0,NumLock20,13,0,1,17,7,10292412,7322251,4161190,0,0,0,4130161,3031200,0,3131051,0,0,0,1050010,0,0,0,0,2101100,0,-4171141,0,0,0,0,0,0,2060090,0,2101100,0,0,0,0,0,0,0,0,0,0
8,304,650.598581240047,1,0,348611.799080092,348612.846165437,0,NumLock20,13,1,1,24,7,8191051,1190070,3160091,7302443,0,0,4100010,2050011,0,0,0,2041030,0,0,0,0,0,0,1190070,0,0,0,0,0,0,0,0,-3160091,0,0,0,0,0,0,0,0,1020141,4171131,0,2111171
8,305,698.542774247471,1,0,348614.634299092,348615.681325153,0,NumLock20,13,0,1,4,3,7311281,4020060,0,0,2020100,0,0,-4131131,1160050,0,0,0,0,0,0,0,0,0,4020060,0,0,0,0,0,0,0,0,0,0,0,0,0,0,0,0,0,0,0,0,0
8,306,785.355705535039,1,0,348617.528332043,348618.575358489,0,NumLock20,13,0,1,10,7,3150311,3211050,2170031,5352221,2040160,1110151,0,0,0,0,0,0,0,-2180010,0,0,0,0,0,0,1031040,0,0,0,0,2170031,0,0,0,0,0,0,1111090,2051101,0,0,2190030,0,0,0
8,307,1023.07718322845,1,0,348620.410603667,348621.457632808,0,NumLock20,13,1,1,29,7,10412543,2141160,0,7471490,0,0,1180150,3031071,0,3030131,0,0,3171191,0,0,0,0,0,0,0,2141160,0,0,0,0,0,0,0,0,0,0,4170120,-2110180,1191190,0,0,0,0,0,0
8,308,1035.5710912263,0,0,348623.575221058,348624.62224327,0,NumLock20,13,1,0,6,3,5231250,4011101,2190081,0,0,0,0,0,0,-4090090,0,0,1141160,0,0,0,0,0,0,0,0,4011101,0,0,0,0,2190081,0,0,0,0,0,0,0,0,0,0,0,0,0
8,309,603.858931106515,1,0,348626.845715033,348627.892739554,0,NumLock20,13,0,1,9,3,1121190,7291402,0,0,0,0,0,0,0,0,0,0,-1121190,0,0,0,1161100,0,0,2110101,0,4020201,0,0,0,0,0,0,0,0,0,0,0,0,0,0,0,0,0,0
8,310,895.193151955027,1,0,348629.704465542,348630.751486213,0,NumLock20,13,1,1,15,3,0,16482414,0,0,0,0,0,0,0,0,0,0,0,0,0,4041081,4130121,0,-4141101,0,4170111,0,0,0,0,0,0,0,0,0,0,0,0,0,0,0,0,0,0,0
8,311,1372.86657106597,0,0,348632.833787787,348633.880845415,0,NumLock20,13,1,0,1,3,2181151,3110160,0,2161120,-2181151,0,0,0,0,0,0,0,0,0,0,0,0,3110160,0,0,0,0,0,0,0,0,0,0,0,0,0,1031110,1130010,0,0,0,0,0,0,0
8,312,1289.31964858202,1,0,348636.410153263,348637.457175089,0,NumLock20,13,1,1,35,7,3120090,5291081,9422091,7181211,0,0,0,0,0,0,3120090,0,0,0,0,0,2181061,0,0,3110020,0,0,0,3190040,0,3091041,0,0,3141010,0,0,0,3160190,0,0,0,0,0,-4021021,0
8,313,891.94831601344,1,0,348642.97467426,348644.021696086,0,NumLock20,14,1,1,19,7,4111110,5201151,7311310,5111151,0,0,4111110,0,0,0,0,0,0,0,0,0,0,0,0,0,1121080,4080071,-3200170,0,0,0,2091090,0,0,0,2020050,0,1101081,0,0,0,0,4010070,0,0
8,314,808.362512441818,1,0,348645.998124157,348647.045145213,0,NumLock20,14,1,1,34,3,0,0,5131201,7140341,0,0,0,0,0,0,0,0,0,0,0,0,0,0,0,0,0,0,0,0,4081061,0,0,0,0,0,1050140,0,0,0,0,3050141,0,-4090200,0,0
8,315,795.775058970321,0,0,348648.915696316,348649.962713523,0,NumLock20,14,1,0,24,7,8191051,1190070,3160091,7302443,0,0,4100010,2050011,0,0,0,2041030,0,0,0,0,0,0,1190070,0,0,0,0,0,0,0,0,-3160091,0,0,0,0,0,0,0,0,1020141,4171131,0,2111171
8,316,1110.71585578611,1,0,348651.91565859,348652.962663478,0,NumLock20,14,0,1,10,7,8241211,8381481,0,3072171,0,4081191,0,4160020,0,0,0,0,0,-3150140,0,0,3101051,1020160,0,1110130,0,0,0,0,0,0,0,0,0,0,0,0,0,2021161,0,0,0,1051010,0,0
8,317,2304.47941122111,1,0,348655.150809683,348656.197830355,0,NumLock20,14,1,1,30,3,4131020,0,5361192,3160121,0,4131020,0,0,0,0,0,0,0,0,0,0,0,0,0,0,0,0,0,0,0,0,0,0,3161081,2200111,0,0,0,-3160121,0,0,0,0,0,0
8,318,2345.10549635161,0,0,348659.527148673,348660.57417281,0,NumLock20,14,0,0,3,7,5121231,6282261,8190120,6201101,0,0,-4071031,0,0,0,0,1050200,0,2151120,0,0,4131141,0,0,0,0,0,4080060,4110060,0,0,0,0,0,0,0,4151071,0,0,0,0,0,0,0,2050030
8,319,1371.54653994367,1,0,348663.985848907,348665.032874583,0,NumLock20,14,0,1,23,7,1171081,4381070,9463271,5362311,0,1171081,0,0,0,0,0,0,0,0,0,0,0,0,0,1201060,0,3180010,4141050,1141080,0,0,-4181141,0,0,0,0,0,0,0,2191110,0,0,0,3171201,0
8,320,727.949557127431,0,0,348667.503395427,348668.550419563,0,NumLock20,14,1,0,36,7,8121332,4160101,10211591,4201291,4091171,0,0,0,4030161,0,0,0,0,0,4160101,0,0,0,0,0,0,0,4020200,2151201,0,0,4040190,0,0,0,0,2111191,0,0,0,0,0,0,0,-2090100
8,321,689.041937701404,1,0,348670.362142472,348671.409168533,0,NumLock20,14,0,1,8,3,2292181,2071150,0,2200200,0,1131070,0,0,0,0,0,-1161111,0,0,0,0,2071150,0,0,0,0,0,0,0,0,0,0,0,0,0,0,0,0,0,0,0,0,0,0,2200200
8,322,1509.49922518339,0,0,348673.279707316,348674.326727218,0,NumLock20,14,1,0,14,7,5161200,8272462,2191090,6160151,0,0,0,4081010,0,0,1080190,0,0,0,0,0,0,-3021130,2090141,3161191,0,0,0,0,0,0,0,0,0,0,2191090,0,0,2010110,0,0,4150041,0,0,0
8,323,911.985149083193,1,0,348676.856076257,348677.903094619,0,NumLock20,14,0,1,25,3,9332261,0,3021120,0,0,0,0,0,1021080,4151041,4160140,0,0,0,0,0,0,0,0,0,0,0,0,0,0,0,0,0,-3021120,0,0,0,0,0,0,0,0,0,0,0
8,324,1544.10490579903,1,0,348679.903048423,348680.95007102,0,NumLock20,14,1,1,1,3,2181151,3110160,0,2161120,-2181151,0,0,0,0,0,0,0,0,0,0,0,0,3110160,0,0,0,0,0,0,0,0,0,0,0,0,0,1031110,1130010,0,0,0,0,0,0,0
8,325,1106.12211667467,1,0,348683.644123681,348684.691138963,0,NumLock20,14,1,1,6,3,5231250,4011101,2190081,0,0,0,0,0,0,-4090090,0,0,1141160,0,0,0,0,0,0,0,0,4011101,0,0,0,0,2190081,0,0,0,0,0,0,0,0,0,0,0,0,0
8,326,519.373088842258,0,0,348686.902853633,348687.949874305,0,NumLock20,14,0,0,9,3,4181070,4180211,0,2201091,0,0,0,0,0,0,0,0,-4181070,1050101,0,0,0,0,0,0,3130110,0,0,0,0,0,0,0,0,0,0,0,0,0,0,0,0,2201091,0,0
8,327,830.747607396916,0,0,348689.526306379,348690.573336674,0,NumLock20,14,0,0,2,7,6411182,9352201,2170041,2150010,0,-1081130,0,0,0,3130021,2200031,0,0,0,0,2040070,3141091,0,0,4171040,0,0,0,0,2170041,0,0,0,0,0,0,0,0,0,0,0,0,0,0,2150010
8,328,1312.67407524865,0,0,348692.526270192,348693.573254293,0,NumLock20,14,0,0,26,3,4131191,0,6331291,2170120,0,0,0,0,4131191,0,0,0,0,0,0,0,0,0,0,0,0,0,0,0,3130151,0,0,0,0,-3201140,0,0,0,0,0,0,2170120,0,0,0
8,329,1582.53632846754,1,0,348695.91442402,348696.961390027,0,NumLock20,14,1,1,15,3,0,16482414,0,0,0,0,0,0,0,0,0,0,0,0,0,4041081,4130121,0,-4141101,0,4170111,0,0,0,0,0,0,0,0,0,0,0,0,0,0,0,0,0,0,0
8,330,596.043453726452,0,0,348699.584848162,348700.631870758,0,NumLock20,14,0,0,21,7,1130141,4130120,7301030,12404470,0,0,0,0,0,0,0,0,1130141,4130120,0,0,0,0,0,0,0,0,0,0,-4180010,0,0,0,0,0,3121020,3201130,4031060,4111120,0,1061160,0,0,0,0
8,331,1433.41939040693,0,0,348702.349476101,348703.396497928,0,NumLock20,14,1,0,35,7,3120090,5291081,9422091,7181211,0,0,0,0,0,0,3120090,0,0,0,0,0,2181061,0,0,3110020,0,0,0,3190040,0,3091041,0,0,3141010,0,0,0,3160190,0,0,0,0,0,-4021021,0
8,332,508.971828618087,0,0,348705.972910754,348707.019919491,0,NumLock20,14,1,0,33,3,2150141,3021111,0,2231260,0,0,0,0,0,0,0,2150141,0,0,3021111,0,0,0,0,0,0,0,0,0,0,0,0,0,0,0,0,1201130,0,0,0,0,-1030130,0,0,0
8,333,616.471022134647,0,0,348708.596361574,348709.643384941,0,NumLock20,14,0,0,4,3,4040201,8312251,4101141,0,0,0,0,-4040201,0,0,0,0,0,0,0,0,0,0,4161191,4151060,0,0,0,0,0,4101141,0,0,0,0,0,0,0,0,0,0,0,0,0,0
8,334,1201.8314957968,1,0,348711.313932656,348712.360949863,0,NumLock20,14,0,1,17,7,3131471,6291221,4071101,6111230,0,1080151,0,1040150,0,0,0,0,1011170,0,0,4091190,0,0,0,0,-2200031,0,0,0,0,4071101,0,0,0,0,0,0,0,2040190,0,0,0,0,0,4071040
8,335,1443.11771192588,1,0,348714.725597974,348715.77262596,0,NumLock20,14,1,1,29,7,10412543,2141160,0,7471490,0,0,1180150,3031071,0,3030131,0,0,3171191,0,0,0,0,0,0,0,2141160,0,0,0,0,0,0,0,0,0,0,4170120,-2110180,1191190,0,0,0,0,0,0
8,336,960.506398521829,0,0,348718.231379317,348719.278404993,0,NumLock20,14,0,0,12,3,0,4202131,3011161,2091010,0,0,0,0,0,0,0,0,0,0,0,-2051080,0,0,0,0,2151051,0,0,0,0,0,3011161,0,0,0,0,0,0,0,0,0,2091010,0,0,0
8,337,797.668681887444,0,0,348725.49000687,348726.537024847,0,NumLock20,15,1,0,24,7,8191051,1190070,3160091,7302443,0,0,4100010,2050011,0,0,0,2041030,0,0,0,0,0,0,1190070,0,0,0,0,0,0,0,0,-3160091,0,0,0,0,0,0,0,0,1020141,4171131,0,2111171
8,338,1454.04482883168,1,0,348728.40757133,348729.454589307,0,NumLock20,15,1,1,36,7,8121332,4160101,10211591,4201291,4091171,0,0,0,4030161,0,0,0,0,0,4160101,0,0,0,0,0,0,0,4020200,2151201,0,0,4040190,0,0,0,0,2111191,0,0,0,0,0,0,0,-2090100
8,339,714.013200427871,0,0,348731.948647819,348732.995663871,0,NumLock20,15,1,0,30,3,4131020,0,5361192,3160121,0,4131020,0,0,0,0,0,0,0,0,0,0,0,0,0,0,0,0,0,0,0,0,0,0,3161081,2200111,0,0,0,-3160121,0,0,0,0,0,0
8,340,1051.64590606,1,0,348734.783857581,348735.830904045,0,NumLock20,15,1,1,29,7,10412543,2141160,0,7471490,0,0,1180150,3031071,0,3030131,0,0,3171191,0,0,0,0,0,0,0,2141160,0,0,0,0,0,0,0,0,0,0,4170120,-2110180,1191190,0,0,0,0,0,0
8,341,691.322831436992,1,1,348738.007296622,348739.054319603,0,NumLock20,15,1,0,6,3,5231250,4011101,2190081,0,0,0,0,0,0,-4090090,0,0,1141160,0,0,0,0,0,0,0,0,4011101,0,0,0,0,2190081,0,0,0,0,0,0,0,0,0,0,0,0,0
8,342,1311.48031126941,0,1,348740.76015207,348741.80718583,0,NumLock20,15,0,1,3,7,6302371,5222351,8133222,0,0,0,-1050090,0,3081080,0,0,0,2171201,0,0,2151190,0,0,0,0,0,3071161,4081121,0,3011030,0,0,0,0,0,1041071,0,0,0,0,0,0,0,0,0
8,343,709.685469279066,0,0,348744.265947657,348745.312969483,0,NumLock20,15,1,0,1,3,2181151,3110160,0,2161120,-2181151,0,0,0,0,0,0,0,0,0,0,0,0,3110160,0,0,0,0,0,0,0,0,0,0,0,0,0,1031110,1130010,0,0,0,0,0,0,0
8,344,1048.61780314241,1,0,348747.159972524,348748.207002049,0,NumLock20,15,0,1,25,7,2180180,3181220,7201111,5291252,0,0,0,0,0,0,0,2180180,0,2121170,0,0,0,1060050,0,0,0,0,0,0,0,0,0,0,-2030010,3061031,2110070,0,0,0,2100191,0,0,0,3191061,0
8,345,652.723180828616,0,0,348750.371695278,348751.418685923,0,NumLock20,15,0,0,2,3,7141161,3140041,1050100,0,4020021,-3121140,0,0,0,0,0,0,0,3140041,0,0,0,0,0,0,0,0,0,0,0,1050100,0,0,0,0,0,0,0,0,0,0,0,0,0,0
8,346,1831.15643588826,0,0,348753.230402286,348754.277424113,0,NumLock20,15,1,0,19,7,4111110,5201151,7311310,5111151,0,0,4111110,0,0,0,0,0,0,0,0,0,0,0,0,0,1121080,4080071,-3200170,0,0,0,2091090,0,0,0,2020050,0,1101081,0,0,0,0,4010070,0,0
8,347,536.679393786471,0,0,348757.159752711,348758.206723723,0,NumLock20,15,1,0,15,3,0,16482414,0,0,0,0,0,0,0,0,0,0,0,0,0,4041081,4130121,0,-4141101,0,4170111,0,0,0,0,0,0,0,0,0,0,0,0,0,0,0,0,0,0,0
8,348,948.862484307028,1,0,348759.77138985,348760.818409367,0,NumLock20,15,0,1,21,7,8280242,3011150,7181171,8281191,4150141,0,0,0,0,4130101,0,0,0,0,0,0,0,0,0,0,0,3011150,0,0,-3090061,0,0,0,0,4091110,0,0,0,4071030,3080071,0,1130090,0,0,0
8,349,1787.14885376394,1,0,348762.783068796,348763.830093317,0,NumLock20,15,0,1,17,7,5312410,6190361,2171011,6281181,0,0,2061180,0,0,1110080,0,0,2141150,0,0,0,0,0,3040190,0,-3150171,0,0,0,0,0,2171011,0,0,0,0,0,0,2091131,0,0,0,0,0,4190050
8,350,988.84491471108,0,0,348766.71237341,348767.759391387,0,NumLock20,15,1,0,33,3,2150141,3021111,0,2231260,0,0,0,0,0,0,0,2150141,0,0,3021111,0,0,0,0,0,0,0,0,0,0,0,0,0,0,0,0,1201130,0,0,0,0,-1030130,0,0,0
8,351,658.396350510884,1,0,348769.888757133,348770.935776264,0,NumLock20,15,1,1,34,3,0,0,5131201,7140341,0,0,0,0,0,0,0,0,0,0,0,0,0,0,0,0,0,0,0,0,4081061,0,0,0,0,0,1050140,0,0,0,0,3050141,0,-4090200,0,0
8,352,1074.4471437647,0,0,348772.735728991,348773.782754667,0,NumLock20,15,0,0,8,3,5181251,2161161,2121190,0,0,0,4090071,0,0,0,0,-1091180,0,2161161,0,0,0,0,0,0,0,0,0,2121190,0,0,0,0,0,0,0,0,0,0,0,0,0,0,0,0
8,353,793.964587559458,1,0,348776.006226045,348777.053257881,0,NumLock20,15,1,1,35,7,3120090,5291081,9422091,7181211,0,0,0,0,0,0,3120090,0,0,0,0,0,2181061,0,0,3110020,0,0,0,3190040,0,3091041,0,0,3141010,0,0,0,3160190,0,0,0,0,0,-4021021,0
8,354,979.495752777439,1,0,348778.935564536,348779.982583668,0,NumLock20,15,1,1,14,7,5161200,8272462,2191090,6160151,0,0,0,4081010,0,0,1080190,0,0,0,0,0,0,-3021130,2090141,3161191,0,0,0,0,0,0,0,0,0,0,2191090,0,0,2010110,0,0,4150041,0,0,0
8,355,571.803616883699,1,0,348782.147233396,348783.194252527,0,NumLock20,15,0,1,9,3,7332401,0,0,1021190,0,0,1071160,4060140,0,0,0,0,-2201101,0,0,0,0,0,0,0,0,0,0,0,0,0,0,0,0,0,0,0,0,0,0,0,0,1021190,0,0
8,356,1655.34668980399,1,0,348784.817743384,348785.8647706,0,NumLock20,15,0,1,4,3,2061200,2131180,3241200,0,0,0,0,-2061200,0,0,0,0,0,0,0,0,2131180,0,0,0,0,0,0,0,1060150,0,2181050,0,0,0,0,0,0,0,0,0,0,0,0,0
8,357,921.258858637884,0,0,348788.60586934,348789.652900791,0,NumLock20,15,0,0,26,3,0,0,5171350,2190060,0,0,0,0,0,0,0,0,0,0,0,0,0,0,0,0,0,0,0,2050090,0,0,2070150,0,0,-1051110,0,0,0,0,0,2190060,0,0,0,0
8,358,711.722682695836,1,0,348791.582283167,348792.629293445,0,NumLock20,15,0,1,23,7,10362452,3090201,5091072,2060041,4171201,0,3010011,0,0,1021110,0,2160130,0,0,0,0,0,3090201,0,0,0,0,0,0,0,0,-3030061,2061011,0,0,0,0,2060041,0,0,0,0,0,0,0
8,359,1082.11672102334,0,0,348794.346895323,348795.393917149,0,NumLock20,15,0,0,10,7,4191110,10332453,1091160,3181463,0,0,0,0,0,0,0,0,4191110,-4170201,0,3091091,3071161,0,0,0,0,0,0,0,0,0,0,1091160,0,0,0,0,0,1020131,1030161,0,0,1131171,0,0
8,360,586.186913249549,0,0,348797.535042683,348798.593826607,0,NumLock20,15,0,0,12,3,0,3170160,5272110,3071050,0,0,0,0,0,0,0,0,0,0,0,-3170160,0,0,0,0,0,0,4181050,0,0,0,0,1091060,0,0,0,0,0,0,0,0,0,3071050,0,0
8,361,1627.86856130697,1,0,348803.828969231,348804.875992212,0,NumLock20,16,1,1,1,3,2181151,3110160,0,2161120,-2181151,0,0,0,0,0,0,0,0,0,0,0,0,3110160,0,0,0,0,0,0,0,0,0,0,0,0,0,1031110,1130010,0,0,0,0,0,0,0
8,362,1614.94811659213,1,0,348807.628873452,348808.675894894,0,NumLock20,16,0,1,9,3,8221202,0,0,3241101,0,4171081,0,0,0,0,0,0,-4050121,0,0,0,0,0,0,0,0,0,0,0,0,0,0,0,0,0,0,0,0,0,0,0,0,0,1060091,2181010
8,363,664.12418463733,0,0,348811.428766125,348812.475791801,0,NumLock20,16,1,0,34,3,0,0,5131201,7140341,0,0,0,0,0,0,0,0,0,0,0,0,0,0,0,0,0,0,0,0,4081061,0,0,0,0,0,1050140,0,0,0,0,3050141,0,-4090200,0,0
8,364,867.897879972588,1,0,348814.16986602,348815.216879378,0,NumLock20,16,1,1,19,7,4111110,5201151,7311310,5111151,0,0,4111110,0,0,0,0,0,0,0,0,0,0,0,0,0,1121080,4080071,-3200170,0,0,0,2091090,0,0,0,2020050,0,1101081,0,0,0,0,4010070,0,0
8,365,1976.47765889997,0,0,348817.193310913,348818.240333894,0,NumLock20,16,0,0,2,7,7170212,9302422,3041141,0,1070041,-2040120,0,0,0,0,0,4060051,0,0,0,2010140,3080110,1021061,0,0,0,3191111,0,0,0,0,0,3041141,0,0,0,0,0,0,0,0,0,0,0,0
8,366,1419.72863877891,0,1,348821.346129251,348822.393157236,0,NumLock20,16,1,1,14,7,5161200,8272462,2191090,6160151,0,0,0,4081010,0,0,1080190,0,0,0,0,0,0,-3021130,2090141,3161191,0,0,0,0,0,0,0,0,0,0,2191090,0,0,2010110,0,0,4150041,0,0,0
8,367,579.797716171015,0,0,348824.851914059,348825.89893935,0,NumLock20,16,0,0,21,3,0,3250131,2151011,1020080,0,0,0,0,0,0,0,0,0,0,2150090,0,0,0,0,0,0,1100041,0,0,-2151011,0,0,0,0,0,0,1020080,0,0,0,0,0,0,0,0
8,368,702.512876654509,0,0,348827.628308715,348828.675329001,0,NumLock20,16,0,0,3,3,9431351,0,3170130,0,0,0,-3190061,3071140,3170150,0,0,0,0,0,0,0,0,0,0,0,0,0,0,0,0,0,3170130,0,0,0,0,0,0,0,0,0,0,0,0,0
8,369,981.583781074733,1,0,348830.440026618,348831.487020728,0,NumLock20,16,0,1,8,3,1071060,0,5160262,4131181,0,0,0,0,0,0,0,-1071060,0,0,0,0,0,0,0,0,0,0,0,4140061,0,0,1020201,0,0,0,0,0,0,4131181,0,0,0,0,0,0
8,370,1613.22541628033,0,0,348833.569320762,348834.616344513,0,NumLock20,16,0,0,10,7,2200130,11393452,4101030,3101170,0,0,0,0,0,0,0,0,2200130,-3181080,0,1090040,1050100,0,0,2021191,4051041,0,4101030,0,0,0,0,0,0,0,0,0,0,3101170,0,0,0,0,0,0
8,371,933.313526154961,1,0,348837.416266828,348838.463292889,0,NumLock20,16,1,1,33,3,2150141,3021111,0,2231260,0,0,0,0,0,0,0,2150141,0,0,3021111,0,0,0,0,0,0,0,0,0,0,0,0,0,0,0,0,1201130,0,0,0,0,-1030130,0,0,0
8,372,1911.70874709496,0,0,348840.533826976,348841.580856502,0,NumLock20,16,0,0,17,7,1020071,2161081,7271220,7211191,0,0,0,0,0,1020071,0,0,0,0,0,0,0,0,0,0,-2161081,0,3050040,1011030,0,0,0,0,2140050,1070100,0,0,3070180,0,0,0,4141011,0,0,0
8,373,1138.10659811134,1,0,348844.592538142,348845.639558044,0,NumLock20,16,0,1,25,7,11422302,4251251,5331051,2160010,0,0,0,0,4041061,0,4191111,0,3190130,0,0,0,0,0,0,0,1081180,3170071,0,0,0,2151041,0,0,-3180010,0,0,0,0,0,2160010,0,0,0,0,0
8,374,1006.05382455979,0,0,348847.839503687,348848.886522434,0,NumLock20,16,1,0,35,7,3120090,5291081,9422091,7181211,0,0,0,0,0,0,3120090,0,0,0,0,0,2181061,0,0,3110020,0,0,0,3190040,0,3091041,0,0,3141010,0,0,0,3160190,0,0,0,0,0,-4021021,0
8,375,1992.11746786023,0,0,348850.945302123,348851.99231933,0,NumLock20,16,0,0,4,7,4340182,3011171,7322031,10281132,0,2180041,0,-2160141,0,0,0,0,0,0,0,0,0,3011171,0,0,0,0,0,0,0,0,4181020,0,3141011,0,0,0,4070021,0,2160010,0,0,0,4051101,0
8,376,1292.9717732477,0,0,348855.180474775,348856.227489287,0,NumLock20,16,1,0,29,7,10412543,2141160,0,7471490,0,0,1180150,3031071,0,3030131,0,0,3171191,0,0,0,0,0,0,0,2141160,0,0,0,0,0,0,0,0,0,0,4170120,-2110180,1191190,0,0,0,0,0,0
8,377,642.406997038051,0,0,348858.650958663,348859.697985109,0,NumLock20,16,1,0,30,3,4131020,0,5361192,3160121,0,4131020,0,0,0,0,0,0,0,0,0,0,0,0,0,0,0,0,0,0,0,0,0,0,3161081,2200111,0,0,0,-3160121,0,0,0,0,0,0
8,378,703.666604647879,0,0,348861.509721106,348862.556729074,0,NumLock20,16,1,0,36,7,8121332,4160101,10211591,4201291,4091171,0,0,0,4030161,0,0,0,0,0,4160101,0,0,0,0,0,0,0,4020200,2151201,0,0,4040190,0,0,0,0,2111191,0,0,0,0,0,0,0,-2090100
8,379,2435.32071256777,1,0,348864.297868235,348865.344885442,0,NumLock20,16,0,1,12,3,3170131,5311211,0,4031111,0,0,0,0,0,0,3170131,0,0,3130110,0,-2181101,0,0,0,0,0,0,0,0,0,0,0,0,0,0,0,0,0,0,0,0,0,4031111,0,0
8,380,2287.76286647189,1,0,348868.815381649,348869.86240386,0,NumLock20,16,1,1,6,3,5231250,4011101,2190081,0,0,0,0,0,0,-4090090,0,0,1141160,0,0,0,0,0,0,0,0,4011101,0,0,0,0,2190081,0,0,0,0,0,0,0,0,0,0,0,0,0
8,381,954.554517113138,1,0,348873.250605808,348874.297591448,0,NumLock20,16,0,1,26,7,4192121,5282311,4363393,0,0,0,2071071,0,0,0,0,0,2121050,0,0,0,3061121,1100090,0,0,1121100,0,0,0,2161031,1141181,0,0,0,-1061181,0,0,0,0,0,0,0,0,0,0
8,382,449.111939058639,1,0,348876.262235863,348877.309255765,0,NumLock20,16,1,1,15,3,0,16482414,0,0,0,0,0,0,0,0,0,0,0,0,0,4041081,4130121,0,-4141101,0,4170111,0,0,0,0,0,0,0,0,0,0,0,0,0,0,0,0,0,0,0
8,383,669.941714673769,1,0,348878.909220887,348879.956238864,0,NumLock20,16,0,1,23,3,0,4180041,9522382,0,0,0,0,0,0,0,0,0,0,0,0,0,0,4180041,0,0,0,0,0,0,0,3151091,-2191201,0,0,0,4180090,0,0,0,0,0,0,0,0,0
8,384,1731.57627432374,0,0,348881.744442583,348882.791505985,0,NumLock20,16,1,0,24,7,8191051,1190070,3160091,7302443,0,0,4100010,2050011,0,0,0,2041030,0,0,0,0,0,0,1190070,0,0,0,0,0,0,0,0,-3160091,0,0,0,0,0,0,0,0,1020141,4171131,0,2111171
8,385,1270.21134132519,0,0,348888.908928702,348889.955964772,0,NumLock20,17,1,0,1,3,2181151,3110160,0,2161120,-2181151,0,0,0,0,0,0,0,0,0,0,0,0,3110160,0,0,0,0,0,0,0,0,0,0,0,0,0,1031110,1130010,0,0,0,0,0,0,0
8,386,1661.49952082196,0,0,348892.379427604,348893.426451355,0,NumLock20,17,0,0,9,7,13313410,7150252,1070171,2130160,0,3061180,0,0,0,4161090,2040040,0,-4051100,3010151,0,0,0,0,0,0,0,4140101,0,0,0,0,0,0,0,0,1070171,0,2130160,0,0,0,0,0,0,0
8,387,2211.11020975513,0,0,348896.155789923,348897.202814059,0,NumLock20,17,0,0,2,7,9352371,3020141,8322241,0,0,-4091091,1090040,0,0,0,3151040,1020200,0,0,0,0,0,0,0,0,0,3020141,2040010,4201141,0,0,0,0,2081090,0,0,0,0,0,0,0,0,0,0,0
8,388,1082.08630909212,0,0,348900.485087454,348901.532100041,0,NumLock20,17,1,0,30,3,4131020,0,5361192,3160121,0,4131020,0,0,0,0,0,0,0,0,0,0,0,0,0,0,0,0,0,0,0,0,0,0,3161081,2200111,0,0,0,-3160121,0,0,0,0,0,0
8,389,638.281755323987,0,0,348903.755577578,348904.802597865,0,NumLock20,17,0,0,21,3,3061150,2091021,5251270,0,0,0,3061150,0,0,0,0,0,0,0,0,2091021,0,0,0,0,0,0,0,0,-3090140,2161130,0,0,0,0,0,0,0,0,0,0,0,0,0,0
8,390,712.913366907742,0,0,348906.531969155,348907.578987516,0,NumLock20,17,1,0,6,3,5231250,4011101,2190081,0,0,0,0,0,0,-4090090,0,0,1141160,0,0,0,0,0,0,0,0,4011101,0,0,0,0,2190081,0,0,0,0,0,0,0,0,0,0,0,0,0
8,391,671.767969499342,1,0,348909.320130912,348910.367152354,0,NumLock20,17,0,1,17,3,4131160,6281372,0,0,0,0,0,0,4131160,0,0,0,0,0,1051151,0,0,3080100,0,0,-2150121,0,0,0,0,0,0,0,0,0,0,0,0,0,0,0,0,0,0,0
8,392,3177.34104930423,0,0,348912.202394837,348913.249425517,0,NumLock20,17,1,0,33,3,2150141,3021111,0,2231260,0,0,0,0,0,0,0,2150141,0,0,3021111,0,0,0,0,0,0,0,0,0,0,0,0,0,0,0,0,1201130,0,0,0,0,-1030130,0,0,0
8,393,725.886936299503,1,0,348917.472841461,348918.519857128,0,NumLock20,17,1,1,35,7,3120090,5291081,9422091,7181211,0,0,0,0,0,0,3120090,0,0,0,0,0,2181061,0,0,3110020,0,0,0,3190040,0,3091041,0,0,3141010,0,0,0,3160190,0,0,0,0,0,-4021021,0
8,394,1049.33729517506,0,0,348920.331586965,348921.378606482,0,NumLock20,17,0,0,8,7,9443290,0,4171320,3391253,0,3171170,0,0,0,0,3121060,-3151060,0,0,0,0,0,0,0,0,0,0,0,0,0,0,3140120,1031200,0,0,0,0,1150091,1040071,1201091,0,0,0,0,0
8,395,100.611400499474,0,1,348923.578553665,348924.625576647,0,NumLock20,17,0,1,23,3,3131181,1040151,2091120,1080011,0,0,0,0,0,0,3131181,0,0,0,1040151,0,0,0,0,0,0,0,0,0,0,0,-2091120,0,0,0,0,0,0,0,0,0,1080011,0,0,0
8,396,524.688244855497,1,0,348925.907898931,348926.954956174,0,NumLock20,17,1,1,15,3,0,16482414,0,0,0,0,0,0,0,0,0,0,0,0,0,4041081,4130121,0,-4141101,0,4170111,0,0,0,0,0,0,0,0,0,0,0,0,0,0,0,0,0,0,0
8,397,849.149126268458,0,0,348928.67252918,348929.719547157,0,NumLock20,17,0,0,4,3,2131181,4190090,2071070,0,0,0,0,-1011071,0,0,1120110,0,0,0,0,0,0,0,4190090,0,0,0,0,0,0,2071070,0,0,0,0,0,0,0,0,0,0,0,0,0,0
8,398,706.186944036745,1,0,348931.625424587,348932.672406378,0,NumLock20,17,1,1,19,7,4111110,5201151,7311310,5111151,0,0,4111110,0,0,0,0,0,0,0,0,0,0,0,0,0,1121080,4080071,-3200170,0,0,0,2091090,0,0,0,2020050,0,1101081,0,0,0,0,4010070,0,0
8,399,1405.35958600231,0,0,348934.472362569,348935.51938786,0,NumLock20,17,1,0,24,7,8191051,1190070,3160091,7302443,0,0,4100010,2050011,0,0,0,2041030,0,0,0,0,0,0,1190070,0,0,0,0,0,0,0,0,-3160091,0,0,0,0,0,0,0,0,1020141,4171131,0,2111171
8,400,2811.30977353314,0,0,348937.978142373,348939.025178443,0,NumLock20,17,0,0,3,7,8371221,5530512,0,4321160,0,0,-3051061,2120120,0,3200040,0,0,0,0,2140161,0,2190160,0,1200191,0,0,0,0,0,0,0,0,0,0,0,0,0,0,0,1160140,0,0,0,3161020,0
8,401,2348.32723462023,1,0,348942.96623861,348944.013258512,0,NumLock20,17,1,1,34,3,0,0,5131201,7140341,0,0,0,0,0,0,0,0,0,0,0,0,0,0,0,0,0,0,0,0,4081061,0,0,0,0,0,1050140,0,0,0,0,3050141,0,-4090200,0,0
8,402,458.597762044519,1,0,348947.530823896,348948.577838408,0,NumLock20,17,1,1,29,7,10412543,2141160,0,7471490,0,0,1180150,3031071,0,3030131,0,0,3171191,0,0,0,0,0,0,0,2141160,0,0,0,0,0,0,0,0,0,0,4170120,-2110180,1191190,0,0,0,0,0,0
8,403,889.70822817646,1,0,348950.130752832,348951.177809305,0,NumLock20,17,0,1,26,3,0,0,7252241,4182081,0,0,0,0,0,0,0,0,0,0,0,0,0,0,0,0,0,0,0,0,0,0,0,3101190,0,-4151051,0,0,0,0,1081071,0,0,0,0,3101010
8,404,556.7551079439,1,0,348953.130693163,348954.177678803,0,NumLock20,17,0,1,10,3,0,4140152,2010071,1010051,0,0,0,0,0,0,0,0,0,-1130101,3010051,0,0,0,0,0,0,0,0,2010071,0,0,0,0,0,0,0,0,0,0,1010051,0,0,0,0,0
8,405,566.269803093746,0,0,348955.895297234,348956.942308282,0,NumLock20,17,1,0,14,7,5161200,8272462,2191090,6160151,0,0,0,4081010,0,0,1080190,0,0,0,0,0,0,-3021130,2090141,3161191,0,0,0,0,0,0,0,0,0,0,2191090,0,0,2010110,0,0,4150041,0,0,0
8,406,682.888336770702,1,1,348958.683448598,348959.730462725,0,NumLock20,17,0,0,12,7,7321182,10552412,1190050,4170040,0,0,0,0,0,1060141,4061010,0,2200031,0,0,-2201170,4190171,0,4161071,0,0,0,0,0,0,0,0,1190050,0,0,0,0,0,4170040,0,0,0,0,0,0
8,407,1177.55739734275,1,0,348961.565730231,348962.612737044,0,NumLock20,17,0,1,25,7,7120151,9191191,4181181,4142071,0,4090070,0,0,3030081,0,0,0,0,0,3020030,2140140,0,0,0,0,0,4031021,0,0,0,0,0,0,-4181181,0,0,2131051,0,0,2011020,0,0,0,0,0
8,408,845.03697330365,1,0,348964.836208037,348965.883233328,0,NumLock20,17,1,1,36,7,8121332,4160101,10211591,4201291,4091171,0,0,0,4030161,0,0,0,0,0,4160101,0,0,0,0,0,0,0,4020200,2151201,0,0,4040190,0,0,0,0,2111191,0,0,0,0,0,0,0,-2090100
8,409,591.998668853194,1,0,348971.82424345,348972.871271051,0,NumLock20,18,0,1,9,7,9472272,4352161,3080030,4301280,0,2131180,4141031,0,0,0,0,0,-3200061,0,0,1191090,0,0,0,3161071,0,0,0,0,0,0,0,0,3080030,0,0,0,2100130,0,0,0,0,2201150,0,0
8,410,1328.20571010234,1,0,348974.48300443,348975.530023562,0,NumLock20,18,0,1,17,7,6281191,5131250,9121213,0,0,0,0,1070080,1091060,0,4120051,0,0,0,0,0,0,0,1060050,0,-4071200,0,3040041,0,0,0,0,2060031,0,4021141,0,0,0,0,0,0,0,0,0,0
8,411,516.791925590951,1,0,348978.012309583,348979.059333719,0,NumLock20,18,1,1,24,7,8191051,1190070,3160091,7302443,0,0,4100010,2050011,0,0,0,2041030,0,0,0,0,0,0,1190070,0,0,0,0,0,0,0,0,-3160091,0,0,0,0,0,0,0,0,1020141,4171131,0,2111171
8,412,988.846839522012,1,0,348980.612240444,348981.659255726,0,NumLock20,18,0,1,4,7,11303371,0,7221342,5241191,0,0,0,-2100040,2111191,0,3051050,0,4041090,0,0,0,0,0,0,0,0,0,4190201,0,0,3031141,0,0,0,0,0,0,0,0,4070041,0,0,0,1171150,0
8,413,826.377915509511,1,0,348983.77685822,348984.823881202,0,NumLock20,18,1,1,36,7,8121332,4160101,10211591,4201291,4091171,0,0,0,4030161,0,0,0,0,0,4160101,0,0,0,0,0,0,0,4020200,2151201,0,0,4040190,0,0,0,0,2111191,0,0,0,0,0,0,0,-2090100
8,414,748.595013457816,0,0,348986.741477228,348987.78850175,0,NumLock20,18,1,0,33,3,2150141,3021111,0,2231260,0,0,0,0,0,0,0,2150141,0,0,3021111,0,0,0,0,0,0,0,0,0,0,0,0,0,0,0,0,1201130,0,0,0,0,-1030130,0,0,0
8,415,622.07913340535,1,0,348989.61199022,348990.659005887,0,NumLock20,18,1,1,15,3,0,16482414,0,0,0,0,0,0,0,0,0,0,0,0,0,4041081,4130121,0,-4141101,0,4170111,0,0,0,0,0,0,0,0,0,0,0,0,0,0,0,0,0,0,0
8,416,577.170742617454,1,0,348992.306028252,348993.353049694,0,NumLock20,18,0,1,10,3,2040060,1190030,0,4041271,2040060,0,0,0,0,0,0,0,0,-1190030,0,0,0,0,0,0,0,0,0,0,0,0,0,0,0,0,0,0,0,0,3030180,0,0,0,1011091,0
8,417,1304.37277705641,1,0,348994.964777298,348996.01179489,0,NumLock20,18,1,1,6,3,5231250,4011101,2190081,0,0,0,0,0,0,-4090090,0,0,1141160,0,0,0,0,0,0,0,0,4011101,0,0,0,0,2190081,0,0,0,0,0,0,0,0,0,0,0,0,0
8,418,661.09069227241,1,0,348998.447029058,348999.49404742,0,NumLock20,18,0,1,25,3,0,2051161,6280151,2090160,0,0,0,0,0,0,0,0,0,0,0,0,0,0,0,0,2051161,0,0,0,0,0,0,3150060,-3130091,0,0,0,0,0,0,0,2090160,0,0,0
8,419,1109.93977449834,0,0,349001.341066244,349002.388088071,0,NumLock20,18,1,0,1,3,2181151,3110160,0,2161120,-2181151,0,0,0,0,0,0,0,0,0,0,0,0,3110160,0,0,0,0,0,0,0,0,0,0,0,0,0,1031110,1130010,0,0,0,0,0,0,0
8,420,621.525174588896,1,0,349004.670380713,349005.717408699,0,NumLock20,18,0,1,3,3,4121040,2130020,2031010,3110181,0,0,-4121040,0,0,0,0,0,0,0,0,0,0,0,0,0,0,2130020,0,0,2031010,0,0,0,0,0,0,0,0,0,0,0,3110181,0,0,0
8,421,688.988813140895,1,0,349007.435017121,349008.482038948,0,NumLock20,18,1,1,19,7,4111110,5201151,7311310,5111151,0,0,4111110,0,0,0,0,0,0,0,0,0,0,0,0,0,1121080,4080071,-3200170,0,0,0,2091090,0,0,0,2020050,0,1101081,0,0,0,0,4010070,0,0
8,422,624.886268749833,0,0,349010.234933662,349011.281956258,0,NumLock20,18,0,0,8,7,4201090,2111191,4071120,8561432,0,3151040,0,0,0,0,0,-1050050,0,0,0,0,0,0,0,2111191,0,0,0,0,0,4071120,0,0,0,0,0,0,3081101,3150010,0,1160120,0,0,1170201,0
8,423,566.013034142088,0,0,349012.987802968,349014.034825565,0,NumLock20,18,0,0,23,3,0,3130191,4100150,6282141,0,0,0,0,0,0,0,0,0,0,0,0,0,0,0,0,3130191,0,0,0,0,0,-4100150,0,0,0,0,0,0,0,0,3191090,3091051,0,0,0
8,424,1163.79427310312,1,0,349015.775960491,349016.822976159,0,NumLock20,18,1,1,14,7,5161200,8272462,2191090,6160151,0,0,0,4081010,0,0,1080190,0,0,0,0,0,0,-3021130,2090141,3161191,0,0,0,0,0,0,0,0,0,0,2191090,0,0,2010110,0,0,4150041,0,0,0
8,425,1490.58686307399,0,0,349019.058214638,349020.105243394,0,NumLock20,18,0,0,2,7,8311052,11391112,6162171,2121200,0,-4201011,0,0,0,0,4110041,0,0,0,0,4160040,0,3090011,0,0,0,4141061,0,4101031,0,2061140,0,0,0,0,0,0,0,0,0,0,0,0,0,2121200
8,426,1317.748630594,0,0,349022.716991401,349023.7639909,0,NumLock20,18,0,0,12,7,3101150,3150211,2111040,13563433,0,0,3101150,0,0,0,0,0,0,0,2010051,-1140160,0,0,0,0,0,0,0,0,0,0,0,0,2111040,0,0,0,0,0,4161111,3141081,2161071,4100170,0,0
8,427,1337.32736011734,0,0,349026.093311144,349027.14033605,0,NumLock20,18,1,0,35,7,3120090,5291081,9422091,7181211,0,0,0,0,0,0,3120090,0,0,0,0,0,2181061,0,0,3110020,0,0,0,3190040,0,3091041,0,0,3141010,0,0,0,3160190,0,0,0,0,0,-4021021,0
8,428,801.08675028896,0,0,349029.528515285,349030.575533647,0,NumLock20,18,1,0,30,3,4131020,0,5361192,3160121,0,4131020,0,0,0,0,0,0,0,0,0,0,0,0,0,0,0,0,0,0,0,0,0,0,3161081,2200111,0,0,0,-3160121,0,0,0,0,0,0
8,429,599.754477385432,0,0,349032.399009028,349033.446038169,0,NumLock20,18,0,0,21,3,4261300,0,1090111,2050040,0,0,0,0,3101150,0,1160150,0,0,0,0,0,0,0,0,0,0,0,0,0,-1090111,0,0,0,0,0,0,0,0,0,0,0,0,0,0,2050040
8,430,716.826495132409,0,0,349035.257757997,349036.304774819,0,NumLock20,18,1,0,34,3,0,0,5131201,7140341,0,0,0,0,0,0,0,0,0,0,0,0,0,0,0,0,0,0,0,0,4081061,0,0,0,0,0,1050140,0,0,0,0,3050141,0,-4090200,0,0
8,431,895.534227369353,0,0,349038.187077625,349039.23411254,0,NumLock20,18,0,0,26,3,0,0,3262291,5120251,0,0,0,0,0,0,0,0,0,0,0,0,0,0,0,0,0,0,0,0,0,0,0,2091120,0,-1171171,0,0,0,0,4030171,0,1090080,0,0,0
8,432,1128.70392663172,0,0,349041.292892229,349042.339906357,0,NumLock20,18,1,0,29,7,10412543,2141160,0,7471490,0,0,1180150,3031071,0,3030131,0,0,3171191,0,0,0,0,0,0,0,2141160,0,0,0,0,0,0,0,0,0,0,4170120,-2110180,1191190,0,0,0,0,0,0
8,433,708.465527975932,0,0,349047.727990121,349048.775019647,0,NumLock20,19,1,0,29,7,10412543,2141160,0,7471490,0,0,1180150,3031071,0,3030131,0,0,3171191,0,0,0,0,0,0,0,2141160,0,0,0,0,0,0,0,0,0,0,4170120,-2110180,1191190,0,0,0,0,0,0
8,434,704.615148482844,0,0,349050.680856271,349051.727876558,0,NumLock20,19,0,0,3,3,6232152,3191080,0,4091150,0,3201141,-3031011,0,0,0,0,0,0,0,0,0,0,0,3191080,0,0,0,0,0,0,0,0,0,0,0,0,0,0,0,0,0,0,0,4091150,0
8,435,899.424257921055,1,0,349053.469012254,349054.516031386,0,NumLock20,19,1,1,36,7,8121332,4160101,10211591,4201291,4091171,0,0,0,4030161,0,0,0,0,0,4160101,0,0,0,0,0,0,0,4020200,2151201,0,0,4040190,0,0,0,0,2111191,0,0,0,0,0,0,0,-2090100
8,436,862.079964950681,1,0,349056.551276872,349057.598299468,0,NumLock20,19,1,1,35,7,3120090,5291081,9422091,7181211,0,0,0,0,0,0,3120090,0,0,0,0,0,2181061,0,0,3110020,0,0,0,3190040,0,3091041,0,0,3141010,0,0,0,3160190,0,0,0,0,0,-4021021,0
8,437,555.255685001612,0,0,349059.61001768,349060.65704682,0,NumLock20,19,1,0,30,3,4131020,0,5361192,3160121,0,4131020,0,0,0,0,0,0,0,0,0,0,0,0,0,0,0,0,0,0,0,0,0,0,3161081,2200111,0,0,0,-3160121,0,0,0,0,0,0
8,438,1296.65854433551,1,0,349062.221709098,349063.268729,0,NumLock20,19,1,1,24,7,8191051,1190070,3160091,7302443,0,0,4100010,2050011,0,0,0,2041030,0,0,0,0,0,0,1190070,0,0,0,0,0,0,0,0,-3160091,0,0,0,0,0,0,0,0,1020141,4171131,0,2111171
8,439,583.000976359472,1,0,349065.586314863,349066.633342464,0,NumLock20,19,1,1,15,3,0,16482414,0,0,0,0,0,0,0,0,0,0,0,0,0,4041081,4130121,0,-4141101,0,4170111,0,0,0,0,0,0,0,0,0,0,0,0,0,0,0,0,0,0,0
8,440,1308.03414073307,0,0,349068.233304122,349069.280328643,0,NumLock20,19,0,0,25,7,7251161,0,5171261,9394492,0,3190070,0,0,4061091,0,0,0,0,0,0,0,0,0,0,0,0,0,3110141,0,0,0,0,0,-2061120,0,0,0,0,2041120,4091150,0,0,0,1081101,2181121
8,441,1075.23939351086,1,0,349071.644970595,349072.691995501,0,NumLock20,19,0,1,2,7,5213132,2181021,3010161,5421462,1061071,-3021030,0,0,0,0,0,0,1131031,0,0,0,2181021,0,0,0,0,0,0,0,0,0,0,0,3010161,0,0,0,0,2090121,0,1151171,0,2180170,0,0
8,442,954.822834930383,1,0,349074.868413871,349075.915484972,0,NumLock20,19,0,1,17,7,3091050,9572414,3201202,1130110,0,3091050,0,0,0,0,0,0,0,0,0,0,1130121,4111091,3131101,0,-1200101,0,0,0,0,0,2091141,0,0,0,1110061,0,0,0,0,1130110,0,0,0,0
8,443,748.537269304506,0,0,349077.903613161,349078.950643457,0,NumLock20,19,0,0,4,3,7220331,2051170,0,3150071,0,0,0,-3140161,0,0,0,4080170,0,0,0,0,0,0,0,2051170,0,0,0,0,0,0,0,0,0,0,0,3150071,0,0,0,0,0,0,0,0
8,444,810.801625077147,1,0,349080.809422453,349081.856436965,0,NumLock20,19,1,1,14,7,5161200,8272462,2191090,6160151,0,0,0,4081010,0,0,1080190,0,0,0,0,0,0,-3021130,2090141,3161191,0,0,0,0,0,0,0,0,0,0,2191090,0,0,2010110,0,0,4150041,0,0,0
8,445,652.821730822325,1,0,349083.809335837,349084.856388075,0,NumLock20,19,1,1,33,3,2150141,3021111,0,2231260,0,0,0,0,0,0,0,2150141,0,0,3021111,0,0,0,0,0,0,0,0,0,0,0,0,0,0,0,0,1201130,0,0,0,0,-1030130,0,0,0
8,446,1582.08592416486,1,0,349086.621019479,349087.668045155,0,NumLock20,19,1,1,19,7,4111110,5201151,7311310,5111151,0,0,4111110,0,0,0,0,0,0,0,0,0,0,0,0,0,1121080,4080071,-3200170,0,0,0,2091090,0,0,0,2020050,0,1101081,0,0,0,0,4010070,0,0
8,447,934.657424862962,0,0,349090.350330714,349091.397352156,0,NumLock20,19,0,0,12,7,2131140,7191092,14591420,4030070,2131140,0,0,0,0,0,0,0,0,0,0,-4051071,0,0,0,0,0,3140021,0,0,0,0,4131010,4120130,2170110,4170170,0,0,0,0,0,4030070,0,0,0,0
8,448,1029.74393713521,0,0,349093.350296068,349094.397299801,0,NumLock20,19,0,0,26,3,0,2290332,3031132,0,0,0,0,0,0,0,0,0,0,1190131,0,0,0,0,0,0,0,1100201,0,0,0,0,0,0,1010121,-2021011,0,0,0,0,0,0,0,0,0,0
8,449,893.18981510587,0,0,349096.467800012,349097.514823378,0,NumLock20,19,1,0,6,3,5231250,4011101,2190081,0,0,0,0,0,0,-4090090,0,0,1141160,0,0,0,0,0,0,0,0,4011101,0,0,0,0,2190081,0,0,0,0,0,0,0,0,0,0,0,0,0
8,450,507.882774050813,1,0,349099.503013161,349100.550031908,0,NumLock20,19,0,1,10,7,2181022,1071071,2221171,7251201,0,0,0,0,0,0,1160011,0,1021011,-1071071,0,0,0,0,0,0,0,0,0,0,0,0,0,0,0,1020111,1201060,2011021,3100020,0,0,0,0,0,2140160,0
8,451,411.755712353624,0,0,349102.09122581,349103.138197977,0,NumLock20,19,0,0,23,3,4051050,3332072,3171171,0,0,0,0,0,0,0,0,0,4051050,0,2191011,0,0,1141061,0,0,0,0,0,0,0,0,-3171171,0,0,0,0,0,0,0,0,0,0,0,0,0
8,452,805.200058151968,0,0,349104.714631976,349105.761652262,0,NumLock20,19,0,0,8,7,18642562,5231261,2081101,0,0,0,4030010,4140110,2150190,0,4141061,-4181191,0,0,0,0,0,0,4170141,0,1061120,0,0,0,0,0,0,0,0,2081101,0,0,0,0,0,0,0,0,0,0
