sub_id,Trial,RT,Resp,Error,Fix_onset,Disp_onset,q1,q2,block,repeat,tid,tloc,d_setsize,quad1,quad2,quad3,quad4,loc1,loc2,loc3,loc4,loc5,loc6,loc7,loc8,loc9,loc10,loc11,loc12,loc13,loc14,loc15,loc16,loc17,loc18,loc19,loc20,loc21,loc22,loc23,loc24,loc25,loc26,loc27,loc28,loc29,loc30,loc31,loc32,loc33,loc34,loc35,loc36
1,1,647.6577964,0,1,335599.0649,335600.1119,1,20,1,0,1,30,7,8341391,4120030,12231363,1070171,1200201,0,3020160,0,0,0,0,4121030,0,0,0,0,0,0,0,0,4120030,0,0,0,4030201,0,0,4081151,0,4120011,0,0,0,-1070171,0,0,0,0,0,0
1,2,381.0399941,1,0,335601.9354,335602.9824,1,20,1,0,1,22,7,3120191,0,8411391,9232521,0,0,3120191,0,0,0,0,0,0,0,0,0,0,0,0,0,0,0,1060111,0,3120020,-2091150,0,0,0,0,2140110,0,0,4021170,0,2040160,0,0,3171191,0
1,3,467.1007117,0,0,335604.3824,335605.4294,1,20,1,1,0,28,7,6221132,1141180,5251110,8131232,0,0,3120061,0,0,0,3101071,0,0,0,0,1141180,0,0,0,0,0,0,0,2091070,0,0,0,0,0,3160040,0,-3060061,1031111,4040060,0,0,0,0,0,0
1,4,631.6495799,1,0,335607.0647,335608.1117,1,20,1,1,1,21,7,5241201,3142231,5121041,6200242,0,0,0,1180080,4061121,0,0,0,0,1071101,2071130,0,0,0,0,0,0,0,0,0,-3010010,0,0,2111031,0,0,0,0,4070171,0,0,0,0,2130071,0,0
1,5,614.7762897,0,1,335609.8528,335610.8996,1,20,1,0,1,20,3,2080180,0,6421311,0,0,0,0,2080180,0,0,0,0,0,0,0,0,0,0,0,0,0,0,4190170,-1041041,0,0,1190100,0,0,0,0,0,0,0,0,0,0,0,0,0
1,6,381.2755903,0,1,335612.641,335613.688,1,20,1,1,1,35,3,0,8281361,0,3071091,0,0,0,0,0,0,0,0,0,0,0,3010120,0,0,2200121,3071120,0,0,0,0,0,0,0,0,0,0,0,0,0,0,0,0,0,0,-3071091,0
1,7,416.8163411,1,1,335615.1703,335616.2173,1,20,1,1,0,12,3,3100171,5052190,0,2070011,3100171,0,0,0,0,0,0,0,0,0,0,-1021120,4031070,0,0,0,0,0,0,0,0,0,0,0,0,0,0,0,0,0,2070011,0,0,0,0,0
1,8,363.4187912,0,0,335617.6879,335618.7349,1,20,1,1,0,2,7,7303342,3091011,5451411,4091090,0,-1201130,0,0,0,0,4061151,2041061,0,0,0,0,0,0,0,3091011,0,0,0,0,3140190,0,0,0,1131060,1180161,0,4091090,0,0,0,0,0,0,0,0
1,9,641.3274984,0,1,335620.2878,335621.3348,1,20,1,0,1,27,7,9400332,0,10363623,3190100,0,0,4150101,1200151,0,4050080,0,0,0,0,0,0,0,0,0,0,0,0,4171161,0,2081190,0,0,3031071,0,0,-1080201,3190100,0,0,0,0,0,0,0,0
1,10,377.1926943,1,0,335623.123,335624.1701,1,20,1,1,1,31,3,0,5241381,1121141,3101061,0,0,0,0,0,0,0,0,0,0,0,0,3060190,0,0,0,2181191,0,0,0,0,0,1121141,0,0,0,0,0,0,0,-3101061,0,0,0,0,0
1,11,852.8535375,1,1,335625.6524,335626.6994,1,20,1,1,0,6,3,2110141,1181040,3080131,1201150,0,0,0,0,0,-2110141,0,0,0,0,0,0,0,0,0,1181040,0,0,0,0,3080131,0,0,0,0,0,0,0,0,0,0,1201150,0,0,0,0
1,12,320.0945146,0,0,335628.7111,335629.7581,1,20,1,1,0,4,7,5270341,7251250,3202242,4200171,0,0,0,-3130190,0,0,2140151,0,0,0,4080150,0,0,0,0,3171100,0,0,0,0,1090101,0,0,0,0,1031060,1081081,0,0,0,0,4200171,0,0,0,0
1,13,399.6366883,1,1,335631.0993,335632.1463,1,20,1,0,0,33,3,0,9251372,0,2081151,0,0,0,0,0,0,0,0,0,0,0,3090161,0,3101180,0,0,0,3060031,0,0,0,0,0,0,0,0,0,0,0,0,0,0,-2081151,0,0,0
1,14,370.5471132,0,0,335633.6874,335634.7345,1,20,1,0,0,36,3,4180180,0,0,6282221,0,0,0,0,0,0,0,0,4180180,0,0,0,0,0,0,0,0,0,0,0,0,0,0,0,0,0,0,0,0,0,0,2141171,3120030,0,0,-1021020
1,15,428.6003811,1,1,335636.1815,335637.2285,1,20,1,1,0,24,7,2180131,2151191,11373561,6111201,2180131,0,0,0,0,0,0,0,0,0,0,0,0,0,0,0,0,2151191,3080100,0,0,0,3091180,-1121170,0,4081111,0,0,0,0,0,4041091,0,0,2070110,0
1,16,346.9782633,0,1,335638.7461,335639.7932,1,20,1,0,1,1,3,5372241,4010041,0,2090080,-2181090,3191151,0,0,0,0,0,0,0,4010041,0,0,0,0,0,0,0,0,0,0,0,0,0,0,0,0,0,0,0,2090080,0,0,0,0,0,0
1,17,266.8201522,1,0,335641.1931,335642.2401,1,20,1,0,1,8,3,1121111,2351170,0,1151131,0,0,0,0,0,0,0,-1121111,0,0,0,1151110,0,1200060,0,0,0,0,0,0,0,0,0,0,0,0,0,0,1151131,0,0,0,0,0,0,0
1,18,669.0469973,0,0,335643.6048,335644.6518,1,20,1,1,0,19,7,6461200,2231302,3130101,8261201,1140130,0,3201010,0,0,2120060,0,0,0,0,0,0,0,1071111,0,0,0,1160191,-3130101,0,0,0,0,0,0,0,0,4160101,0,0,0,0,0,4101100,0,0
1,19,304.0782138,1,0,335646.4989,335647.5459,1,20,1,1,1,34,3,3051201,0,6242301,3171190,0,0,0,0,3051201,0,0,0,0,0,0,0,0,0,0,0,0,0,0,3091131,0,3151170,0,0,0,0,0,0,0,0,0,0,0,-3171190,0,0
1,20,249.4942142,0,0,335648.9694,335650.0164,1,20,1,0,0,13,7,3322351,9311271,2080060,6310191,0,0,0,0,0,2191201,1131150,0,0,0,0,0,-2020080,0,3091150,0,4200041,0,0,0,0,0,0,0,0,0,2080060,0,0,0,0,0,3130131,3180060,0,0
1,21,255.1115645,1,1,335651.4517,335652.4987,1,20,1,1,0,5,3,2161031,4361362,2010080,0,0,0,0,0,-2161031,0,0,0,0,0,0,1161181,0,0,3200181,0,0,0,2010080,0,0,0,0,0,0,0,0,0,0,0,0,0,0,0,0,0
1,22,299.096819,0,1,335653.9457,335654.9927,1,20,1,0,1,29,7,10251252,1051011,2030141,6292283,0,2030071,0,0,4181130,0,4040051,0,0,0,0,1051011,0,0,0,0,0,0,0,0,0,2030141,0,0,0,0,0,0,-1020101,0,0,0,1171021,0,4101161,0
1,23,346.803876,1,0,335656.3221,335657.3691,1,20,1,0,1,14,7,1040020,4141201,8432332,5341292,0,1040020,0,0,0,0,0,0,0,0,0,1121171,0,-3020030,0,0,0,0,0,0,0,4171071,1060080,0,0,3201181,0,0,0,0,0,0,0,4141101,0,1200191
1,24,280.8115583,0,0,335658.8279,335659.875,1,20,1,0,0,32,3,4121171,2131050,4030201,2051021,0,0,0,0,0,0,0,0,4121171,0,0,0,0,0,0,0,0,2131050,0,0,4030201,0,0,0,0,0,0,0,0,0,0,-2051021,0,0,0,0
1,25,473.0137121,0,0,335672.7217,335673.7687,1,20,2,0,0,8,3,7330212,0,0,3141040,0,0,0,0,3050110,0,0,-2100071,2180031,0,0,0,0,0,0,0,0,0,0,0,0,0,0,0,0,0,0,0,0,0,0,0,0,3141040,0,0
1,26,376.455879,1,1,335675.3451,335676.3921,1,20,2,1,0,19,7,6461200,2231302,3130101,8261201,1140130,0,3201010,0,0,2120060,0,0,0,0,0,0,0,1071111,0,0,0,1160191,-3130101,0,0,0,0,0,0,0,0,4160101,0,0,0,0,0,4101100,0,0
1,27,686.7586662,0,1,335677.9098,335678.9568,1,20,2,0,1,1,7,6301351,0,12360331,7302261,-4110200,0,1071110,1120041,0,0,0,0,0,0,0,0,0,0,0,0,0,0,0,4110191,4200120,4050020,0,0,0,0,0,0,0,0,4171060,0,0,0,3131201,0
1,28,428.7516707,1,1,335680.6979,335681.745,1,20,2,1,0,2,7,7303342,3091011,5451411,4091090,0,-1201130,0,0,0,0,4061151,2041061,0,0,0,0,0,0,0,3091011,0,0,0,0,3140190,0,0,0,1131060,1180161,0,4091090,0,0,0,0,0,0,0,0
1,29,541.400487,1,1,335683.2861,335684.3331,1,20,2,1,0,35,3,0,8281361,0,3071091,0,0,0,0,0,0,0,0,0,0,0,3010120,0,0,2200121,3071120,0,0,0,0,0,0,0,0,0,0,0,0,0,0,0,0,0,0,-3071091,0
1,30,513.1836185,1,0,335685.9213,335686.9683,1,20,2,1,1,6,3,2110141,1181040,3080131,1201150,0,0,0,0,0,-2110141,0,0,0,0,0,0,0,0,0,1181040,0,0,0,0,3080131,0,0,0,0,0,0,0,0,0,0,1201150,0,0,0,0
1,31,418.4751378,0,1,335688.533,335689.58,1,20,2,0,1,22,3,0,3151091,2031121,2372261,0,0,0,0,0,0,0,0,0,0,0,0,0,0,0,0,0,3151091,0,0,0,-2031121,0,0,0,0,0,0,0,1171161,0,0,1201100,0,0,0
1,32,412.1875705,1,1,335691.0153,335692.0623,1,20,2,0,0,13,3,0,7410252,3061130,0,0,0,0,0,0,0,0,0,0,3140031,0,0,-1100041,0,0,0,0,3170180,0,0,0,0,3061130,0,0,0,0,0,0,0,0,0,0,0,0,0
1,33,391.0458995,0,1,335693.5093,335694.5564,1,20,2,0,1,30,3,0,2091060,5290321,1011181,0,0,0,0,0,0,0,0,0,0,0,2091060,0,0,0,0,0,0,3120181,0,0,0,0,0,0,0,2170140,0,0,-1011181,0,0,0,0,0,0
1,34,404.9710923,1,0,335696.0034,335697.0504,1,20,2,1,1,21,7,5241201,3142231,5121041,6200242,0,0,0,1180080,4061121,0,0,0,0,1071101,2071130,0,0,0,0,0,0,0,0,0,-3010010,0,0,2111031,0,0,0,0,4070171,0,0,0,0,2130071,0,0
1,35,971.0731239,0,1,335698.6504,335699.6974,1,20,2,0,1,29,3,6201270,0,3170081,3051200,0,0,3121180,0,0,0,0,3080090,0,0,0,0,0,0,0,0,0,0,0,0,0,0,0,3170081,0,0,0,0,-3051200,0,0,0,0,0,0,0
1,36,493.4035544,1,1,335701.7209,335702.7679,1,20,2,0,0,27,7,12622473,3070200,4160080,2161200,0,0,2131031,0,1111140,4140071,2140171,3100060,0,0,0,3070200,0,0,0,0,0,0,0,0,0,0,0,0,0,0,-4160080,0,0,0,0,2161200,0,0,0,0
1,37,499.0012717,0,0,335704.2973,335705.3443,1,20,2,0,0,32,7,6271082,2060311,3051151,7061351,0,3180031,0,0,0,0,0,0,3091051,0,0,1040161,0,0,1020150,0,0,0,0,2031131,0,0,0,0,0,1020020,0,4051161,0,0,0,-3010190,0,0,0,0
1,38,342.4299496,1,0,335706.8619,335707.9089,1,20,2,0,1,33,3,0,7340232,2120150,4160131,0,0,0,0,0,0,0,0,0,0,4150181,0,0,0,0,0,0,3190051,0,0,2120150,0,0,0,0,0,0,0,0,0,0,0,-4160131,0,0,0
1,39,641.6712686,0,1,335709.4266,335710.4736,1,20,2,1,1,34,3,3051201,0,6242301,3171190,0,0,0,0,3051201,0,0,0,0,0,0,0,0,0,0,0,0,0,0,3091131,0,3151170,0,0,0,0,0,0,0,0,0,0,0,-3171190,0,0
1,40,442.6676244,0,1,335712.3206,335713.3676,1,20,2,1,1,12,3,3100171,5052190,0,2070011,3100171,0,0,0,0,0,0,0,0,0,0,-1021120,4031070,0,0,0,0,0,0,0,0,0,0,0,0,0,0,0,0,0,2070011,0,0,0,0,0
1,41,237.0372625,1,1,335714.8382,335715.8852,1,20,2,1,0,4,7,5270341,7251250,3202242,4200171,0,0,0,-3130190,0,0,2140151,0,0,0,4080150,0,0,0,0,3171100,0,0,0,0,1090101,0,0,0,0,1031060,1081081,0,0,0,0,4200171,0,0,0,0
1,42,637.2657753,1,1,335717.191,335718.2381,1,20,2,1,0,31,3,0,5241381,1121141,3101061,0,0,0,0,0,0,0,0,0,0,0,0,3060190,0,0,0,2181191,0,0,0,0,0,1121141,0,0,0,0,0,0,0,-3101061,0,0,0,0,0
1,43,578.2246977,1,1,335719.9439,335720.9909,1,20,2,1,0,28,7,6221132,1141180,5251110,8131232,0,0,3120061,0,0,0,3101071,0,0,0,0,1141180,0,0,0,0,0,0,0,2091070,0,0,0,0,0,3160040,0,-3060061,1031111,4040060,0,0,0,0,0,0
1,44,399.1893636,0,1,335722.732,335723.7791,1,20,2,1,1,24,7,2180131,2151191,11373561,6111201,2180131,0,0,0,0,0,0,0,0,0,0,0,0,0,0,0,0,2151191,3080100,0,0,0,3091180,-1121170,0,4081111,0,0,0,0,0,4041091,0,0,2070110,0
1,45,408.6336109,1,0,335725.3555,335726.4025,1,20,2,0,1,14,7,3111011,9211292,8463460,2161091,0,0,0,0,0,0,0,3111011,0,0,0,0,0,-2070091,0,0,4051061,3090140,0,2171090,0,2121180,0,0,0,4171190,0,0,0,0,2161091,0,0,0,0,0
1,46,469.1063584,0,1,335727.8731,335728.9201,1,20,2,0,1,36,7,8082251,2060041,1080051,8290321,0,0,0,1010020,0,0,3031060,0,4041171,0,0,0,0,0,0,2060041,0,0,0,1080051,0,0,0,0,0,0,0,3120070,0,0,0,0,0,1080101,0,-4090150
1,47,408.0935107,1,1,335730.473,335731.52,1,20,2,1,0,5,3,2161031,4361362,2010080,0,0,0,0,0,-2161031,0,0,0,0,0,0,1161181,0,0,3200181,0,0,0,2010080,0,0,0,0,0,0,0,0,0,0,0,0,0,0,0,0,0
1,48,647.6050568,1,1,335733.0024,335734.0494,1,20,2,0,0,20,7,12392502,3180240,4090081,3070200,0,0,0,4111010,3130170,2131191,0,0,3020131,0,1140180,0,0,0,0,0,2040060,0,0,-4090081,0,0,0,0,0,0,0,0,0,3070200,0,0,0,0,0,0
1,49,514.0894316,1,0,335761.8957,335762.9427,1,20,3,0,1,14,7,3201030,4261242,8283191,6211171,0,0,0,0,0,0,3201030,0,0,0,0,0,0,-1110171,3151071,0,0,0,0,0,0,0,3101030,4031011,0,1151150,0,0,0,0,0,0,3060031,3151140,0,0
1,50,1004.717172,0,0,335764.578,335765.625,1,20,3,1,0,6,3,2110141,1181040,3080131,1201150,0,0,0,0,0,-2110141,0,0,0,0,0,0,0,0,0,1181040,0,0,0,0,3080131,0,0,0,0,0,0,0,0,0,0,1201150,0,0,0,0
1,51,784.7924396,0,1,335767.7779,335768.8249,1,20,3,0,1,22,7,7250401,4412383,6152290,3110020,0,4200200,0,0,0,3050201,0,0,0,0,1151201,0,0,2170051,1091131,0,0,0,0,4091130,0,-2061160,0,0,0,0,0,0,0,0,0,0,0,3110020,0,0
1,52,4333.823377,0,1,335770.7307,335771.7778,1,20,3,0,1,30,3,0,4100130,1091080,3111161,0,0,0,0,0,0,0,0,0,0,0,4100130,0,0,0,0,0,0,0,0,0,0,1091080,0,0,0,0,0,0,-2090040,0,0,0,1021121,0,0
1,53,1076.488909,1,1,335777.307,335778.354,1,20,3,1,0,34,3,3051201,0,6242301,3171190,0,0,0,0,3051201,0,0,0,0,0,0,0,0,0,0,0,0,0,0,3091131,0,3151170,0,0,0,0,0,0,0,0,0,0,0,-3171190,0,0
1,54,5000,-1,-1,335780.4363,335781.4834,1,20,3,0,1,33,7,3181141,4090010,8211311,13450611,3181141,0,0,0,0,0,0,0,0,0,0,0,0,0,0,0,4090010,0,4150150,0,0,0,0,0,0,4061161,0,0,4150170,2100170,0,4180100,-3020171,0,0,0
1,55,933.2491696,1,0,335787.6244,335788.6714,1,20,3,1,1,21,7,5241201,3142231,5121041,6200242,0,0,0,1180080,4061121,0,0,0,0,1071101,2071130,0,0,0,0,0,0,0,0,0,-3010010,0,0,2111031,0,0,0,0,4070171,0,0,0,0,2130071,0,0
1,56,1707.67552,1,1,335790.8008,335791.8478,1,20,3,1,0,24,7,2180131,2151191,11373561,6111201,2180131,0,0,0,0,0,0,0,0,0,0,0,0,0,0,0,0,2151191,3080100,0,0,0,3091180,-1121170,0,4081111,0,0,0,0,0,4041091,0,0,2070110,0
1,57,4343.851226,0,0,335794.6595,335795.7065,1,20,3,0,0,27,7,0,4080130,12332483,11492302,0,0,0,0,0,0,0,0,0,0,0,0,0,0,4080130,0,0,0,0,0,0,0,0,3071201,2091111,4090120,-3080051,0,0,0,0,4181071,4160151,0,0,3151080
1,58,3229.937428,0,0,335801.2005,335802.2475,1,20,3,1,0,5,3,2161031,4361362,2010080,0,0,0,0,0,-2161031,0,0,0,0,0,0,1161181,0,0,3200181,0,0,0,2010080,0,0,0,0,0,0,0,0,0,0,0,0,0,0,0,0,0
1,59,1386.504515,0,0,335806.6709,335807.7179,1,20,3,0,0,36,3,0,2151061,3130150,7300090,0,0,0,0,0,0,0,0,0,0,0,0,0,0,0,0,2151061,0,0,0,0,0,0,3130150,0,0,0,0,0,0,0,4120030,0,0,0,-3180060
1,60,1086.392029,1,0,335810.1649,335811.212,1,20,3,0,1,13,7,3060070,7273401,5340192,6221262,0,0,0,0,3060070,0,0,0,0,0,0,0,-2151190,0,3101031,0,0,2021180,0,0,3150021,0,0,0,2190171,0,0,2140071,0,0,0,0,4081191,0,0,0
1,61,1735.276066,0,0,335813.4119,335814.4589,1,20,3,1,0,2,7,7303342,3091011,5451411,4091090,0,-1201130,0,0,0,0,4061151,2041061,0,0,0,0,0,0,0,3091011,0,0,0,0,3140190,0,0,0,1131060,1180161,0,4091090,0,0,0,0,0,0,0,0
1,62,1799.049084,0,0,335817.2471,335818.2941,1,20,3,0,0,32,7,11392393,0,3200050,10191421,2160080,0,4031171,0,3080041,0,0,0,2121101,0,0,0,0,0,0,0,0,0,0,0,0,0,0,0,0,3200050,0,0,4021160,4090080,0,-2080181,0,0,0,0
1,63,1169.423489,1,0,335821.294,335822.3528,1,20,3,1,1,28,7,6221132,1141180,5251110,8131232,0,0,3120061,0,0,0,3101071,0,0,0,0,1141180,0,0,0,0,0,0,0,2091070,0,0,0,0,0,3160040,0,-3060061,1031111,4040060,0,0,0,0,0,0
1,64,979.1865611,0,1,335824.6469,335825.6939,1,20,3,0,1,8,3,1190050,4041120,2160051,2041200,0,0,0,0,0,0,0,-1190050,0,0,0,0,0,0,4041120,0,0,0,0,2160051,0,0,0,0,0,0,0,0,0,0,0,0,2041200,0,0,0
1,65,1975.714598,1,0,335827.7174,335828.7644,1,20,3,1,1,12,3,3100171,5052190,0,2070011,3100171,0,0,0,0,0,0,0,0,0,0,-1021120,4031070,0,0,0,0,0,0,0,0,0,0,0,0,0,0,0,0,0,2070011,0,0,0,0,0
1,66,1555.729119,0,0,335831.8585,335832.9055,1,20,3,0,0,1,3,2011190,2061180,2161121,2051031,-2011190,0,0,0,0,0,0,0,0,0,2061180,0,0,0,0,0,0,0,0,0,0,0,2161121,0,0,0,0,2051031,0,0,0,0,0,0,0,0
1,67,931.2442929,1,0,335835.6348,335836.6818,1,20,3,1,1,19,7,6461200,2231302,3130101,8261201,1140130,0,3201010,0,0,2120060,0,0,0,0,0,0,0,1071111,0,0,0,1160191,-3130101,0,0,0,0,0,0,0,0,4160101,0,0,0,0,0,4101100,0,0
1,68,1352.544799,1,0,335838.7524,335839.7994,1,20,3,1,1,35,3,0,8281361,0,3071091,0,0,0,0,0,0,0,0,0,0,0,3010120,0,0,2200121,3071120,0,0,0,0,0,0,0,0,0,0,0,0,0,0,0,0,0,0,-3071091,0
1,69,1276.527713,1,0,335842.1876,335843.2346,1,20,3,1,1,31,3,0,5241381,1121141,3101061,0,0,0,0,0,0,0,0,0,0,0,0,3060190,0,0,0,2181191,0,0,0,0,0,1121141,0,0,0,0,0,0,0,-3101061,0,0,0,0,0
1,70,850.137253,1,0,335845.6228,335846.6698,1,20,3,0,1,20,3,4111161,1190201,3170130,0,4111161,0,0,0,0,0,0,0,0,0,0,0,1190201,0,0,0,0,0,0,-1090010,0,0,0,0,0,2080120,0,0,0,0,0,0,0,0,0,0
1,71,1416.263152,0,0,335848.5756,335849.6227,1,20,3,1,0,4,7,5270341,7251250,3202242,4200171,0,0,0,-3130190,0,0,2140151,0,0,0,4080150,0,0,0,0,3171100,0,0,0,0,1090101,0,0,0,0,1031060,1081081,0,0,0,0,4200171,0,0,0,0
1,72,875.9350269,0,0,335852.0579,335853.1049,1,20,3,0,0,29,3,2071150,0,0,4111361,0,0,0,0,0,0,1060120,1011030,0,0,0,0,0,0,0,0,0,0,0,0,0,0,0,0,0,0,0,0,-1031161,0,0,3080200,0,0,0,0
1,73,1766.432496,0,0,335863.8693,335864.9164,1,20,4,0,0,22,7,7241453,7171310,1201070,5311181,0,0,0,0,0,3150191,0,3020201,1071061,0,3071130,0,0,0,0,0,0,4100180,0,0,0,-1201070,0,0,0,0,0,0,4181121,1130060,0,0,0,0,0,0
1,74,804.4893522,1,0,335867.7633,335868.8104,1,20,4,1,1,28,7,6221132,1141180,5251110,8131232,0,0,3120061,0,0,0,3101071,0,0,0,0,1141180,0,0,0,0,0,0,0,2091070,0,0,0,0,0,3160040,0,-3060061,1031111,4040060,0,0,0,0,0,0
1,75,1482.205425,1,0,335870.7044,335871.7515,1,20,4,0,1,33,7,0,1170041,7182412,12332243,0,0,0,0,0,0,0,0,0,0,0,1170041,0,0,0,0,0,0,0,3031191,3120050,0,0,0,0,0,1031171,3091071,0,0,3150091,0,-4021041,0,0,2070040
1,76,1786.777683,1,0,335874.2808,335875.3279,1,20,4,0,1,1,7,9211433,4171111,6092290,2271310,-4020061,0,0,0,0,0,2141181,0,3050191,4171111,0,0,0,0,0,0,0,0,0,3071180,0,0,0,0,0,3021110,0,0,1080150,0,0,0,0,1191160,0,0
1,77,2304.923588,0,0,335878.1749,335879.2218,1,20,4,0,0,30,7,7432322,4181191,2081090,6301262,2121090,0,0,0,0,3190161,0,0,2121071,0,0,1030161,0,0,0,3151030,0,0,0,0,0,0,0,0,0,0,2081090,0,0,-4201061,0,0,0,2100201,0,0
1,78,1001.746428,0,0,335882.6806,335883.7278,1,20,4,0,0,8,7,5312390,4131181,5140290,3170030,3191070,0,1041130,0,0,0,0,-1080190,0,0,0,0,0,0,1101130,0,3030051,0,0,0,0,3090150,0,0,2050140,0,0,0,0,0,0,3170030,0,0,0,0
1,79,1314.830174,0,0,335885.7746,335886.8216,1,20,4,1,0,31,3,0,5241381,1121141,3101061,0,0,0,0,0,0,0,0,0,0,0,0,3060190,0,0,0,2181191,0,0,0,0,0,1121141,0,0,0,0,0,0,0,-3101061,0,0,0,0,0
1,80,1017.324259,1,0,335889.2922,335890.3392,1,20,4,1,1,5,3,2161031,4361362,2010080,0,0,0,0,0,-2161031,0,0,0,0,0,0,1161181,0,0,3200181,0,0,0,2010080,0,0,0,0,0,0,0,0,0,0,0,0,0,0,0,0,0
1,81,1244.734557,0,0,335892.4098,335893.4567,1,20,4,1,0,4,7,5270341,7251250,3202242,4200171,0,0,0,-3130190,0,0,2140151,0,0,0,4080150,0,0,0,0,3171100,0,0,0,0,1090101,0,0,0,0,1031060,1081081,0,0,0,0,4200171,0,0,0,0
1,82,912.024732,0,0,335895.8214,335896.8684,1,20,4,0,0,29,3,0,2130020,4150090,7252070,0,0,0,0,0,0,0,0,0,2130020,0,0,0,0,0,0,0,0,0,4150090,0,0,0,0,0,0,0,0,-4101050,0,0,3151020,0,0,0,0
1,83,1239.095649,1,0,335898.8684,335899.9154,1,20,4,1,1,24,7,2180131,2151191,11373561,6111201,2180131,0,0,0,0,0,0,0,0,0,0,0,0,0,0,0,0,2151191,3080100,0,0,0,3091180,-1121170,0,4081111,0,0,0,0,0,4041091,0,0,2070110,0
1,84,543.1509045,1,0,335902.2683,335903.3153,1,20,4,0,1,14,3,0,2180130,7211322,3110060,0,0,0,0,0,0,0,0,0,0,0,0,0,-2180130,0,0,0,0,0,0,0,0,4140141,0,3071181,0,0,0,0,0,0,0,3110060,0,0,0
1,85,1624.69834,1,0,335904.9976,335906.0446,1,20,4,1,1,35,3,0,8281361,0,3071091,0,0,0,0,0,0,0,0,0,0,0,3010120,0,0,2200121,3071120,0,0,0,0,0,0,0,0,0,0,0,0,0,0,0,0,0,0,-3071091,0
1,86,1293.288528,0,0,335908.7269,335909.7739,1,20,4,0,0,36,7,11441274,0,6181210,5160231,1180181,0,3101041,0,4120011,0,0,3040041,0,0,0,0,0,0,0,0,0,0,0,0,0,0,2160110,4021100,0,0,0,0,0,0,0,2030150,0,0,0,-3130081
1,87,904.4748776,1,0,335912.2798,335913.3268,1,20,4,0,1,13,3,0,4121162,1131011,4041181,0,0,0,0,0,0,0,0,0,0,0,0,-2011111,0,0,0,2110051,0,0,0,0,0,0,0,1131011,0,0,0,0,0,0,4041181,0,0,0,0
1,88,699.9990135,1,0,335915.3974,335916.4443,1,20,4,1,1,21,7,5241201,3142231,5121041,6200242,0,0,0,1180080,4061121,0,0,0,0,1071101,2071130,0,0,0,0,0,0,0,0,0,-3010010,0,0,2111031,0,0,0,0,4070171,0,0,0,0,2130071,0,0
1,89,734.3098141,1,0,335918.2678,335919.3149,1,20,4,1,1,34,3,3051201,0,6242301,3171190,0,0,0,0,3051201,0,0,0,0,0,0,0,0,0,0,0,0,0,0,3091131,0,3151170,0,0,0,0,0,0,0,0,0,0,0,-3171190,0,0
1,90,1615.07701,1,0,335921.103,335922.1501,1,20,4,1,1,2,7,7303342,3091011,5451411,4091090,0,-1201130,0,0,0,0,4061151,2041061,0,0,0,0,0,0,0,3091011,0,0,0,0,3140190,0,0,0,1131060,1180161,0,4091090,0,0,0,0,0,0,0,0
1,91,1094.57399,0,0,335924.9265,335925.9735,1,20,4,0,0,20,3,1051060,3301281,4141131,0,0,0,0,1051060,0,0,0,0,0,0,1101201,0,0,2200080,0,0,0,0,0,-4141131,0,0,0,0,0,0,0,0,0,0,0,0,0,0,0,0
1,92,885.6137153,0,0,335928.1146,335929.1616,1,20,4,1,0,19,7,6461200,2231302,3130101,8261201,1140130,0,3201010,0,0,2120060,0,0,0,0,0,0,0,1071111,0,0,0,1160191,-3130101,0,0,0,0,0,0,0,0,4160101,0,0,0,0,0,4101100,0,0
1,93,922.6789115,0,0,335931.2204,335932.2674,1,20,4,1,0,6,3,2110141,1181040,3080131,1201150,0,0,0,0,0,-2110141,0,0,0,0,0,0,0,0,0,1181040,0,0,0,0,3080131,0,0,0,0,0,0,0,0,0,0,1201150,0,0,0,0
1,94,877.0795158,1,0,335934.385,335935.4321,1,20,4,0,1,32,3,3150021,4110071,0,5250322,0,0,0,0,0,0,0,3150021,0,0,0,0,0,0,4110071,0,0,0,0,0,0,0,0,0,0,0,0,2160181,0,0,0,-3090141,0,0,0,0
1,95,831.5555724,0,0,335937.3614,335938.4084,1,20,4,0,0,27,3,3340332,3201171,3040130,0,1190171,0,0,0,0,0,0,2150161,0,0,0,0,3201171,0,0,0,0,0,0,0,0,0,0,0,0,0,-3040130,0,0,0,0,0,0,0,0,0
1,96,1174.906873,1,1,335940.4202,335941.4672,1,20,4,1,0,12,3,3100171,5052190,0,2070011,3100171,0,0,0,0,0,0,0,0,0,0,-1021120,4031070,0,0,0,0,0,0,0,0,0,0,0,0,0,0,0,0,0,2070011,0,0,0,0,0
1,97,1405.235945,1,0,335951.7728,335952.8198,1,20,5,1,1,6,3,2110141,1181040,3080131,1201150,0,0,0,0,0,-2110141,0,0,0,0,0,0,0,0,0,1181040,0,0,0,0,3080131,0,0,0,0,0,0,0,0,0,0,1201150,0,0,0,0
1,98,1220.979001,0,0,335955.3609,335956.4079,1,20,5,1,0,31,3,0,5241381,1121141,3101061,0,0,0,0,0,0,0,0,0,0,0,0,3060190,0,0,0,2181191,0,0,0,0,0,1121141,0,0,0,0,0,0,0,-3101061,0,0,0,0,0
1,99,648.0181199,1,0,335958.6549,335959.702,1,20,5,1,1,12,3,3100171,5052190,0,2070011,3100171,0,0,0,0,0,0,0,0,0,0,-1021120,4031070,0,0,0,0,0,0,0,0,0,0,0,0,0,0,0,0,0,2070011,0,0,0,0,0
1,100,464.1669242,1,0,335961.5137,335962.5607,1,20,5,1,1,21,7,5241201,3142231,5121041,6200242,0,0,0,1180080,4061121,0,0,0,0,1071101,2071130,0,0,0,0,0,0,0,0,0,-3010010,0,0,2111031,0,0,0,0,4070171,0,0,0,0,2130071,0,0
1,101,1006.638512,0,0,335964.1372,335965.1842,1,20,5,0,0,30,3,0,5231121,0,5112121,0,0,0,0,0,0,0,0,0,0,0,2051040,0,0,3180081,0,0,0,0,0,0,0,0,0,0,0,0,1031041,0,-4081080,0,0,0,0,0,0
1,102,923.9396587,1,0,335967.3018,335968.3488,1,20,5,1,1,2,7,7303342,3091011,5451411,4091090,0,-1201130,0,0,0,0,4061151,2041061,0,0,0,0,0,0,0,3091011,0,0,0,0,3140190,0,0,0,1131060,1180161,0,4091090,0,0,0,0,0,0,0,0
1,103,646.4443995,1,0,335970.4193,335971.4663,1,20,5,0,1,33,3,4020190,0,1141011,5350271,4020190,0,0,0,0,0,0,0,0,0,0,0,0,0,0,0,0,0,0,0,1141011,0,0,0,0,0,0,0,0,0,0,0,-4180161,0,0,1170110
1,104,1307.831968,0,0,335973.2428,335974.2898,1,20,5,0,0,27,7,11342482,12381120,1070081,0,4201120,0,0,3081161,0,0,0,0,4060201,3140010,0,0,4090030,3111050,0,0,0,2040030,0,0,0,0,0,0,0,0,-1070081,0,0,0,0,0,0,0,0,0
1,105,1224.877116,1,0,335976.6427,335977.6897,1,20,5,0,1,22,3,4091170,0,4081020,8301121,0,0,4091170,0,0,0,0,0,0,0,0,0,0,0,0,0,0,0,0,0,0,-4081020,0,0,0,0,0,0,0,0,0,0,0,4201080,0,4100041
1,106,829.2658246,0,0,335980.0544,335981.1014,1,20,5,0,0,8,3,2151140,5171130,0,2180141,0,0,0,0,0,0,0,-2151140,0,0,0,0,0,0,2140120,0,3031010,0,0,0,0,0,0,0,0,0,0,0,0,0,0,0,0,2180141,0,0
1,107,1253.385015,0,0,335983.0543,335984.1013,1,20,5,1,0,19,7,6461200,2231302,3130101,8261201,1140130,0,3201010,0,0,2120060,0,0,0,0,0,0,0,1071111,0,0,0,1160191,-3130101,0,0,0,0,0,0,0,0,4160101,0,0,0,0,0,4101100,0,0
1,108,442.6052608,1,0,335986.513,335987.56,1,20,5,0,1,20,7,4230231,7361312,4060161,6201291,0,0,2180070,0,0,2050161,0,0,0,0,1200101,3070141,0,0,0,0,0,3091070,0,-4060161,0,0,0,0,0,0,0,0,0,0,0,0,0,2100191,4101100,0
1,109,642.0335168,1,0,335989.0776,335990.1247,1,20,5,0,1,14,7,6211060,7291381,11320401,0,0,4201040,0,0,0,0,2010020,0,0,0,0,0,0,-3121200,0,0,0,4170181,1020021,0,4100200,0,0,0,2160100,4040080,0,0,0,0,0,0,0,0,0,0
1,110,1302.305854,0,0,335991.7952,335992.8422,1,20,5,0,0,1,3,1051090,0,4210290,2140191,-1051090,0,0,0,0,0,0,0,0,0,0,0,0,0,0,0,0,0,3180160,0,0,0,1030130,0,0,0,0,2140191,0,0,0,0,0,0,0,0
1,111,1141.989631,0,0,335995.2775,335996.3245,1,20,5,1,0,4,7,5270341,7251250,3202242,4200171,0,0,0,-3130190,0,0,2140151,0,0,0,4080150,0,0,0,0,3171100,0,0,0,0,1090101,0,0,0,0,1031060,1081081,0,0,0,0,4200171,0,0,0,0
1,112,961.3470852,0,0,335998.6421,335999.6891,1,20,5,1,0,35,3,0,8281361,0,3071091,0,0,0,0,0,0,0,0,0,0,0,3010120,0,0,2200121,3071120,0,0,0,0,0,0,0,0,0,0,0,0,0,0,0,0,0,0,-3071091,0
1,113,1043.755293,0,1,336001.8067,336002.8538,1,20,5,0,1,13,3,7372352,1190110,0,0,0,0,0,0,1181170,3050071,0,0,3141111,0,0,0,-1190110,0,0,0,0,0,0,0,0,0,0,0,0,0,0,0,0,0,0,0,0,0,0,0
1,114,2329.830947,0,0,336005.0654,336006.1125,1,20,5,1,0,28,7,6221132,1141180,5251110,8131232,0,0,3120061,0,0,0,3101071,0,0,0,0,1141180,0,0,0,0,0,0,0,2091070,0,0,0,0,0,3160040,0,-3060061,1031111,4040060,0,0,0,0,0,0
1,115,861.2222039,0,0,336009.5241,336010.5712,1,20,5,0,0,32,7,4121190,3200190,8490411,7071101,0,0,2010110,0,2111080,0,0,0,0,3200190,0,0,0,0,0,0,0,0,2160171,0,2200110,0,0,4130130,0,0,0,0,0,0,0,-4011071,0,0,0,3060030
1,116,1116.844751,1,0,336012.5476,336013.5946,1,20,5,0,1,36,7,2121070,1080191,9242153,6272152,0,0,0,0,0,0,0,2121070,0,0,0,1080191,0,0,0,0,0,0,0,0,0,0,2161131,3010011,0,4071011,0,0,0,0,2180081,0,0,0,3031010,-1061061
1,117,1526.648013,1,0,336015.8417,336016.8886,1,20,5,0,1,29,7,4231302,2170140,9280301,4301240,0,3101171,0,1130131,0,0,0,0,0,0,0,0,2170140,0,0,0,0,0,1090150,4170141,0,0,0,0,4020010,0,0,1110170,-3191070,0,0,0,0,0,0,0
1,118,1034.923134,0,0,336019.4533,336020.5003,1,20,5,1,0,5,3,2161031,4361362,2010080,0,0,0,0,0,-2161031,0,0,0,0,0,0,1161181,0,0,3200181,0,0,0,2010080,0,0,0,0,0,0,0,0,0,0,0,0,0,0,0,0,0
1,119,657.9547322,0,0,336022.7473,336023.7943,1,20,5,1,0,34,3,3051201,0,6242301,3171190,0,0,0,0,3051201,0,0,0,0,0,0,0,0,0,0,0,0,0,0,3091131,0,3151170,0,0,0,0,0,0,0,0,0,0,0,-3171190,0,0
1,120,1172.22562,1,0,336025.606,336026.6531,1,20,5,1,1,24,7,2180131,2151191,11373561,6111201,2180131,0,0,0,0,0,0,0,0,0,0,0,0,0,0,0,0,2151191,3080100,0,0,0,3091180,-1121170,0,4081111,0,0,0,0,0,4041091,0,0,2070110,0
1,121,595.6180038,0,0,336036.1705,336037.2175,1,20,6,0,0,20,7,10231362,4301121,5152161,4181110,0,4100131,0,0,0,0,0,3021101,3110130,0,0,0,2130051,0,0,2171070,0,0,0,-1081101,0,0,0,0,0,4071060,0,0,4181110,0,0,0,0,0,0,0
1,122,741.7580387,1,0,336038.8292,336039.8762,1,20,6,1,1,5,3,2161031,4361362,2010080,0,0,0,0,0,-2161031,0,0,0,0,0,0,1161181,0,0,3200181,0,0,0,2010080,0,0,0,0,0,0,0,0,0,0,0,0,0,0,0,0,0
1,123,757.976829,1,0,336041.6877,336042.735,1,20,6,0,1,29,3,0,1070020,0,9321380,0,0,0,0,0,0,0,0,0,0,0,1070020,0,0,0,0,0,0,0,0,0,0,0,0,0,0,0,0,-4090120,0,0,1050190,0,0,4181070,0
1,124,1260.599183,1,0,336044.5114,336045.5584,1,20,6,1,1,31,3,0,5241381,1121141,3101061,0,0,0,0,0,0,0,0,0,0,0,0,3060190,0,0,0,2181191,0,0,0,0,0,1121141,0,0,0,0,0,0,0,-3101061,0,0,0,0,0
1,125,769.5556848,0,0,336048.0054,336049.0524,1,20,6,1,0,21,7,5241201,3142231,5121041,6200242,0,0,0,1180080,4061121,0,0,0,0,1071101,2071130,0,0,0,0,0,0,0,0,0,-3010010,0,0,2111031,0,0,0,0,4070171,0,0,0,0,2130071,0,0
1,126,934.3270603,1,0,336050.8877,336051.9347,1,20,6,1,1,19,7,6461200,2231302,3130101,8261201,1140130,0,3201010,0,0,2120060,0,0,0,0,0,0,0,1071111,0,0,0,1160191,-3130101,0,0,0,0,0,0,0,0,4160101,0,0,0,0,0,4101100,0,0
1,127,547.5090475,1,0,336053.9464,336054.9934,1,20,6,0,1,22,3,0,1060201,3271210,1010091,0,0,0,0,0,0,0,0,0,1060201,0,0,0,0,0,0,0,0,0,0,0,-2191030,0,0,0,0,1080180,0,0,1010091,0,0,0,0,0,0
1,128,1085.55243,0,0,336056.6522,336057.6993,1,20,6,1,0,2,7,7303342,3091011,5451411,4091090,0,-1201130,0,0,0,0,4061151,2041061,0,0,0,0,0,0,0,3091011,0,0,0,0,3140190,0,0,0,1131060,1180161,0,4091090,0,0,0,0,0,0,0,0
1,129,818.7825677,1,0,336059.8051,336060.8521,1,20,6,1,1,6,3,2110141,1181040,3080131,1201150,0,0,0,0,0,-2110141,0,0,0,0,0,0,0,0,0,1181040,0,0,0,0,3080131,0,0,0,0,0,0,0,0,0,0,1201150,0,0,0,0
1,130,715.6484465,1,1,336062.7932,336063.8403,1,20,6,1,0,35,3,0,8281361,0,3071091,0,0,0,0,0,0,0,0,0,0,0,3010120,0,0,2200121,3071120,0,0,0,0,0,0,0,0,0,0,0,0,0,0,0,0,0,0,-3071091,0
1,131,1565.403188,0,0,336065.6286,336066.6755,1,20,6,1,0,28,7,6221132,1141180,5251110,8131232,0,0,3120061,0,0,0,3101071,0,0,0,0,1141180,0,0,0,0,0,0,0,2091070,0,0,0,0,0,3160040,0,-3060061,1031111,4040060,0,0,0,0,0,0
1,132,700.3339295,0,0,336069.3695,336070.4166,1,20,6,0,0,14,7,2110090,6310432,6362072,5100301,0,0,2110090,0,0,0,0,0,0,0,0,0,2130191,-2140051,2040190,0,0,0,0,0,0,4191051,0,2171021,0,0,0,0,0,2080201,3020100,0,0,0,0,0
1,133,906.4239349,0,0,336072.1342,336073.1812,1,20,6,0,0,1,3,5130222,5210232,0,0,-1060181,0,0,0,0,4070041,0,0,0,4180191,0,1030041,0,0,0,0,0,0,0,0,0,0,0,0,0,0,0,0,0,0,0,0,0,0,0,0
1,134,1888.760001,1,0,336075.24,336076.287,1,20,6,0,1,32,7,2011160,9402292,1140100,4232212,0,0,0,0,0,0,2011160,0,0,0,0,2061011,3191150,0,0,0,4150131,0,0,0,0,0,0,0,0,0,1140100,0,0,1020121,0,-1111020,0,2101071,0,0
1,135,1049.395741,0,0,336079.3693,336080.4163,1,20,6,0,0,8,3,8181202,0,0,4132171,0,4170141,0,0,0,0,0,-4011061,0,0,0,0,0,0,0,0,0,0,0,0,0,0,0,0,0,0,0,0,0,0,1101161,0,3031010,0,0,0
1,136,1373.08978,1,0,336082.5456,336083.5927,1,20,6,1,1,4,7,5270341,7251250,3202242,4200171,0,0,0,-3130190,0,0,2140151,0,0,0,4080150,0,0,0,0,3171100,0,0,0,0,1090101,0,0,0,0,1031060,1081081,0,0,0,0,4200171,0,0,0,0
1,137,1790.944501,0,0,336085.9926,336087.0396,1,20,6,0,0,30,7,6331322,6311422,4071040,4191130,0,0,0,0,0,4151131,0,0,2180191,0,3100121,0,1021130,0,0,0,0,2190171,0,0,4071040,0,0,0,0,0,0,0,0,-1090010,0,3101120,0,0,0,0
1,138,1117.738246,1,0,336089.9807,336091.0277,1,20,6,0,1,27,7,6282361,4151201,4121212,5181320,0,0,4101201,0,0,0,0,2181160,0,1110081,0,0,0,0,0,0,0,3041120,0,0,0,0,0,0,3060191,0,-1061021,4020190,0,0,1161130,0,0,0,0,0
1,139,1468.891165,0,0,336093.1806,336094.2277,1,20,6,0,0,13,3,0,8181210,0,7341102,0,0,0,0,0,0,0,0,0,4050180,0,0,-4131030,0,0,0,0,0,0,0,0,0,0,0,0,0,0,0,0,3160051,0,0,0,4181051,0,0
1,140,1199.006199,1,0,336096.7805,336097.8276,1,20,6,1,1,12,3,3100171,5052190,0,2070011,3100171,0,0,0,0,0,0,0,0,0,0,-1021120,4031070,0,0,0,0,0,0,0,0,0,0,0,0,0,0,0,0,0,2070011,0,0,0,0,0
1,141,508.5552328,0,0,336100.204,336101.251,1,20,6,0,0,33,3,7281321,0,0,6381251,4130171,0,0,0,0,0,0,3151150,0,0,0,0,0,0,0,0,0,0,0,0,0,0,0,0,0,0,0,0,0,0,0,0,-4190110,0,2191141,0
1,142,788.2570883,1,0,336102.7921,336103.8392,1,20,6,0,1,36,7,1151061,7290052,4362302,3140321,1151061,0,0,0,0,0,0,0,0,0,0,3140031,4150021,0,0,0,0,0,0,0,1111181,0,0,2091091,1160030,0,0,0,0,1030130,0,0,0,0,0,-2110191
1,143,1238.994019,0,0,336105.7803,336106.8273,1,20,6,1,0,24,7,2180131,2151191,11373561,6111201,2180131,0,0,0,0,0,0,0,0,0,0,0,0,0,0,0,0,2151191,3080100,0,0,0,3091180,-1121170,0,4081111,0,0,0,0,0,4041091,0,0,2070110,0
1,144,756.4824105,1,0,336109.1449,336110.1919,1,20,6,1,1,34,3,3051201,0,6242301,3171190,0,0,0,0,3051201,0,0,0,0,0,0,0,0,0,0,0,0,0,0,3091131,0,3151170,0,0,0,0,0,0,0,0,0,0,0,-3171190,0,0
1,145,685.3762714,1,0,336120.3328,336121.3798,1,20,7,0,1,14,3,5190262,3071090,3170110,0,0,3150111,0,0,2040151,0,0,0,0,0,0,0,0,-3071090,0,0,0,0,0,0,0,0,0,0,0,0,3170110,0,0,0,0,0,0,0,0,0
1,146,1135.633156,1,0,336123.1445,336124.1915,1,20,7,0,1,30,7,2150212,4190140,4231370,2200191,0,0,0,1060011,0,1090201,0,0,0,0,1170090,3020050,0,0,0,0,0,0,2181190,2050180,0,0,0,0,0,0,0,0,1130061,-1070130,0,0,0,0,0,0
1,147,962.4419142,0,0,336126.3797,336127.4267,1,20,7,1,0,5,3,2161031,4361362,2010080,0,0,0,0,0,-2161031,0,0,0,0,0,0,1161181,0,0,3200181,0,0,0,2010080,0,0,0,0,0,0,0,0,0,0,0,0,0,0,0,0,0
1,148,819.6352562,1,0,336129.5796,336130.6267,1,20,7,1,1,12,3,3100171,5052190,0,2070011,3100171,0,0,0,0,0,0,0,0,0,0,-1021120,4031070,0,0,0,0,0,0,0,0,0,0,0,0,0,0,0,0,0,2070011,0,0,0,0,0
1,149,1798.077057,0,0,336132.509,336133.556,1,20,7,0,0,13,7,3301242,8252101,6110291,3190030,0,0,1180091,2121151,0,0,0,0,0,3061041,2060020,0,-3131040,0,0,0,0,0,0,0,0,2020130,0,0,0,4090161,0,0,0,0,0,3190030,0,0,0,0
1,150,638.8776068,1,0,336136.3912,336137.4382,1,20,7,0,1,29,3,0,7381332,0,1120011,0,0,0,0,0,0,0,0,0,0,0,0,1110091,0,0,4151200,2120041,0,0,0,0,0,0,0,0,0,0,0,-1120011,0,0,0,0,0,0,0
1,151,665.4841836,0,1,336139.2735,336140.3205,1,20,7,1,1,19,7,6461200,2231302,3130101,8261201,1140130,0,3201010,0,0,2120060,0,0,0,0,0,0,0,1071111,0,0,0,1160191,-3130101,0,0,0,0,0,0,0,0,4160101,0,0,0,0,0,4101100,0,0
1,152,422.141506,1,0,336142.0499,336143.0969,1,20,7,1,1,21,7,5241201,3142231,5121041,6200242,0,0,0,1180080,4061121,0,0,0,0,1071101,2071130,0,0,0,0,0,0,0,0,0,-3010010,0,0,2111031,0,0,0,0,4070171,0,0,0,0,2130071,0,0
1,153,587.1273048,0,0,336144.6498,336145.6968,1,20,7,0,0,20,7,1161130,7331352,8520431,0,0,0,0,0,0,0,1161130,0,0,0,1070160,0,3171041,0,1020070,2070081,0,0,0,-3140190,2190100,3190141,0,0,0,0,0,0,0,0,0,0,0,0,0,0
1,154,1020.032844,1,1,336147.3438,336148.3909,1,20,7,0,0,1,3,2161090,4180091,4081111,0,-1081060,0,0,0,0,0,1080030,0,0,0,0,0,0,0,0,0,4180091,0,0,0,0,4081111,0,0,0,0,0,0,0,0,0,0,0,0,0,0
1,155,883.6288566,0,0,336150.5673,336151.6143,1,20,7,1,0,31,3,0,5241381,1121141,3101061,0,0,0,0,0,0,0,0,0,0,0,0,3060190,0,0,0,2181191,0,0,0,0,0,1121141,0,0,0,0,0,0,0,-3101061,0,0,0,0,0
1,156,929.9623729,0,0,336153.5319,336154.5789,1,20,7,0,0,33,7,3161291,3260152,4050070,9300362,0,1071091,0,2090200,0,0,0,0,0,0,1130081,0,0,0,0,0,0,2130071,0,0,0,4050070,0,0,0,0,0,4130140,0,1070181,0,0,-4100041,0,0,0
1,157,682.8035773,0,0,336156.673,336157.72,1,20,7,0,0,22,7,8172350,3091071,7292271,6362141,4111190,0,0,4061160,0,0,0,0,0,0,0,0,0,0,3091071,0,0,0,0,0,3060090,-2111101,0,2121080,0,0,0,0,0,0,0,2181080,4181061,0,0,0
1,158,979.2246722,0,0,336159.5435,336160.5905,1,20,7,1,0,24,7,2180131,2151191,11373561,6111201,2180131,0,0,0,0,0,0,0,0,0,0,0,0,0,0,0,0,2151191,3080100,0,0,0,3091180,-1121170,0,4081111,0,0,0,0,0,4041091,0,0,2070110,0
1,159,1162.421049,1,0,336162.6493,336163.6963,1,20,7,1,1,2,7,7303342,3091011,5451411,4091090,0,-1201130,0,0,0,0,4061151,2041061,0,0,0,0,0,0,0,3091011,0,0,0,0,3140190,0,0,0,1131060,1180161,0,4091090,0,0,0,0,0,0,0,0
1,160,905.9958584,0,0,336165.9198,336166.9668,1,20,7,1,0,6,3,2110141,1181040,3080131,1201150,0,0,0,0,0,-2110141,0,0,0,0,0,0,0,0,0,1181040,0,0,0,0,3080131,0,0,0,0,0,0,0,0,0,0,1201150,0,0,0,0
1,161,1005.492098,1,0,336169.0374,336170.0844,1,20,7,0,1,36,3,3170170,0,3210322,2141081,0,0,0,3170170,0,0,0,0,0,0,0,0,0,0,0,0,0,0,0,0,0,0,2140181,0,0,1070141,0,0,0,0,0,0,0,0,0,-2141081
1,162,718.0906389,0,0,336172.1196,336173.1666,1,20,7,0,0,8,7,7251082,14282532,0,4070170,0,4150051,0,0,0,0,0,-3101031,0,0,3060140,0,0,4061031,2090020,4010201,1061140,0,0,0,0,0,0,0,0,0,0,0,0,0,0,0,0,0,4070170,0
1,163,921.6064103,0,0,336175.0372,336176.0842,1,20,7,0,0,32,3,4031171,3110071,4071120,1200170,0,0,0,0,0,0,4031171,0,0,0,0,0,0,3110071,0,0,0,0,4071120,0,0,0,0,0,0,0,0,0,0,0,0,-1200170,0,0,0,0
1,164,619.8185746,0,0,336178.0959,336179.1429,1,20,7,0,0,27,3,4252241,0,2201010,4020081,2061201,0,0,0,0,0,0,0,2191040,0,0,0,0,0,0,0,0,0,0,0,0,0,0,0,0,0,-2201010,0,0,0,4020081,0,0,0,0,0
1,165,1276.916908,1,0,336180.9076,336181.9546,1,20,7,1,1,4,7,5270341,7251250,3202242,4200171,0,0,0,-3130190,0,0,2140151,0,0,0,4080150,0,0,0,0,3171100,0,0,0,0,1090101,0,0,0,0,1031060,1081081,0,0,0,0,4200171,0,0,0,0
1,166,1072.757867,0,0,336184.4369,336185.484,1,20,7,1,0,34,3,3051201,0,6242301,3171190,0,0,0,0,3051201,0,0,0,0,0,0,0,0,0,0,0,0,0,0,3091131,0,3151170,0,0,0,0,0,0,0,0,0,0,0,-3171190,0,0
1,167,718.7670153,1,0,336187.7427,336188.7897,1,20,7,1,1,28,7,6221132,1141180,5251110,8131232,0,0,3120061,0,0,0,3101071,0,0,0,0,1141180,0,0,0,0,0,0,0,2091070,0,0,0,0,0,3160040,0,-3060061,1031111,4040060,0,0,0,0,0,0
1,168,888.5806095,1,0,336190.5309,336191.5779,1,20,7,1,1,35,3,0,8281361,0,3071091,0,0,0,0,0,0,0,0,0,0,0,3010120,0,0,2200121,3071120,0,0,0,0,0,0,0,0,0,0,0,0,0,0,0,0,0,0,-3071091,0
1,169,623.7313178,0,0,336207.2128,336208.2598,1,20,8,0,0,27,3,2110150,4070170,2161011,3081141,0,0,0,0,0,0,2110150,0,0,0,0,0,0,0,4070170,0,0,0,0,0,0,0,0,0,0,0,-2161011,0,0,0,0,0,0,0,0,3081141
1,170,586.0205421,0,0,336210.0833,336211.1303,1,20,8,1,0,34,3,3051201,0,6242301,3171190,0,0,0,0,3051201,0,0,0,0,0,0,0,0,0,0,0,0,0,0,3091131,0,3151170,0,0,0,0,0,0,0,0,0,0,0,-3171190,0,0
1,171,1102.636612,1,0,336212.9067,336213.9538,1,20,8,0,1,8,7,9282391,0,4140091,10303482,4071040,0,0,0,0,0,0,-2021190,3190161,0,0,0,0,0,0,0,0,0,0,0,4140091,0,0,0,0,0,0,2131190,2060031,0,0,0,0,3071141,3041120,0
1,172,502.4216498,0,0,336216.2008,336217.2478,1,20,8,0,0,22,7,2332211,3140200,4100122,7500341,0,0,1141191,0,1191020,0,0,0,0,0,0,0,0,0,0,0,0,3140200,0,0,0,-3090101,0,0,0,1010021,0,0,0,0,0,0,0,2110161,3200030,2190150
1,173,1216.525388,0,0,336218.8007,336219.8477,1,20,8,0,0,1,3,3242352,1051071,1040141,0,-1191161,0,0,0,2051191,0,0,0,0,0,0,0,0,0,1051071,0,0,0,0,0,0,0,0,1040141,0,0,0,0,0,0,0,0,0,0,0,0
1,174,844.0995253,1,0,336222.2241,336223.2711,1,20,8,1,1,24,7,2180131,2151191,11373561,6111201,2180131,0,0,0,0,0,0,0,0,0,0,0,0,0,0,0,0,2151191,3080100,0,0,0,3091180,-1121170,0,4081111,0,0,0,0,0,4041091,0,0,2070110,0
1,175,457.8970651,1,0,336225.1652,336226.2122,1,20,8,1,1,21,7,5241201,3142231,5121041,6200242,0,0,0,1180080,4061121,0,0,0,0,1071101,2071130,0,0,0,0,0,0,0,0,0,-3010010,0,0,2111031,0,0,0,0,4070171,0,0,0,0,2130071,0,0
1,176,664.4109125,1,0,336227.7887,336228.8357,1,20,8,0,1,20,7,2010131,2190081,9343302,7422321,2010131,0,0,0,0,0,0,0,0,0,0,0,0,0,2190081,0,0,0,2111011,-4111091,0,3121200,0,0,0,0,0,3131120,0,3160161,0,1131040,0,0,0,0
1,177,603.771092,1,0,336230.6474,336231.6944,1,20,8,0,1,29,3,0,3150060,3171111,5181261,0,0,0,0,0,0,0,0,0,0,0,0,0,0,0,0,0,3150060,0,0,0,0,0,3171111,0,0,0,0,-4010121,0,0,0,0,1171140,0,0
1,178,606.5917009,0,0,336233.4356,336234.4826,1,20,8,0,0,32,3,3111030,4041040,0,3291200,0,0,0,0,0,3111030,0,0,0,0,0,0,0,0,0,0,0,4041040,0,0,0,0,0,0,0,0,0,0,0,1181060,0,-2110140,0,0,0,0
1,179,1029.382391,1,0,336236.1296,336237.1766,1,20,8,0,1,30,3,7120101,0,0,6221132,3010051,0,0,0,0,0,0,0,4110050,0,0,0,0,0,0,0,0,0,0,0,0,0,0,0,0,0,0,0,0,-3190091,0,0,3031041,0,0,0
1,180,677.3944909,1,0,336239.3766,336240.4236,1,20,8,1,1,19,7,6461200,2231302,3130101,8261201,1140130,0,3201010,0,0,2120060,0,0,0,0,0,0,0,1071111,0,0,0,1160191,-3130101,0,0,0,0,0,0,0,0,4160101,0,0,0,0,0,4101100,0,0
1,181,1354.842246,0,0,336242.1412,336243.1882,1,20,8,1,0,4,7,5270341,7251250,3202242,4200171,0,0,0,-3130190,0,0,2140151,0,0,0,4080150,0,0,0,0,3171100,0,0,0,0,1090101,0,0,0,0,1031060,1081081,0,0,0,0,4200171,0,0,0,0
1,182,852.2926494,0,0,336245.5646,336246.6117,1,20,8,0,0,13,7,8211352,4191140,0,5320313,4041030,0,0,0,0,1160201,0,3010121,0,1080080,0,0,-3111060,0,0,0,0,0,0,0,0,0,0,0,0,0,0,0,0,0,1190171,0,3080101,0,0,1050041
1,183,921.3916021,1,0,336248.6587,336249.7057,1,20,8,1,1,6,3,2110141,1181040,3080131,1201150,0,0,0,0,0,-2110141,0,0,0,0,0,0,0,0,0,1181040,0,0,0,0,3080131,0,0,0,0,0,0,0,0,0,0,1201150,0,0,0,0
1,184,917.7764337,1,0,336251.7292,336252.7762,1,20,8,1,1,35,3,0,8281361,0,3071091,0,0,0,0,0,0,0,0,0,0,0,3010120,0,0,2200121,3071120,0,0,0,0,0,0,0,0,0,0,0,0,0,0,0,0,0,0,-3071091,0
1,185,979.4806712,1,0,336254.7644,336255.8114,1,20,8,1,1,2,7,7303342,3091011,5451411,4091090,0,-1201130,0,0,0,0,4061151,2041061,0,0,0,0,0,0,0,3091011,0,0,0,0,3140190,0,0,0,1131060,1180161,0,4091090,0,0,0,0,0,0,0,0
1,186,575.0572389,1,1,336257.9408,336258.9878,1,20,8,0,0,14,7,7320232,10321491,3110051,3132131,0,3120111,0,0,0,0,0,4200121,0,0,0,4160151,2130160,-4031180,0,0,0,0,0,0,3110051,0,0,0,0,0,0,0,2061110,1071021,0,0,0,0,0,0
1,187,881.9869981,0,0,336260.576,336261.623,1,20,8,0,0,33,7,8261091,4080181,4140031,10242341,0,0,0,0,0,4201040,0,0,4060051,0,0,0,4080181,0,0,0,0,0,0,0,0,0,0,4140031,0,0,0,3090170,0,2041010,0,3031020,-2080141,0,0,0
1,188,973.1103373,0,0,336263.6347,336264.6818,1,20,8,1,0,12,3,3100171,5052190,0,2070011,3100171,0,0,0,0,0,0,0,0,0,0,-1021120,4031070,0,0,0,0,0,0,0,0,0,0,0,0,0,0,0,0,0,2070011,0,0,0,0,0
1,189,710.3490739,1,0,336266.7994,336267.8464,1,20,8,1,1,5,3,2161031,4361362,2010080,0,0,0,0,0,-2161031,0,0,0,0,0,0,1161181,0,0,3200181,0,0,0,2010080,0,0,0,0,0,0,0,0,0,0,0,0,0,0,0,0,0
1,190,530.2793498,0,0,336269.6934,336270.7404,1,20,8,1,0,28,7,6221132,1141180,5251110,8131232,0,0,3120061,0,0,0,3101071,0,0,0,0,1141180,0,0,0,0,0,0,0,2091070,0,0,0,0,0,3160040,0,-3060061,1031111,4040060,0,0,0,0,0,0
1,191,753.6891338,1,0,336272.411,336273.458,1,20,8,1,1,31,3,0,5241381,1121141,3101061,0,0,0,0,0,0,0,0,0,0,0,0,3060190,0,0,0,2181191,0,0,0,0,0,1121141,0,0,0,0,0,0,0,-3101061,0,0,0,0,0
1,192,723.9701476,0,0,336275.2697,336276.3167,1,20,8,0,0,36,3,0,3201171,3201081,5040221,0,0,0,0,0,0,0,0,0,0,0,0,0,0,0,0,0,3201171,3201081,0,0,0,0,0,0,0,0,0,0,0,4010160,0,0,0,0,-1030061
1,193,921.8524004,1,0,336294.8456,336295.8927,1,20,9,1,1,34,3,3051201,0,6242301,3171190,0,0,0,0,3051201,0,0,0,0,0,0,0,0,0,0,0,0,0,0,3091131,0,3151170,0,0,0,0,0,0,0,0,0,0,0,-3171190,0,0
1,194,1004.052729,0,0,336297.8456,336298.8926,1,20,9,0,0,13,3,4131160,4130140,4181050,3181131,0,0,0,0,0,0,0,0,4131160,0,0,0,-4130140,0,0,0,0,0,0,4181050,0,0,0,0,0,0,0,0,0,0,3181131,0,0,0,0,0
1,195,837.4054392,1,0,336300.9631,336302.0101,1,20,9,0,1,1,3,3161170,1180071,1121121,1051120,-3161170,0,0,0,0,0,0,0,0,0,1180071,0,0,0,0,0,0,0,0,1121121,0,0,0,0,0,0,0,1051120,0,0,0,0,0,0,0,0
1,196,770.3602532,0,0,336304.0101,336305.0571,1,20,9,1,0,31,3,0,5241381,1121141,3101061,0,0,0,0,0,0,0,0,0,0,0,0,3060190,0,0,0,2181191,0,0,0,0,0,1121141,0,0,0,0,0,0,0,-3101061,0,0,0,0,0
1,197,723.3268778,1,0,336306.8571,336307.9041,1,20,9,0,1,22,7,3061120,6353342,6251240,3010060,0,0,0,0,0,0,0,0,3061120,0,2121040,1050071,0,0,0,1141100,0,2041131,0,0,0,-4100160,0,2151080,0,0,0,0,3010060,0,0,0,0,0,0,0
1,198,853.007137,1,0,336309.6923,336310.7393,1,20,9,1,1,19,7,6461200,2231302,3130101,8261201,1140130,0,3201010,0,0,2120060,0,0,0,0,0,0,0,1071111,0,0,0,1160191,-3130101,0,0,0,0,0,0,0,0,4160101,0,0,0,0,0,4101100,0,0
1,199,924.5756142,0,0,336312.7157,336313.7627,1,20,9,1,0,2,7,7303342,3091011,5451411,4091090,0,-1201130,0,0,0,0,4061151,2041061,0,0,0,0,0,0,0,3091011,0,0,0,0,3140190,0,0,0,1131060,1180161,0,4091090,0,0,0,0,0,0,0,0
1,200,982.5672883,0,0,336315.8098,336316.8568,1,20,9,1,0,6,3,2110141,1181040,3080131,1201150,0,0,0,0,0,-2110141,0,0,0,0,0,0,0,0,0,1181040,0,0,0,0,3080131,0,0,0,0,0,0,0,0,0,0,1201150,0,0,0,0
1,201,707.2774704,1,0,336318.9979,336320.0449,1,20,9,1,1,5,3,2161031,4361362,2010080,0,0,0,0,0,-2161031,0,0,0,0,0,0,1161181,0,0,3200181,0,0,0,2010080,0,0,0,0,0,0,0,0,0,0,0,0,0,0,0,0,0
1,202,764.5862238,1,0,336321.9037,336322.9507,1,20,9,0,1,27,7,3181311,3231221,6190101,4181140,0,0,0,1090181,0,0,0,2091130,0,0,0,1171120,0,0,2060101,0,0,0,0,0,4110041,0,0,0,0,0,-2080060,0,0,2140110,0,2041030,0,0,0,0
1,203,1245.14839,1,0,336324.786,336325.833,1,20,9,1,1,24,7,2180131,2151191,11373561,6111201,2180131,0,0,0,0,0,0,0,0,0,0,0,0,0,0,0,0,2151191,3080100,0,0,0,3091180,-1121170,0,4081111,0,0,0,0,0,4041091,0,0,2070110,0
1,204,718.4986974,1,0,336328.0918,336329.1388,1,20,9,0,1,8,7,5162181,4140131,6331302,8240480,2041080,0,0,0,0,0,0,-3121101,0,0,0,0,0,0,4140131,0,0,0,0,0,2150101,0,0,0,0,4181201,0,4140130,0,2010180,2090170,0,0,0,0,0
1,205,618.769941,0,0,336331.0093,336332.0564,1,20,9,0,0,20,7,3191211,7452462,4232210,0,0,0,2141130,0,0,1050081,0,0,0,0,1020180,0,1150021,1151141,0,0,0,4131120,0,-2081120,0,0,0,2151090,0,0,0,0,0,0,0,0,0,0,0,0
1,206,744.3207239,1,0,336333.8328,336334.8798,1,20,9,0,1,36,3,0,2161151,2111130,5301162,0,0,0,0,0,0,0,0,0,0,0,0,2161151,0,0,0,0,0,0,0,0,0,2111130,0,0,0,0,0,0,0,0,1140021,0,0,0,-4161141
1,207,1466.594488,0,0,336336.7386,336337.7856,1,20,9,1,0,12,3,3100171,5052190,0,2070011,3100171,0,0,0,0,0,0,0,0,0,0,-1021120,4031070,0,0,0,0,0,0,0,0,0,0,0,0,0,0,0,0,0,2070011,0,0,0,0,0
1,208,693.347273,1,0,336340.2797,336341.3267,1,20,9,0,1,29,3,0,7261040,0,4272311,0,0,0,0,0,0,0,0,0,0,0,4200030,0,3061010,0,0,0,0,0,0,0,0,0,0,0,0,0,0,-2131160,0,0,2141151,0,0,0,0
1,209,630.1913477,0,0,336343.1619,336344.209,1,20,9,0,0,14,3,2051190,3110041,5132091,0,0,0,0,2051190,0,0,0,0,0,0,0,0,0,-3110041,0,0,0,0,0,0,4101041,0,1031050,0,0,0,0,0,0,0,0,0,0,0,0,0
1,210,649.6368807,0,0,336345.8913,336346.9383,1,20,9,0,0,30,3,5252211,0,2081130,4201151,0,0,0,0,0,1141050,0,4111161,0,0,0,0,0,0,0,0,0,0,2081130,0,0,0,0,0,0,0,0,0,0,-4201151,0,0,0,0,0,0
1,211,1251.136458,0,0,336348.6088,336349.6559,1,20,9,1,0,4,7,5270341,7251250,3202242,4200171,0,0,0,-3130190,0,0,2140151,0,0,0,4080150,0,0,0,0,3171100,0,0,0,0,1090101,0,0,0,0,1031060,1081081,0,0,0,0,4200171,0,0,0,0
1,212,607.4336106,0,0,336352.1146,336353.1617,1,20,9,1,0,28,7,6221132,1141180,5251110,8131232,0,0,3120061,0,0,0,3101071,0,0,0,0,1141180,0,0,0,0,0,0,0,2091070,0,0,0,0,0,3160040,0,-3060061,1031111,4040060,0,0,0,0,0,0
1,213,957.6048797,1,0,336354.8793,336355.9263,1,20,9,1,1,35,3,0,8281361,0,3071091,0,0,0,0,0,0,0,0,0,0,0,3010120,0,0,2200121,3071120,0,0,0,0,0,0,0,0,0,0,0,0,0,0,0,0,0,0,-3071091,0
1,214,773.0723031,1,0,336358.0439,336359.0909,1,20,9,0,1,32,7,5490322,3081201,4042252,6080120,3170051,0,1170070,0,0,0,1150201,0,0,0,0,0,0,0,0,3081201,0,0,0,2031111,0,0,0,0,0,2011141,0,0,0,4030040,0,-2050080,0,0,0,0
1,215,500.3959853,0,0,336361.0085,336362.0555,1,20,9,1,0,21,7,5241201,3142231,5121041,6200242,0,0,0,1180080,4061121,0,0,0,0,1071101,2071130,0,0,0,0,0,0,0,0,0,-3010010,0,0,2111031,0,0,0,0,4070171,0,0,0,0,2130071,0,0
1,216,500.2416159,1,0,336363.7496,336364.7966,1,20,9,0,1,33,7,3020151,8252302,4202250,3301101,0,0,0,0,0,0,0,3020151,0,0,0,4120030,0,2021081,0,0,2111191,0,0,1011120,0,3191130,0,0,0,0,0,0,0,0,0,0,-2121080,0,0,1180021
1,217,1201.449546,0,0,336374.3964,336375.4434,1,20,10,0,0,8,7,5181191,1151060,5170322,5370252,4100151,0,0,0,0,0,0,-1081040,0,0,0,1151060,0,0,0,0,0,0,4100131,0,0,0,0,0,0,1070191,0,0,1160061,0,0,0,0,0,3140161,1070030
1,218,985.3647996,1,0,336377.7963,336378.8433,1,20,10,1,1,6,3,2110141,1181040,3080131,1201150,0,0,0,0,0,-2110141,0,0,0,0,0,0,0,0,0,1181040,0,0,0,0,3080131,0,0,0,0,0,0,0,0,0,0,1201150,0,0,0,0
1,219,828.0377991,0,0,336381.0197,336382.0667,1,20,10,1,0,34,3,3051201,0,6242301,3171190,0,0,0,0,3051201,0,0,0,0,0,0,0,0,0,0,0,0,0,0,3091131,0,3151170,0,0,0,0,0,0,0,0,0,0,0,-3171190,0,0
1,220,475.3635138,0,0,336383.9373,336384.9843,1,20,10,1,0,21,7,5241201,3142231,5121041,6200242,0,0,0,1180080,4061121,0,0,0,0,1071101,2071130,0,0,0,0,0,0,0,0,0,-3010010,0,0,2111031,0,0,0,0,4070171,0,0,0,0,2130071,0,0
1,221,1494.794033,1,0,336386.6078,336387.6549,1,20,10,1,1,31,3,0,5241381,1121141,3101061,0,0,0,0,0,0,0,0,0,0,0,0,3060190,0,0,0,2181191,0,0,0,0,0,1121141,0,0,0,0,0,0,0,-3101061,0,0,0,0,0
1,222,589.9798655,0,0,336390.2195,336391.2665,1,20,10,1,0,28,7,6221132,1141180,5251110,8131232,0,0,3120061,0,0,0,3101071,0,0,0,0,1141180,0,0,0,0,0,0,0,2091070,0,0,0,0,0,3160040,0,-3060061,1031111,4040060,0,0,0,0,0,0
1,223,1294.775247,0,0,336393.0547,336394.1017,1,20,10,1,0,12,3,3100171,5052190,0,2070011,3100171,0,0,0,0,0,0,0,0,0,0,-1021120,4031070,0,0,0,0,0,0,0,0,0,0,0,0,0,0,0,0,0,2070011,0,0,0,0,0
1,224,732.1343996,1,0,336396.4193,336397.4663,1,20,10,0,1,29,7,8523532,6261221,1070070,7270252,0,2161181,0,0,0,2171181,0,0,4191170,0,4081160,0,0,2180061,0,0,0,0,0,1070070,0,0,0,0,0,0,0,0,-4180091,0,3090161,0,0,0,0,0
1,225,1223.143636,0,0,336399.4074,336400.4545,1,20,10,1,0,2,7,7303342,3091011,5451411,4091090,0,-1201130,0,0,0,0,4061151,2041061,0,0,0,0,0,0,0,3091011,0,0,0,0,3140190,0,0,0,1131060,1180161,0,4091090,0,0,0,0,0,0,0,0
1,226,580.2099413,0,0,336402.7132,336403.7603,1,20,10,0,0,22,7,8512211,7231211,7341160,0,2170030,3130030,2171131,0,0,1041020,0,0,0,0,3180110,0,0,4051101,0,0,0,0,0,0,0,-3151060,0,0,0,0,4190100,0,0,0,0,0,0,0,0,0
1,227,1592.771602,0,0,336405.4896,336406.5367,1,20,10,1,0,24,7,2180131,2151191,11373561,6111201,2180131,0,0,0,0,0,0,0,0,0,0,0,0,0,0,0,0,2151191,3080100,0,0,0,3091180,-1121170,0,4081111,0,0,0,0,0,4041091,0,0,2070110,0
1,228,829.0795035,1,0,336409.1954,336410.2424,1,20,10,0,1,33,3,3020171,7191181,0,1161031,0,0,3020171,0,0,0,0,0,0,0,0,0,0,0,0,4070061,3121120,0,0,0,0,0,0,0,0,0,0,0,0,0,0,0,-1161031,0,0,0
1,229,944.0353908,1,0,336412.1483,336413.1953,1,20,10,1,1,35,3,0,8281361,0,3071091,0,0,0,0,0,0,0,0,0,0,0,3010120,0,0,2200121,3071120,0,0,0,0,0,0,0,0,0,0,0,0,0,0,0,0,0,0,-3071091,0
1,230,874.030625,1,0,336415.3364,336416.3834,1,20,10,1,1,5,3,2161031,4361362,2010080,0,0,0,0,0,-2161031,0,0,0,0,0,0,1161181,0,0,3200181,0,0,0,2010080,0,0,0,0,0,0,0,0,0,0,0,0,0,0,0,0,0
1,231,924.824299,0,0,336418.2776,336419.3246,1,20,10,0,0,32,3,0,1120051,3011200,4301232,0,0,0,0,0,0,0,0,0,0,0,0,0,0,1120051,0,0,0,0,0,0,0,0,0,3011200,0,0,0,0,0,0,-1150111,0,3151121,0,0
1,232,1048.195818,0,0,336421.3951,336422.4421,1,20,10,0,0,1,3,2120020,3331281,0,3191051,-2120020,0,0,0,0,0,0,0,0,0,0,0,1131181,0,0,0,2200100,0,0,0,0,0,0,0,0,0,0,0,0,0,0,0,3191051,0,0,0
1,233,722.0603563,1,0,336424.6891,336425.7361,1,20,10,1,1,19,7,6461200,2231302,3130101,8261201,1140130,0,3201010,0,0,2120060,0,0,0,0,0,0,0,1071111,0,0,0,1160191,-3130101,0,0,0,0,0,0,0,0,4160101,0,0,0,0,0,4101100,0,0
1,234,1561.540875,0,0,336427.6537,336428.7008,1,20,10,0,0,36,7,5142291,3161031,3191011,9281323,0,0,0,0,0,0,1081201,4061090,0,0,0,0,3161031,0,0,0,0,0,0,3191011,0,0,0,0,0,0,0,0,0,4070130,0,1161041,2030051,0,0,-2020101
1,235,625.2469092,1,0,336431.2889,336432.3359,1,20,10,0,1,20,3,0,2061200,7120250,1150070,0,0,0,0,0,0,0,0,0,0,0,0,2061200,0,0,0,0,0,0,-3010120,0,4110130,0,0,0,0,0,0,1150070,0,0,0,0,0,0,0
1,236,595.6326323,0,0,336434.1006,336435.1476,1,20,10,0,0,27,3,1161111,4141010,4150091,0,0,0,0,1161111,0,0,0,0,0,0,0,0,0,0,0,0,0,4141010,0,0,0,0,0,3030041,0,0,-1120050,0,0,0,0,0,0,0,0,0
1,237,820.5410694,1,0,336436.9005,336437.9475,1,20,10,0,1,30,3,0,0,2111171,5233163,0,0,0,0,0,0,0,0,0,0,0,0,0,0,0,0,0,0,0,0,0,0,0,0,0,0,2111171,1061061,0,-1061061,0,3111041,0,0,0,0
1,238,1214.187905,1,0,336439.7828,336440.8298,1,20,10,1,1,4,7,5270341,7251250,3202242,4200171,0,0,0,-3130190,0,0,2140151,0,0,0,4080150,0,0,0,0,3171100,0,0,0,0,1090101,0,0,0,0,1031060,1081081,0,0,0,0,4200171,0,0,0,0
1,239,725.3202057,0,0,336443.1356,336444.1827,1,20,10,0,0,14,7,4311201,5341181,0,7333191,1140011,0,0,0,0,3171190,0,0,0,0,3061130,0,0,-1160010,0,0,0,1120041,0,0,0,0,0,0,0,0,0,2071011,4091010,1171170,0,0,0,0,0,0
1,240,1239.027896,1,0,336446.0179,336447.0649,1,20,10,0,1,13,7,2282262,9542261,5230321,2180191,0,0,0,0,1171151,0,0,1111111,0,0,0,0,-4170040,0,3191111,0,2181110,0,0,0,0,0,1080140,0,4150181,0,0,0,0,0,0,0,0,0,0,2180191
1,241,914.2251688,0,0,336458.5117,336459.5587,1,20,11,1,0,34,3,3051201,0,6242301,3171190,0,0,0,0,3051201,0,0,0,0,0,0,0,0,0,0,0,0,0,0,3091131,0,3151170,0,0,0,0,0,0,0,0,0,0,0,-3171190,0,0
1,242,717.3653723,0,0,336461.6175,336462.6645,1,20,11,0,0,22,3,4030120,2120071,4171081,2160080,0,0,0,0,0,0,4030120,0,0,0,0,0,2120071,0,0,0,0,0,0,0,0,-4171081,0,0,0,0,0,0,0,2160080,0,0,0,0,0,0
1,243,1856.385169,1,0,336464.4645,336465.5115,1,20,11,0,1,32,7,3220271,7282162,3101151,4322290,0,0,0,0,2050181,0,0,1170090,0,0,4181011,0,0,0,0,0,3101151,0,0,0,0,3101151,0,0,0,0,0,0,0,0,0,-2031160,1200040,0,0,1091090
1,244,1300.356026,1,0,336468.4055,336469.4526,1,20,11,1,1,4,7,5270341,7251250,3202242,4200171,0,0,0,-3130190,0,0,2140151,0,0,0,4080150,0,0,0,0,3171100,0,0,0,0,1090101,0,0,0,0,1031060,1081081,0,0,0,0,4200171,0,0,0,0
1,245,793.3293339,1,0,336471.9584,336473.0054,1,20,11,0,1,36,3,3100021,2171160,3090020,2120071,0,0,0,0,0,3100021,0,0,0,0,0,0,0,0,0,0,0,2171160,0,0,0,0,3090020,0,0,0,0,0,0,0,0,0,0,0,0,-2120071
1,246,599.0637894,0,0,336474.9936,336476.0406,1,20,11,0,0,20,3,6220330,1070031,3081201,0,0,0,3140200,0,0,0,0,0,3080130,0,0,0,0,0,0,0,1070031,0,0,-3081201,0,0,0,0,0,0,0,0,0,0,0,0,0,0,0,0
1,247,800.8299133,0,0,336477.77,336478.817,1,20,11,1,0,19,7,6461200,2231302,3130101,8261201,1140130,0,3201010,0,0,2120060,0,0,0,0,0,0,0,1071111,0,0,0,1160191,-3130101,0,0,0,0,0,0,0,0,4160101,0,0,0,0,0,4101100,0,0
1,248,1261.948086,1,0,336480.6758,336481.7228,1,20,11,0,1,30,7,14612161,0,2140140,10393311,0,4060080,0,0,0,4170020,0,4201040,2181021,0,0,0,0,0,0,0,0,0,0,0,0,0,0,0,2140140,0,0,0,0,-3171031,3111130,0,0,4111150,0,0
1,249,738.9951739,1,0,336484.0757,336485.1227,1,20,11,0,1,14,7,4100101,6411312,6172101,5331160,0,0,0,4100101,0,0,0,0,0,0,1110071,0,0,-1121130,0,4180111,0,0,0,0,0,0,0,2011011,4161090,0,0,0,0,2180120,0,0,0,3151040,0,0
1,250,754.8598,0,0,336486.9697,336488.0167,1,20,11,1,0,2,7,7303342,3091011,5451411,4091090,0,-1201130,0,0,0,0,4061151,2041061,0,0,0,0,0,0,0,3091011,0,0,0,0,3140190,0,0,0,1131060,1180161,0,4091090,0,0,0,0,0,0,0,0
1,251,494.9534072,0,0,336489.9226,336490.9696,1,20,11,1,0,21,7,5241201,3142231,5121041,6200242,0,0,0,1180080,4061121,0,0,0,0,1071101,2071130,0,0,0,0,0,0,0,0,0,-3010010,0,0,2111031,0,0,0,0,4070171,0,0,0,0,2130071,0,0
1,252,665.608911,1,0,336492.499,336493.546,1,20,11,1,1,5,3,2161031,4361362,2010080,0,0,0,0,0,-2161031,0,0,0,0,0,0,1161181,0,0,3200181,0,0,0,2010080,0,0,0,0,0,0,0,0,0,0,0,0,0,0,0,0,0
1,253,625.4905894,0,0,336495.393,336496.44,1,20,11,1,0,28,7,6221132,1141180,5251110,8131232,0,0,3120061,0,0,0,3101071,0,0,0,0,1141180,0,0,0,0,0,0,0,2091070,0,0,0,0,0,3160040,0,-3060061,1031111,4040060,0,0,0,0,0,0
1,254,1137.917514,1,0,336498.2635,336499.3105,1,20,11,1,1,12,3,3100171,5052190,0,2070011,3100171,0,0,0,0,0,0,0,0,0,0,-1021120,4031070,0,0,0,0,0,0,0,0,0,0,0,0,0,0,0,0,0,2070011,0,0,0,0,0
1,255,1291.10272,1,0,336501.5223,336502.5693,1,20,11,0,1,33,7,7202232,4031130,5191492,6091052,0,3031161,0,0,0,0,0,4171071,0,0,4031130,0,0,0,0,0,0,0,0,0,2021190,1130111,0,0,2040191,0,0,0,0,0,0,0,-2051031,4040021,0,0
1,256,772.2916023,0,0,336504.8751,336505.9221,1,20,11,0,0,29,7,4311342,2080031,3232281,9311361,0,0,0,2181171,0,0,2130171,0,0,0,0,2080031,0,0,0,0,0,0,2031131,1201150,0,0,0,0,0,0,0,0,-4080080,0,3110080,0,0,0,2121201,0
1,257,708.5501513,0,0,336507.7338,336508.7809,1,20,11,0,0,27,3,0,0,7442272,1111040,0,0,0,0,0,0,0,0,0,0,0,0,0,0,0,0,0,0,4111130,0,0,0,0,0,1191031,0,-2140111,0,0,0,0,0,1111040,0,0,0
1,258,1277.418127,1,0,336510.6279,336511.6749,1,20,11,0,1,1,3,1160180,0,4151101,4132311,-1160180,0,0,0,0,0,0,0,0,0,0,0,0,0,0,0,0,0,0,0,0,0,0,0,0,0,4151101,1091160,0,0,0,0,0,0,0,3041151
1,259,1447.234801,0,0,336513.9572,336515.0042,1,20,11,0,0,8,7,5101072,5262211,1171060,7471332,0,0,4060021,0,0,0,0,-1041051,0,0,0,0,2201090,0,0,3061121,0,0,0,0,0,0,0,0,0,1171060,0,3171121,0,3100080,0,0,0,1200131,0,0
1,260,1043.909278,1,0,336517.6395,336518.6865,1,20,11,1,1,24,7,2180131,2151191,11373561,6111201,2180131,0,0,0,0,0,0,0,0,0,0,0,0,0,0,0,0,2151191,3080100,0,0,0,3091180,-1121170,0,4081111,0,0,0,0,0,4041091,0,0,2070110,0
1,261,2015.33786,1,0,336520.8629,336521.9099,1,20,11,0,1,13,3,3151080,9462362,0,0,0,0,0,0,3151080,0,0,0,0,0,3200130,3101111,-3161121,0,0,0,0,0,0,0,0,0,0,0,0,0,0,0,0,0,0,0,0,0,0,0
1,262,749.9758004,1,1,336525.1334,336526.1804,1,20,11,1,0,35,3,0,8281361,0,3071091,0,0,0,0,0,0,0,0,0,0,0,3010120,0,0,2200121,3071120,0,0,0,0,0,0,0,0,0,0,0,0,0,0,0,0,0,0,-3071091,0
1,263,805.1430159,0,0,336527.9451,336528.9921,1,20,11,1,0,6,3,2110141,1181040,3080131,1201150,0,0,0,0,0,-2110141,0,0,0,0,0,0,0,0,0,1181040,0,0,0,0,3080131,0,0,0,0,0,0,0,0,0,0,1201150,0,0,0,0
1,264,654.3553472,1,0,336531.0038,336532.0508,1,20,11,1,1,31,3,0,5241381,1121141,3101061,0,0,0,0,0,0,0,0,0,0,0,0,3060190,0,0,0,2181191,0,0,0,0,0,1121141,0,0,0,0,0,0,0,-3101061,0,0,0,0,0
1,265,1272.966054,1,0,336563.7558,336564.8028,1,20,12,0,1,8,7,10382503,2011151,3350291,2121070,4020100,0,0,0,1091121,0,4101151,-1170131,0,0,0,0,0,0,0,0,0,2011151,0,1150161,0,2200130,0,0,0,0,0,0,0,0,0,0,0,0,2121070,0
1,266,1134.995276,0,0,336567.2498,336568.2969,1,20,12,1,0,4,7,5270341,7251250,3202242,4200171,0,0,0,-3130190,0,0,2140151,0,0,0,4080150,0,0,0,0,3171100,0,0,0,0,1090101,0,0,0,0,1031060,1081081,0,0,0,0,4200171,0,0,0,0
1,267,1352.182551,1,0,336570.5086,336571.5556,1,20,12,0,1,30,7,3180091,5363192,4221132,8211032,0,0,0,0,3180091,0,0,0,0,0,0,1151080,0,0,0,3011061,0,1201051,2191081,0,0,0,0,0,0,0,2030051,0,0,-4201021,0,4010011,0,0,0,0
1,268,626.4091063,0,0,336574.0144,336575.0614,1,20,12,1,0,21,7,5241201,3142231,5121041,6200242,0,0,0,1180080,4061121,0,0,0,0,1071101,2071130,0,0,0,0,0,0,0,0,0,-3010010,0,0,2111031,0,0,0,0,4070171,0,0,0,0,2130071,0,0
1,269,577.1733693,1,0,336576.7555,336577.8025,1,20,12,0,1,27,3,3110060,0,7111182,3080200,0,0,0,0,0,3110060,0,0,0,0,0,0,0,0,0,0,0,0,0,0,0,0,4060161,0,0,0,-3051021,0,3080200,0,0,0,0,0,0,0
1,270,728.2759359,1,0,336579.5554,336580.6024,1,20,12,0,1,14,3,3171081,1061071,0,3321371,0,0,0,0,0,0,0,3171081,0,0,0,0,0,-1061071,0,0,0,0,0,0,0,0,0,0,0,0,0,0,0,0,1201171,0,0,0,0,2120200
1,271,1677.264759,1,0,336582.3553,336583.4023,1,20,12,0,1,36,7,2212130,2041190,5081212,7270112,0,0,0,1131070,0,0,0,0,1081060,0,0,0,0,0,0,0,2041190,0,0,0,0,2011091,0,0,0,0,3070121,2060071,0,0,0,0,0,0,3060010,-2150031
1,272,1050.394715,1,0,336586.1552,336587.2022,1,20,12,0,1,32,3,2201100,1150090,1031190,2111130,0,0,0,0,0,2201100,0,0,0,0,0,0,0,0,0,1150090,0,0,0,0,0,0,0,0,0,1031190,0,0,0,0,0,-2111130,0,0,0,0
1,273,977.8511315,0,0,336589.2728,336590.3198,1,20,12,1,0,2,7,7303342,3091011,5451411,4091090,0,-1201130,0,0,0,0,4061151,2041061,0,0,0,0,0,0,0,3091011,0,0,0,0,3140190,0,0,0,1131060,1180161,0,4091090,0,0,0,0,0,0,0,0
1,274,920.6405433,0,0,336592.461,336593.5079,1,20,12,0,0,13,3,2030100,1021020,5362080,0,0,0,0,0,0,2030100,0,0,0,0,0,0,-1021020,0,0,0,0,0,0,0,0,3161050,0,0,0,2201030,0,0,0,0,0,0,0,0,0,0
1,275,1012.171556,0,0,336595.5785,336596.6255,1,20,12,1,0,24,7,2180131,2151191,11373561,6111201,2180131,0,0,0,0,0,0,0,0,0,0,0,0,0,0,0,0,2151191,3080100,0,0,0,3091180,-1121170,0,4081111,0,0,0,0,0,4041091,0,0,2070110,0
1,276,1495.844207,1,0,336598.8137,336599.8608,1,20,12,0,1,33,7,2270311,3180130,11222512,6191171,0,0,0,0,0,0,0,1200180,1070131,0,0,0,0,0,3180130,0,0,0,0,4030171,0,0,4161201,0,0,3031140,0,0,0,0,0,0,-2141110,4050061,0,0
1,277,758.075379,0,0,336602.5665,336603.6135,1,20,12,1,0,5,3,2161031,4361362,2010080,0,0,0,0,0,-2161031,0,0,0,0,0,0,1161181,0,0,3200181,0,0,0,2010080,0,0,0,0,0,0,0,0,0,0,0,0,0,0,0,0,0
1,278,578.6774117,0,0,336605.5076,336606.5547,1,20,12,1,0,28,7,6221132,1141180,5251110,8131232,0,0,3120061,0,0,0,3101071,0,0,0,0,1141180,0,0,0,0,0,0,0,2091070,0,0,0,0,0,3160040,0,-3060061,1031111,4040060,0,0,0,0,0,0
1,279,654.4354191,1,0,336608.3311,336609.3781,1,20,12,1,1,31,3,0,5241381,1121141,3101061,0,0,0,0,0,0,0,0,0,0,0,0,3060190,0,0,0,2181191,0,0,0,0,0,1121141,0,0,0,0,0,0,0,-3101061,0,0,0,0,0
1,280,1024.422554,1,0,336611.2369,336612.2839,1,20,12,1,1,35,3,0,8281361,0,3071091,0,0,0,0,0,0,0,0,0,0,0,3010120,0,0,2200121,3071120,0,0,0,0,0,0,0,0,0,0,0,0,0,0,0,0,0,0,-3071091,0
1,281,1515.167707,0,0,336614.5191,336615.5661,1,20,12,0,0,1,7,7242260,0,4350321,2152182,-1151200,0,0,0,0,4031010,0,2060050,0,0,0,0,0,0,0,0,0,0,0,0,0,2120181,0,1090040,0,0,1140100,0,1131031,0,0,0,1021151,0,0,0
1,282,623.0129806,1,0,336618.2014,336619.2484,1,20,12,0,1,22,7,4120080,1011061,6512252,9330282,4120080,0,0,0,0,0,0,0,0,0,0,0,0,0,0,0,1011061,0,0,0,1171121,-1140050,0,4201081,0,0,0,4180131,0,0,0,0,0,2030020,0,3120131
1,283,628.8347453,0,0,336621.0484,336622.0954,1,20,12,0,0,29,3,0,1191051,2120141,5350191,0,0,0,0,0,0,0,0,0,0,0,1191051,0,0,0,0,0,0,0,0,2120141,0,0,0,0,0,0,0,-3190030,0,0,0,0,0,2160161,0
1,284,558.5270151,0,0,336623.8718,336624.9188,1,20,12,1,0,34,3,3051201,0,6242301,3171190,0,0,0,0,3051201,0,0,0,0,0,0,0,0,0,0,0,0,0,0,3091131,0,3151170,0,0,0,0,0,0,0,0,0,0,0,-3171190,0,0
1,285,496.4177987,1,0,336626.6129,336627.6599,1,20,12,0,1,20,3,0,6320382,2031141,3131061,0,0,0,0,0,0,0,0,0,2130191,0,0,4190191,0,0,0,0,0,0,-2031141,0,0,0,0,0,0,0,3131061,0,0,0,0,0,0,0,0
1,286,950.0738884,0,0,336629.3422,336630.3893,1,20,12,1,0,19,7,6461200,2231302,3130101,8261201,1140130,0,3201010,0,0,2120060,0,0,0,0,0,0,0,1071111,0,0,0,1160191,-3130101,0,0,0,0,0,0,0,0,4160101,0,0,0,0,0,4101100,0,0
1,287,659.8137087,1,0,336632.3892,336633.4363,1,20,12,1,1,6,3,2110141,1181040,3080131,1201150,0,0,0,0,0,-2110141,0,0,0,0,0,0,0,0,0,1181040,0,0,0,0,3080131,0,0,0,0,0,0,0,0,0,0,1201150,0,0,0,0
1,288,841.4848704,0,0,336635.2127,336636.2597,1,20,12,1,0,12,3,3100171,5052190,0,2070011,3100171,0,0,0,0,0,0,0,0,0,0,-1021120,4031070,0,0,0,0,0,0,0,0,0,0,0,0,0,0,0,0,0,2070011,0,0,0,0,0
1,289,572.8283148,1,0,336644.3653,336645.4124,1,20,13,0,1,8,3,3200061,9161451,0,0,0,0,0,0,0,0,0,-3200061,0,0,2060060,4020190,0,0,3081201,0,0,0,0,0,0,0,0,0,0,0,0,0,0,0,0,0,0,0,0,0
1,290,898.307418,1,0,336647.1417,336648.1888,1,20,13,1,1,34,3,3051201,0,6242301,3171190,0,0,0,0,3051201,0,0,0,0,0,0,0,0,0,0,0,0,0,0,3091131,0,3151170,0,0,0,0,0,0,0,0,0,0,0,-3171190,0,0
1,291,1049.706405,0,0,336650.2123,336651.2593,1,20,13,1,0,4,7,5270341,7251250,3202242,4200171,0,0,0,-3130190,0,0,2140151,0,0,0,4080150,0,0,0,0,3171100,0,0,0,0,1090101,0,0,0,0,1031060,1081081,0,0,0,0,4200171,0,0,0,0
1,292,1136.823455,0,0,336653.4239,336654.4711,1,20,13,1,0,2,7,7303342,3091011,5451411,4091090,0,-1201130,0,0,0,0,4061151,2041061,0,0,0,0,0,0,0,3091011,0,0,0,0,3140190,0,0,0,1131060,1180161,0,4091090,0,0,0,0,0,0,0,0
1,293,1063.441042,0,0,336656.6356,336657.6826,1,20,13,0,0,20,3,2151171,0,5041161,2120020,0,0,0,0,0,0,0,2151171,0,0,0,0,0,0,0,0,0,0,0,-4031070,0,0,0,0,1010091,0,0,0,0,0,0,0,0,0,0,2120020
1,294,769.3435713,0,0,336659.7767,336660.8237,1,20,13,1,0,6,3,2110141,1181040,3080131,1201150,0,0,0,0,0,-2110141,0,0,0,0,0,0,0,0,0,1181040,0,0,0,0,3080131,0,0,0,0,0,0,0,0,0,0,1201150,0,0,0,0
1,295,802.9895443,1,0,336662.7648,336663.8119,1,20,13,1,1,12,3,3100171,5052190,0,2070011,3100171,0,0,0,0,0,0,0,0,0,0,-1021120,4031070,0,0,0,0,0,0,0,0,0,0,0,0,0,0,0,0,0,2070011,0,0,0,0,0
1,296,604.1991686,1,0,336665.6706,336666.7177,1,20,13,0,1,22,3,4170021,1170110,3011181,3101040,0,4170021,0,0,0,0,0,0,0,0,0,1170110,0,0,0,0,0,0,0,0,0,-3011181,0,0,0,0,0,0,0,0,0,0,0,3101040,0,0
1,297,749.8210461,0,0,336668.3529,336669.3999,1,20,13,0,0,14,7,3181011,4041030,9331381,9423170,0,0,0,0,0,0,0,3181011,0,0,0,0,0,-4041030,0,0,0,0,4100150,0,3191080,0,0,0,2040151,0,0,4111060,0,1171080,0,0,0,0,0,4141030
1,298,778.3131616,1,0,336671.2705,336672.3175,1,20,13,0,1,13,3,1071121,7261271,0,2060020,0,0,0,0,1071121,0,0,0,0,0,0,4060110,-3201161,0,0,0,0,0,0,0,0,0,0,0,0,0,0,0,0,0,0,2060020,0,0,0,0
1,299,693.6179006,1,0,336674.2822,336675.3292,1,20,13,0,1,27,7,5261222,6363363,6261351,4010021,0,4201181,1060041,0,0,0,0,0,0,0,1181151,0,3101061,0,0,2081151,0,0,4080201,0,0,0,0,0,0,0,-2181150,0,0,0,0,0,4010021,0,0,0
1,300,1318.81298,1,0,336677.1409,336678.1879,1,20,13,1,1,24,7,2180131,2151191,11373561,6111201,2180131,0,0,0,0,0,0,0,0,0,0,0,0,0,0,0,0,2151191,3080100,0,0,0,3091180,-1121170,0,4081111,0,0,0,0,0,4041091,0,0,2070110,0
1,301,801.276083,1,0,336680.5643,336681.6114,1,20,13,0,1,36,7,0,4121242,2141181,9421532,0,0,0,0,0,0,0,0,0,0,3080191,0,0,1041051,0,0,0,0,0,0,0,0,1101060,1040121,0,0,0,0,0,1040180,4160191,0,1150131,0,0,-3071030
1,302,744.4127295,1,0,336683.5172,336684.5642,1,20,13,0,1,33,3,4081151,4180040,2141160,2101021,0,0,4081151,0,0,0,0,0,0,0,0,0,0,0,4180040,0,0,0,0,0,0,0,0,0,0,0,2141160,0,0,0,0,0,-2101021,0,0,0
1,303,856.8478925,0,0,336686.3289,336687.3759,1,20,13,1,0,19,7,6461200,2231302,3130101,8261201,1140130,0,3201010,0,0,2120060,0,0,0,0,0,0,0,1071111,0,0,0,1160191,-3130101,0,0,0,0,0,0,0,0,4160101,0,0,0,0,0,4101100,0,0
1,304,666.5716983,1,0,336689.317,336690.3641,1,20,13,1,1,5,3,2161031,4361362,2010080,0,0,0,0,0,-2161031,0,0,0,0,0,0,1161181,0,0,3200181,0,0,0,2010080,0,0,0,0,0,0,0,0,0,0,0,0,0,0,0,0,0
1,305,808.484862,1,1,336692.164,336693.211,1,20,13,0,0,30,7,5052282,0,5151141,12301383,0,0,0,2011101,0,0,0,3041181,0,0,0,0,0,0,0,0,0,0,0,2061060,0,3090081,0,0,0,0,0,0,4081041,-2050201,0,0,0,3030071,3140070,0
1,306,592.0324774,0,0,336695.0345,336696.0815,1,20,13,0,0,29,3,4080141,0,2011160,5032340,4080141,0,0,0,0,0,0,0,0,0,0,0,0,0,0,0,0,0,0,0,0,0,0,2011160,0,0,0,0,-2021140,3011200,0,0,0,0,0,0
1,307,1016.163601,0,0,336697.7874,336698.8344,1,20,13,1,0,35,3,0,8281361,0,3071091,0,0,0,0,0,0,0,0,0,0,0,3010120,0,0,2200121,3071120,0,0,0,0,0,0,0,0,0,0,0,0,0,0,0,0,0,0,-3071091,0
1,308,1102.874903,0,0,336701.0226,336702.0696,1,20,13,0,0,32,7,5211242,2200121,3020060,13581342,0,4130131,0,0,1081111,0,0,0,0,0,0,0,0,2200121,0,0,0,0,0,0,0,0,0,0,0,0,3020060,3151081,0,0,0,-4200171,0,4140040,2090050,0
1,309,604.8466729,1,0,336704.2696,336705.3166,1,20,13,1,1,21,7,5241201,3142231,5121041,6200242,0,0,0,1180080,4061121,0,0,0,0,1071101,2071130,0,0,0,0,0,0,0,0,0,-3010010,0,0,2111031,0,0,0,0,4070171,0,0,0,0,2130071,0,0
1,310,666.7768825,1,0,336707.0577,336708.1048,1,20,13,1,1,28,7,6221132,1141180,5251110,8131232,0,0,3120061,0,0,0,3101071,0,0,0,0,1141180,0,0,0,0,0,0,0,2091070,0,0,0,0,0,3160040,0,-3060061,1031111,4040060,0,0,0,0,0,0
1,311,1719.446471,0,0,336709.7871,336710.8341,1,20,13,0,0,1,7,10460103,4252171,0,4333462,-4170051,3200041,0,3090011,0,0,0,0,0,0,0,0,0,0,2081111,2171060,0,0,0,0,0,0,0,0,0,0,0,0,0,1111180,0,0,0,0,2151181,1071101
1,312,863.4742255,0,0,336713.6928,336714.7399,1,20,13,1,0,31,3,0,5241381,1121141,3101061,0,0,0,0,0,0,0,0,0,0,0,0,3060190,0,0,0,2181191,0,0,0,0,0,1121141,0,0,0,0,0,0,0,-3101061,0,0,0,0,0
1,313,672.6144306,1,0,336723.2926,336724.3397,1,20,14,0,1,13,3,2180180,6301370,0,1130020,0,0,0,0,0,0,0,0,2180180,0,0,0,-2130180,0,0,4171190,0,0,0,0,0,0,0,0,0,0,0,1130020,0,0,0,0,0,0,0,0
1,314,1242.613807,1,0,336726.0807,336727.1277,1,20,14,1,1,35,3,0,8281361,0,3071091,0,0,0,0,0,0,0,0,0,0,0,3010120,0,0,2200121,3071120,0,0,0,0,0,0,0,0,0,0,0,0,0,0,0,0,0,0,-3071091,0
1,315,2101.458631,1,0,336729.4806,336730.5277,1,20,14,1,1,2,7,7303342,3091011,5451411,4091090,0,-1201130,0,0,0,0,4061151,2041061,0,0,0,0,0,0,0,3091011,0,0,0,0,3140190,0,0,0,1131060,1180161,0,4091090,0,0,0,0,0,0,0,0
1,316,1359.559942,0,0,336733.8217,336734.8687,1,20,14,1,0,24,7,2180131,2151191,11373561,6111201,2180131,0,0,0,0,0,0,0,0,0,0,0,0,0,0,0,0,2151191,3080100,0,0,0,3091180,-1121170,0,4081111,0,0,0,0,0,4041091,0,0,2070110,0
1,317,1068.480951,0,0,336737.2687,336738.3157,1,20,14,0,0,29,7,10221412,6301431,0,4361170,0,0,0,3060111,0,4051150,0,0,3110151,0,3200200,2071151,0,0,0,0,1030080,0,0,0,0,0,0,0,0,0,0,0,-1170120,0,3191050,0,0,0,0,0
1,318,585.6036294,0,0,336740.4686,336741.5156,1,20,14,1,0,21,7,5241201,3142231,5121041,6200242,0,0,0,1180080,4061121,0,0,0,0,1071101,2071130,0,0,0,0,0,0,0,0,0,-3010010,0,0,2111031,0,0,0,0,4070171,0,0,0,0,2130071,0,0
1,319,613.385107,0,0,336743.2097,336744.2567,1,20,14,0,0,27,3,5170161,4090090,4091171,0,0,2020080,0,0,0,0,3150081,0,0,0,0,0,0,0,0,0,4090090,0,0,0,0,0,0,0,0,0,-4091171,0,0,0,0,0,0,0,0,0
1,320,834.2060286,1,0,336745.8919,336746.939,1,20,14,0,1,33,7,0,5102301,8292402,6321313,0,0,0,0,0,0,0,0,0,4031101,0,0,0,1071200,0,0,0,0,0,2060101,3081170,0,0,0,0,3151131,0,0,2060101,0,0,0,-3200141,0,1061071,0
1,321,1455.68277,0,0,336748.9154,336749.9624,1,20,14,1,0,4,7,5270341,7251250,3202242,4200171,0,0,0,-3130190,0,0,2140151,0,0,0,4080150,0,0,0,0,3171100,0,0,0,0,1090101,0,0,0,0,1031060,1081081,0,0,0,0,4200171,0,0,0,0
1,322,1054.848328,0,0,336752.4683,336753.5152,1,20,14,1,0,31,3,0,5241381,1121141,3101061,0,0,0,0,0,0,0,0,0,0,0,0,3060190,0,0,0,2181191,0,0,0,0,0,1121141,0,0,0,0,0,0,0,-3101061,0,0,0,0,0
1,323,976.8051927,0,0,336755.6211,336756.6681,1,20,14,1,0,6,3,2110141,1181040,3080131,1201150,0,0,0,0,0,-2110141,0,0,0,0,0,0,0,0,0,1181040,0,0,0,0,3080131,0,0,0,0,0,0,0,0,0,0,1201150,0,0,0,0
1,324,821.0823245,1,0,336758.8328,336759.8798,1,20,14,0,1,14,3,3181051,4050091,1120171,1161141,0,0,3181051,0,0,0,0,0,0,0,0,0,0,-4050091,0,0,0,0,0,0,0,0,1120171,0,0,0,0,0,0,0,1161141,0,0,0,0,0
1,325,703.0636877,1,0,336761.868,336762.915,1,20,14,1,1,34,3,3051201,0,6242301,3171190,0,0,0,0,3051201,0,0,0,0,0,0,0,0,0,0,0,0,0,0,3091131,0,3151170,0,0,0,0,0,0,0,0,0,0,0,-3171190,0,0
1,326,1270.353709,0,0,336764.6914,336765.7384,1,20,14,0,0,32,7,3130160,4010071,5472401,8322383,0,0,0,0,3130160,0,0,0,0,0,0,0,0,4010071,0,0,0,0,0,0,2171180,0,0,0,2130090,1171131,0,0,0,2131141,0,-2171091,4020151,0,0,0
1,327,1000.69202,1,0,336768.1031,336769.1501,1,20,14,0,1,36,3,2201221,0,3200141,3080110,0,1171151,0,0,0,0,0,0,1030070,0,0,0,0,0,0,0,0,0,0,0,0,0,0,0,0,0,3200141,0,0,0,0,0,0,0,0,-3080110
1,328,670.1541451,1,0,336771.2677,336772.3147,1,20,14,1,1,5,3,2161031,4361362,2010080,0,0,0,0,0,-2161031,0,0,0,0,0,0,1161181,0,0,3200181,0,0,0,2010080,0,0,0,0,0,0,0,0,0,0,0,0,0,0,0,0,0
1,329,658.6037764,0,0,336774.0912,336775.1382,1,20,14,0,0,8,7,6241091,9551562,0,5161311,0,0,0,4050030,0,0,0,-2191061,0,1150100,0,4130140,3111131,1160191,0,0,0,0,0,0,0,0,0,0,0,0,0,2100140,0,0,3061171,0,0,0,0,0
1,330,2411.284452,0,0,336776.9734,336778.0204,1,20,14,1,0,28,7,6221132,1141180,5251110,8131232,0,0,3120061,0,0,0,3101071,0,0,0,0,1141180,0,0,0,0,0,0,0,2091070,0,0,0,0,0,3160040,0,-3060061,1031111,4040060,0,0,0,0,0,0
1,331,831.8288947,1,0,336781.4439,336782.4909,1,20,14,1,1,19,7,6461200,2231302,3130101,8261201,1140130,0,3201010,0,0,2120060,0,0,0,0,0,0,0,1071111,0,0,0,1160191,-3130101,0,0,0,0,0,0,0,0,4160101,0,0,0,0,0,4101100,0,0
1,332,1004.492355,1,0,336784.4792,336785.5261,1,20,14,1,1,12,3,3100171,5052190,0,2070011,3100171,0,0,0,0,0,0,0,0,0,0,-1021120,4031070,0,0,0,0,0,0,0,0,0,0,0,0,0,0,0,0,0,2070011,0,0,0,0,0
1,333,1536.335556,1,0,336787.6672,336788.7143,1,20,14,0,1,22,3,0,2100041,2030171,5251170,0,0,0,0,0,0,0,0,0,0,0,2100041,0,0,0,0,0,0,0,0,0,-2030171,0,0,0,0,0,1131010,0,0,0,0,0,0,0,4120160
1,334,1040.363402,1,0,336791.3613,336792.4083,1,20,14,0,1,20,7,6361352,4040020,8171160,7241082,0,0,0,3140150,1020021,0,2201181,0,0,0,0,0,0,0,4040020,0,0,0,0,-4130150,0,0,0,0,0,4041010,0,0,0,0,0,3110071,0,0,0,4131011
1,335,592.6611187,0,0,336794.5259,336795.5729,1,20,14,0,0,30,3,2070080,0,0,7322380,0,0,2070080,0,0,0,0,0,0,0,0,0,0,0,0,0,0,0,0,0,0,0,0,0,0,0,0,0,0,-2110090,2111100,0,0,0,0,3101190
1,336,1379.173318,1,0,336797.1964,336798.2434,1,20,14,0,1,1,7,9281100,10303362,7231372,0,-2110010,0,4091040,0,0,0,3080050,0,0,0,0,0,0,0,0,3151011,4011200,3141151,0,0,4190191,0,0,0,0,0,3041181,0,0,0,0,0,0,0,0,0
1,337,1008.73116,1,0,336805.8197,336806.8667,1,20,15,0,1,33,3,0,2070100,6102291,1040020,0,0,0,0,0,0,0,0,0,0,2070100,0,0,0,0,0,0,0,0,2071190,0,4031101,0,0,0,0,0,0,0,0,0,0,-1040020,0,0,0
1,338,609.9219982,0,0,336808.8784,336809.9254,1,20,15,0,0,14,3,4121071,3231161,0,4091160,0,4121071,0,0,0,0,0,0,0,1140071,0,0,0,-2091090,0,0,0,0,0,0,0,0,0,0,0,0,0,0,0,0,0,4091160,0,0,0,0
1,339,1568.895223,1,0,336811.7136,336812.7604,1,20,15,0,1,22,7,1050200,2140180,14493593,2160151,0,0,0,0,0,1050200,0,0,0,0,0,2140180,0,0,0,0,0,0,0,4111071,3051140,-2100191,0,0,4091011,0,1140180,0,0,0,0,2160151,0,0,0,0
1,340,683.4533914,0,0,336815.3488,336816.3959,1,20,15,1,0,19,7,6461200,2231302,3130101,8261201,1140130,0,3201010,0,0,2120060,0,0,0,0,0,0,0,1071111,0,0,0,1160191,-3130101,0,0,0,0,0,0,0,0,4160101,0,0,0,0,0,4101100,0,0
1,341,897.2972805,1,0,336818.184,336819.2311,1,20,15,0,1,32,7,0,4172130,7091282,12184472,0,0,0,0,0,0,0,0,0,1061100,0,0,0,0,0,0,3111030,0,0,0,4021131,3070151,0,0,0,0,0,4061110,4021031,0,0,-2031160,2071171,0,0,0
1,342,779.3914373,0,0,336821.3369,336822.3839,1,20,15,0,0,36,3,0,3141271,0,5370120,0,0,0,0,0,0,0,0,0,0,0,0,0,0,2111101,0,1030170,0,0,0,0,0,0,0,0,0,0,0,0,0,0,1200050,0,0,0,-4170070
1,343,1547.221482,0,0,336824.2309,336825.278,1,20,15,0,0,1,7,4120090,1190070,7281452,6311472,-4120090,0,0,0,0,0,0,0,0,0,0,0,0,1190070,0,0,0,0,0,0,3091121,1040180,0,3150151,0,0,0,1110170,0,0,0,3131141,0,0,2070161,0
1,344,599.0353022,1,0,336827.9132,336828.9602,1,20,15,0,1,27,3,0,3141161,4172321,0,0,0,0,0,0,0,0,0,0,0,1110030,0,2031131,0,0,0,0,0,0,0,0,1031121,0,0,0,0,-3141200,0,0,0,0,0,0,0,0,0
1,345,631.5645034,0,0,336830.6896,336831.7366,1,20,15,1,0,34,3,3051201,0,6242301,3171190,0,0,0,0,3051201,0,0,0,0,0,0,0,0,0,0,0,0,0,0,3091131,0,3151170,0,0,0,0,0,0,0,0,0,0,0,-3171190,0,0
1,346,584.7771182,1,0,336833.5483,336834.5953,1,20,15,0,1,13,7,4130020,8281221,2280241,5111241,0,0,0,0,0,4130020,0,0,0,0,0,0,-4060010,1171131,0,3050080,0,0,0,0,0,1130201,0,0,1150040,0,0,0,1051111,0,4060130,0,0,0,0,0
1,347,679.2503876,0,0,336836.36,336837.407,1,20,15,1,0,24,7,2180131,2151191,11373561,6111201,2180131,0,0,0,0,0,0,0,0,0,0,0,0,0,0,0,0,2151191,3080100,0,0,0,3091180,-1121170,0,4081111,0,0,0,0,0,4041091,0,0,2070110,0
1,348,619.6141603,1,0,336839.1835,336840.2305,1,20,15,0,1,20,7,7311082,4350200,3331341,6230132,0,0,0,0,0,0,4201041,0,3110041,1150170,0,3200030,0,0,0,0,0,0,0,-2200170,0,0,0,0,0,1131171,0,0,2070111,0,0,0,0,4160021,0,0
1,349,488.6843179,0,0,336841.9364,336842.9834,1,20,15,1,0,28,7,6221132,1141180,5251110,8131232,0,0,3120061,0,0,0,3101071,0,0,0,0,1141180,0,0,0,0,0,0,0,2091070,0,0,0,0,0,3160040,0,-3060061,1031111,4040060,0,0,0,0,0,0
1,350,746.4599519,1,0,336844.5127,336845.5597,1,20,15,0,1,30,3,1130041,3081061,0,7222272,0,0,0,0,0,1130041,0,0,0,0,0,3081061,0,0,0,0,0,0,0,0,0,0,0,0,0,0,0,0,0,-4171081,0,0,0,0,0,3051191
1,351,424.8974416,0,0,336847.4891,336848.5361,1,20,15,1,0,21,7,5241201,3142231,5121041,6200242,0,0,0,1180080,4061121,0,0,0,0,1071101,2071130,0,0,0,0,0,0,0,0,0,-3010010,0,0,2111031,0,0,0,0,4070171,0,0,0,0,2130071,0,0
1,352,980.962001,1,0,336850.089,336851.1361,1,20,15,1,1,6,3,2110141,1181040,3080131,1201150,0,0,0,0,0,-2110141,0,0,0,0,0,0,0,0,0,1181040,0,0,0,0,3080131,0,0,0,0,0,0,0,0,0,0,1201150,0,0,0,0
1,353,1025.767222,0,0,336853.3125,336854.3713,1,20,15,1,0,35,3,0,8281361,0,3071091,0,0,0,0,0,0,0,0,0,0,0,3010120,0,0,2200121,3071120,0,0,0,0,0,0,0,0,0,0,0,0,0,0,0,0,0,0,-3071091,0
1,354,683.2266494,0,0,336856.4418,336857.4888,1,20,15,0,0,29,7,0,1010070,9462352,10351324,0,0,0,0,0,0,0,0,0,1010070,0,0,0,0,0,0,0,0,0,2201100,0,0,4151051,0,0,0,3110201,0,-3130051,4011051,0,0,1130161,0,2080061,0
1,355,899.343348,0,0,336859.3476,336860.3946,1,20,15,1,0,5,3,2161031,4361362,2010080,0,0,0,0,0,-2161031,0,0,0,0,0,0,1161181,0,0,3200181,0,0,0,2010080,0,0,0,0,0,0,0,0,0,0,0,0,0,0,0,0,0
1,356,1276.692091,1,0,336862.4182,336863.4652,1,20,15,1,1,4,7,5270341,7251250,3202242,4200171,0,0,0,-3130190,0,0,2140151,0,0,0,4080150,0,0,0,0,3171100,0,0,0,0,1090101,0,0,0,0,1031060,1081081,0,0,0,0,4200171,0,0,0,0
1,357,815.8172134,0,0,336865.9121,336866.9592,1,20,15,0,0,8,3,4250261,1171161,2171130,0,0,0,0,0,0,0,1070100,-3180161,0,0,0,0,0,0,0,0,0,1171161,0,0,2171130,0,0,0,0,0,0,0,0,0,0,0,0,0,0,0
1,358,954.6903403,1,0,336868.8062,336869.8532,1,20,15,1,1,2,7,7303342,3091011,5451411,4091090,0,-1201130,0,0,0,0,4061151,2041061,0,0,0,0,0,0,0,3091011,0,0,0,0,3140190,0,0,0,1131060,1180161,0,4091090,0,0,0,0,0,0,0,0
1,359,964.0140947,1,0,336871.9708,336873.0178,1,20,15,1,1,12,3,3100171,5052190,0,2070011,3100171,0,0,0,0,0,0,0,0,0,0,-1021120,4031070,0,0,0,0,0,0,0,0,0,0,0,0,0,0,0,0,0,2070011,0,0,0,0,0
1,360,537.4092117,1,0,336875.0883,336876.1354,1,20,15,1,1,31,3,0,5241381,1121141,3101061,0,0,0,0,0,0,0,0,0,0,0,0,3060190,0,0,0,2181191,0,0,0,0,0,1121141,0,0,0,0,0,0,0,-3101061,0,0,0,0,0
1,361,587.3640558,0,0,336888.9703,336890.0173,1,20,16,1,0,21,7,5241201,3142231,5121041,6200242,0,0,0,1180080,4061121,0,0,0,0,1071101,2071130,0,0,0,0,0,0,0,0,0,-3010010,0,0,2111031,0,0,0,0,4070171,0,0,0,0,2130071,0,0
1,362,625.030946,1,0,336891.6526,336892.6996,1,20,16,0,1,29,7,7443222,6391362,1041071,2191040,0,3181010,0,0,0,3091041,1171171,0,0,3080030,0,0,0,0,2181191,1130141,0,0,0,1041071,0,0,0,0,0,0,0,0,-2191040,0,0,0,0,0,0,0
1,363,1330.446885,1,0,336894.3702,336895.4172,1,20,16,1,1,4,7,5270341,7251250,3202242,4200171,0,0,0,-3130190,0,0,2140151,0,0,0,4080150,0,0,0,0,3171100,0,0,0,0,1090101,0,0,0,0,1031060,1081081,0,0,0,0,4200171,0,0,0,0
1,364,580.1903083,1,0,336897.8995,336898.9465,1,20,16,0,1,33,3,5230231,0,2161051,1010190,0,0,4110100,0,0,1120131,0,0,0,0,0,0,0,0,0,0,0,0,2161051,0,0,0,0,0,0,0,0,0,0,0,0,0,-1010190,0,0,0
1,365,505.4204957,1,0,336900.5582,336901.6052,1,20,16,0,1,20,3,0,2170080,4351100,2131170,0,0,0,0,0,0,0,0,0,0,0,0,0,0,0,0,2170080,0,0,-3180080,0,0,0,0,1171020,0,0,0,0,0,2131170,0,0,0,0,0
1,366,637.8647746,1,0,336903.2876,336904.3346,1,20,16,0,1,14,3,0,5281262,4130160,3011060,0,0,0,0,0,0,0,0,0,0,0,0,3091141,-2190121,0,0,0,0,0,0,0,0,0,0,4130160,0,0,3011060,0,0,0,0,0,0,0,0
1,367,716.2809374,1,0,336906.0051,336907.0522,1,20,16,0,1,8,7,3131210,5201210,2101050,8270122,0,0,1021150,0,0,0,0,-2110060,0,0,0,3110180,0,0,0,0,0,2091030,0,0,0,0,0,2101050,0,0,0,0,3010030,0,0,3170031,2090061,0,0,0
1,368,555.5751345,1,1,336908.8168,336909.8638,1,20,16,1,0,19,7,6461200,2231302,3130101,8261201,1140130,0,3201010,0,0,2120060,0,0,0,0,0,0,0,1071111,0,0,0,1160191,-3130101,0,0,0,0,0,0,0,0,4160101,0,0,0,0,0,4101100,0,0
1,369,948.1017335,0,0,336911.4873,336912.5344,1,20,16,0,0,27,3,0,0,8292192,5140180,0,0,0,0,0,0,0,0,0,0,0,0,0,0,0,0,0,0,0,0,0,0,0,4091021,0,0,-4201171,2090170,0,0,0,0,0,3050010,0,0
1,370,666.4712235,0,0,336914.6049,336915.6519,1,20,16,0,0,22,7,4061100,4150080,9421783,2180040,0,0,4061100,0,0,0,0,0,0,0,4150080,0,0,0,0,0,0,0,1020121,2060180,0,-2160131,0,0,0,3030181,1151170,0,2180040,0,0,0,0,0,0,0
1,371,844.5152831,0,0,336917.3578,336918.4048,1,20,16,0,0,13,3,0,2101061,11402281,0,0,0,0,0,0,0,0,0,0,0,0,0,-2101061,0,0,0,0,0,0,0,4170140,4191051,0,0,0,0,3041090,0,0,0,0,0,0,0,0,0
1,372,1669.162871,0,0,336920.4283,336921.4753,1,20,16,0,0,32,7,6151091,0,7391351,9261282,0,3110061,3041030,0,0,0,0,0,0,0,0,0,0,0,0,0,0,0,0,0,0,4190180,2070031,1131140,0,0,0,2190111,0,0,0,-4061030,0,0,3010141,0
1,373,1042.667394,1,0,336924.2988,336925.3458,1,20,16,1,1,12,3,3100171,5052190,0,2070011,3100171,0,0,0,0,0,0,0,0,0,0,-1021120,4031070,0,0,0,0,0,0,0,0,0,0,0,0,0,0,0,0,0,2070011,0,0,0,0,0
1,374,586.7281003,1,0,336927.4987,336928.5457,1,20,16,1,1,28,7,6221132,1141180,5251110,8131232,0,0,3120061,0,0,0,3101071,0,0,0,0,1141180,0,0,0,0,0,0,0,2091070,0,0,0,0,0,3160040,0,-3060061,1031111,4040060,0,0,0,0,0,0
1,375,941.2517381,0,0,336930.275,336931.3221,1,20,16,1,0,35,3,0,8281361,0,3071091,0,0,0,0,0,0,0,0,0,0,0,3010120,0,0,2200121,3071120,0,0,0,0,0,0,0,0,0,0,0,0,0,0,0,0,0,0,-3071091,0
1,376,1992.240972,1,0,336933.4279,336934.4749,1,20,16,0,1,36,7,1180101,6201151,8522553,8140131,1180101,0,0,0,0,0,0,0,0,3061051,3140100,0,0,0,0,0,0,0,3200191,0,0,1131171,4191191,0,0,0,0,0,0,0,0,0,0,4100090,0,-4040041
1,377,1629.618526,0,0,336937.5454,336938.5925,1,20,16,0,0,1,7,3222240,2162151,2131061,7200132,-1121150,0,0,0,0,1021030,1080060,0,0,0,0,0,1011140,0,0,1151011,0,0,0,0,0,0,2131061,0,0,0,0,0,3120081,4080051,0,0,0,0,0,0
1,378,740.9557801,1,0,336941.3571,336942.4041,1,20,16,1,1,5,3,2161031,4361362,2010080,0,0,0,0,0,-2161031,0,0,0,0,0,0,1161181,0,0,3200181,0,0,0,2010080,0,0,0,0,0,0,0,0,0,0,0,0,0,0,0,0,0
1,379,984.9836882,0,0,336944.2041,336945.2511,1,20,16,0,0,30,3,0,0,1070200,5331330,0,0,0,0,0,0,0,0,0,0,0,0,0,0,0,0,0,0,1070200,0,0,0,0,0,0,0,0,0,0,-2100080,0,0,0,0,2131140,1100110
1,380,570.11511,0,0,336947.3099,336948.3569,1,20,16,1,0,34,3,3051201,0,6242301,3171190,0,0,0,0,3051201,0,0,0,0,0,0,0,0,0,0,0,0,0,0,3091131,0,3151170,0,0,0,0,0,0,0,0,0,0,0,-3171190,0,0
1,381,754.7500862,1,0,336949.9804,336951.0274,1,20,16,1,1,2,7,7303342,3091011,5451411,4091090,0,-1201130,0,0,0,0,4061151,2041061,0,0,0,0,0,0,0,3091011,0,0,0,0,3140190,0,0,0,1131060,1180161,0,4091090,0,0,0,0,0,0,0,0
1,382,769.0821828,1,0,336952.8038,336953.8509,1,20,16,1,1,31,3,0,5241381,1121141,3101061,0,0,0,0,0,0,0,0,0,0,0,0,3060190,0,0,0,2181191,0,0,0,0,0,1121141,0,0,0,0,0,0,0,-3101061,0,0,0,0,0
1,383,1376.885111,0,0,336955.6861,336956.7331,1,20,16,1,0,24,7,2180131,2151191,11373561,6111201,2180131,0,0,0,0,0,0,0,0,0,0,0,0,0,0,0,0,2151191,3080100,0,0,0,3091180,-1121170,0,4081111,0,0,0,0,0,4041091,0,0,2070110,0
1,384,764.5169307,1,0,336959.3095,336960.3566,1,20,16,1,1,6,3,2110141,1181040,3080131,1201150,0,0,0,0,0,-2110141,0,0,0,0,0,0,0,0,0,1181040,0,0,0,0,3080131,0,0,0,0,0,0,0,0,0,0,1201150,0,0,0,0
1,385,833.4984703,1,0,336990.9792,336992.0263,1,20,17,0,1,33,3,0,0,5231351,4130101,0,0,0,0,0,0,0,0,0,0,0,0,0,0,0,0,0,0,0,1060040,2101121,0,0,0,2070190,0,0,0,0,0,0,0,-4130101,0,0,0
1,386,546.3622488,0,0,336993.9792,336995.0262,1,20,17,0,0,27,3,0,5102232,1051010,1031120,0,0,0,0,0,0,0,0,0,4051191,0,0,0,0,0,1051041,0,0,0,0,0,0,0,0,0,0,-1051010,0,0,0,0,1031120,0,0,0,0
1,387,1142.221378,0,0,336996.7203,336997.7673,1,20,17,0,0,30,3,6251111,2150071,0,3140051,0,4140081,0,0,0,0,0,2111030,0,0,0,0,2150071,0,0,0,0,0,0,0,0,0,0,0,0,0,0,0,0,-3140051,0,0,0,0,0,0
1,388,727.8994441,1,0,336999.9908,337001.0378,1,20,17,1,1,5,3,2161031,4361362,2010080,0,0,0,0,0,-2161031,0,0,0,0,0,0,1161181,0,0,3200181,0,0,0,2010080,0,0,0,0,0,0,0,0,0,0,0,0,0,0,0,0,0
1,389,762.5155187,1,0,337002.9201,337003.9671,1,20,17,1,1,35,3,0,8281361,0,3071091,0,0,0,0,0,0,0,0,0,0,0,3010120,0,0,2200121,3071120,0,0,0,0,0,0,0,0,0,0,0,0,0,0,0,0,0,0,-3071091,0
1,390,758.3402321,0,0,337005.8612,337006.9082,1,20,17,0,0,36,7,4362412,3051051,2131180,4400292,2171181,0,1050040,0,0,0,1141191,0,0,0,0,0,0,3051051,0,0,0,0,0,0,0,0,1041100,0,0,1090080,0,0,0,0,0,2200131,0,0,0,-2200161
1,391,690.5355182,1,0,337008.6729,337009.7199,1,20,17,0,1,22,7,2020060,0,3181122,13393624,0,0,0,0,0,0,0,0,2020060,0,0,0,0,0,0,0,0,0,0,0,0,-2060081,0,1121041,0,0,0,3041101,0,0,3061121,1090140,0,4071071,0,2130191
1,392,1476.512622,0,0,337011.5669,337012.6139,1,20,17,0,0,32,7,9301232,4171331,4191181,3301152,2080061,0,0,3150121,0,0,0,4071050,0,0,0,0,0,2141191,0,0,0,2030140,0,0,0,0,0,0,0,4191181,0,0,0,0,0,-1100091,0,2201061,0,0
1,393,1091.990517,1,0,337015.2845,337016.3315,1,20,17,1,1,4,7,5270341,7251250,3202242,4200171,0,0,0,-3130190,0,0,2140151,0,0,0,4080150,0,0,0,0,3171100,0,0,0,0,1090101,0,0,0,0,1031060,1081081,0,0,0,0,4200171,0,0,0,0
1,394,702.7418604,0,0,337018.5197,337019.5667,1,20,17,1,0,19,7,6461200,2231302,3130101,8261201,1140130,0,3201010,0,0,2120060,0,0,0,0,0,0,0,1071111,0,0,0,1160191,-3130101,0,0,0,0,0,0,0,0,4160101,0,0,0,0,0,4101100,0,0
1,395,1174.086136,0,0,337021.3313,337022.3784,1,20,17,1,0,2,7,7303342,3091011,5451411,4091090,0,-1201130,0,0,0,0,4061151,2041061,0,0,0,0,0,0,0,3091011,0,0,0,0,3140190,0,0,0,1131060,1180161,0,4091090,0,0,0,0,0,0,0,0
1,396,917.7587255,1,0,337024.5666,337025.6136,1,20,17,0,1,1,7,10472370,3242120,9342251,0,-4191110,0,0,0,4191160,0,0,0,2090100,2111030,0,0,0,0,0,1131090,0,0,4141050,0,0,0,2170171,0,0,0,3031030,0,0,0,0,0,0,0,0,0
1,397,968.7891505,0,0,337027.5665,337028.6135,1,20,17,1,0,6,3,2110141,1181040,3080131,1201150,0,0,0,0,0,-2110141,0,0,0,0,0,0,0,0,0,1181040,0,0,0,0,3080131,0,0,0,0,0,0,0,0,0,0,1201150,0,0,0,0
1,398,513.3703245,1,0,337030.7428,337031.7899,1,20,17,1,1,21,7,5241201,3142231,5121041,6200242,0,0,0,1180080,4061121,0,0,0,0,1071101,2071130,0,0,0,0,0,0,0,0,0,-3010010,0,0,2111031,0,0,0,0,4070171,0,0,0,0,2130071,0,0
1,399,787.6680979,0,0,337033.3545,337034.4016,1,20,17,0,0,13,3,0,6300371,0,3180151,0,0,0,0,0,0,0,0,0,0,0,2170040,-1050181,0,0,0,3080150,0,0,0,0,0,0,0,0,0,0,0,0,0,0,0,0,0,3180151,0
1,400,866.940414,1,0,337036.3662,337037.4132,1,20,17,1,1,24,7,2180131,2151191,11373561,6111201,2180131,0,0,0,0,0,0,0,0,0,0,0,0,0,0,0,0,2151191,3080100,0,0,0,3091180,-1121170,0,4081111,0,0,0,0,0,4041091,0,0,2070110,0
1,401,575.5072582,1,0,337039.3426,337040.3896,1,20,17,0,1,29,3,4130030,4121150,2141121,1061200,0,0,0,0,0,0,0,4130030,0,0,0,0,0,4121150,0,0,0,0,0,0,0,0,0,0,0,0,2141121,0,-1061200,0,0,0,0,0,0,0
1,402,879.0970962,0,0,337042.0131,337043.0601,1,20,17,1,0,31,3,0,5241381,1121141,3101061,0,0,0,0,0,0,0,0,0,0,0,0,3060190,0,0,0,2181191,0,0,0,0,0,1121141,0,0,0,0,0,0,0,-3101061,0,0,0,0,0
1,403,1145.358425,1,0,337044.9777,337046.0248,1,20,17,0,1,8,7,7451332,4320261,0,6292350,0,2180071,0,0,3030070,1200181,0,-1041010,0,0,0,0,0,0,1130170,3190091,0,0,0,0,0,0,0,0,0,0,0,4151160,0,0,0,2141190,0,0,0,0
1,404,1090.220081,1,0,337048.3659,337049.4129,1,20,17,1,1,12,3,3100171,5052190,0,2070011,3100171,0,0,0,0,0,0,0,0,0,0,-1021120,4031070,0,0,0,0,0,0,0,0,0,0,0,0,0,0,0,0,0,2070011,0,0,0,0,0
1,405,603.4419504,0,0,337051.6246,337052.6716,1,20,17,1,0,34,3,3051201,0,6242301,3171190,0,0,0,0,3051201,0,0,0,0,0,0,0,0,0,0,0,0,0,0,3091131,0,3151170,0,0,0,0,0,0,0,0,0,0,0,-3171190,0,0
1,406,665.4826438,0,0,337054.3304,337055.3774,1,20,17,1,0,28,7,6221132,1141180,5251110,8131232,0,0,3120061,0,0,0,3101071,0,0,0,0,1141180,0,0,0,0,0,0,0,2091070,0,0,0,0,0,3160040,0,-3060061,1031111,4040060,0,0,0,0,0,0
1,407,948.5675361,0,0,337057.0715,337058.1185,1,20,17,0,0,14,7,7052262,8481481,7323360,0,0,0,0,3041161,4011101,0,0,0,0,0,0,0,1180120,-4170201,3131160,0,0,0,2201080,0,0,0,1081150,0,4041130,0,0,0,0,0,0,0,0,0,0,0
1,408,524.863334,0,0,337060.142,337061.189,1,20,17,0,0,20,3,7201161,0,3200342,0,0,0,0,0,4050081,0,3151080,0,0,0,0,0,0,0,0,0,0,0,0,-1180201,0,0,0,2020141,0,0,0,0,0,0,0,0,0,0,0,0
1,409,649.9028887,1,0,337070.33,337071.377,1,20,18,1,1,34,3,3051201,0,6242301,3171190,0,0,0,0,3051201,0,0,0,0,0,0,0,0,0,0,0,0,0,0,3091131,0,3151170,0,0,0,0,0,0,0,0,0,0,0,-3171190,0,0
1,410,1041.384319,0,0,337073.1064,337074.1534,1,20,18,1,0,6,3,2110141,1181040,3080131,1201150,0,0,0,0,0,-2110141,0,0,0,0,0,0,0,0,0,1181040,0,0,0,0,3080131,0,0,0,0,0,0,0,0,0,0,1201150,0,0,0,0
1,411,771.9601509,0,0,337076.3769,337077.4239,1,20,18,0,0,22,7,5231191,2081021,6382071,5340373,0,0,0,3140161,0,0,0,0,2091030,0,0,0,0,2081021,0,0,0,0,0,0,0,-4191041,2191030,0,0,0,0,2150141,0,0,0,0,1080101,2110131,0,0
1,412,1400.831992,0,0,337079.2238,337080.2709,1,20,18,0,0,1,7,8291361,6331252,7391131,0,-2090131,0,0,0,0,4060070,2141160,0,0,0,2031051,0,0,2170050,0,0,2130151,0,0,4201070,0,0,0,3190061,0,0,0,0,0,0,0,0,0,0,0,0
1,413,709.855554,0,0,337082.7179,337083.7649,1,20,18,1,0,28,7,6221132,1141180,5251110,8131232,0,0,3120061,0,0,0,3101071,0,0,0,0,1141180,0,0,0,0,0,0,0,2091070,0,0,0,0,0,3160040,0,-3060061,1031111,4040060,0,0,0,0,0,0
1,414,1033.412547,1,0,337085.4943,337086.5413,1,20,18,1,1,31,3,0,5241381,1121141,3101061,0,0,0,0,0,0,0,0,0,0,0,0,3060190,0,0,0,2181191,0,0,0,0,0,1121141,0,0,0,0,0,0,0,-3101061,0,0,0,0,0
1,415,652.8208929,1,0,337088.6118,337089.6588,1,20,18,0,1,32,7,2031021,4133361,1121161,9342331,0,0,0,0,0,2031021,0,0,0,0,1021070,2021121,0,0,0,0,0,1091170,0,0,0,0,0,0,1121161,0,0,0,0,0,0,-2131131,0,0,3171040,4040160
1,416,408.5546939,1,0,337091.4941,337092.5411,1,20,18,0,1,20,3,0,4140120,1201041,5131180,0,0,0,0,0,0,0,0,0,0,0,0,0,0,0,0,0,4140120,0,-1201041,0,0,0,0,0,0,0,1101090,0,4030090,0,0,0,0,0,0
1,417,762.0932165,1,0,337094.0705,337095.1175,1,20,18,0,1,8,3,7192251,0,2130031,4021201,0,0,0,0,0,0,3061180,-4131071,0,0,0,0,0,0,0,0,0,0,0,2130031,0,0,0,0,0,0,0,0,0,0,0,4021201,0,0,0,0
1,418,997.9949837,1,0,337096.9057,337097.9527,1,20,18,1,1,35,3,0,8281361,0,3071091,0,0,0,0,0,0,0,0,0,0,0,3010120,0,0,2200121,3071120,0,0,0,0,0,0,0,0,0,0,0,0,0,0,0,0,0,0,-3071091,0
1,419,880.4914248,1,0,337100.0821,337101.1291,1,20,18,0,1,33,3,2190292,3111021,0,1031191,1020091,0,0,0,0,0,0,0,1170201,0,0,0,0,3111021,0,0,0,0,0,0,0,0,0,0,0,0,0,0,0,0,0,0,-1031191,0,0,0
1,420,1243.5662,0,0,337103.1879,337104.2349,1,20,18,0,0,13,7,7130371,1161020,1111141,9283380,0,0,0,0,0,0,4050181,3080190,0,0,0,0,-1161020,0,0,0,0,0,0,0,0,0,0,0,0,1111141,0,3091160,2081170,0,0,0,3011040,1100010,0,0
1,421,1577.65842,1,0,337106.6349,337107.6819,1,20,18,0,1,30,7,7322261,6230082,1020190,5180081,0,0,0,0,3141090,1060070,0,0,3121101,4110061,0,0,2120021,0,0,0,0,0,0,1020190,0,0,0,0,0,0,0,0,0,-4080040,0,0,0,1100041,0,0
1,422,1398.460248,0,0,337110.423,337111.47,1,20,18,1,0,4,7,5270341,7251250,3202242,4200171,0,0,0,-3130190,0,0,2140151,0,0,0,4080150,0,0,0,0,3171100,0,0,0,0,1090101,0,0,0,0,1031060,1081081,0,0,0,0,4200171,0,0,0,0
1,423,781.8521078,0,0,337113.9405,337114.9875,1,20,18,0,0,14,3,0,6363371,2030160,0,0,0,0,0,0,0,0,0,0,0,0,1101140,4121100,-1141131,0,0,0,0,0,0,0,0,0,0,2030160,0,0,0,0,0,0,0,0,0,0,0
1,424,1276.129663,0,0,337116.9051,337117.9522,1,20,18,1,0,24,7,2180131,2151191,11373561,6111201,2180131,0,0,0,0,0,0,0,0,0,0,0,0,0,0,0,0,2151191,3080100,0,0,0,3091180,-1121170,0,4081111,0,0,0,0,0,4041091,0,0,2070110,0
1,425,921.9582646,1,0,337120.3403,337121.3874,1,20,18,1,1,12,3,3100171,5052190,0,2070011,3100171,0,0,0,0,0,0,0,0,0,0,-1021120,4031070,0,0,0,0,0,0,0,0,0,0,0,0,0,0,0,0,0,2070011,0,0,0,0,0
1,426,718.1930385,0,0,337123.3403,337124.3873,1,20,18,1,0,5,3,2161031,4361362,2010080,0,0,0,0,0,-2161031,0,0,0,0,0,0,1161181,0,0,3200181,0,0,0,2010080,0,0,0,0,0,0,0,0,0,0,0,0,0,0,0,0,0
1,427,448.7130514,0,0,337126.2226,337127.2696,1,20,18,1,0,21,7,5241201,3142231,5121041,6200242,0,0,0,1180080,4061121,0,0,0,0,1071101,2071130,0,0,0,0,0,0,0,0,0,-3010010,0,0,2111031,0,0,0,0,4070171,0,0,0,0,2130071,0,0
1,428,776.8518499,0,0,337128.7754,337129.8224,1,20,18,0,0,27,7,0,2080190,12520382,5450422,0,0,0,0,0,0,0,0,0,0,0,0,0,0,0,2080190,0,0,1120061,4080130,3120160,0,0,0,0,0,-4200031,0,0,1110171,0,0,1140140,0,0,3200111
1,429,658.4182252,1,0,337131.7047,337132.7518,1,20,18,0,1,29,3,2180171,4180191,0,1020181,0,2180171,0,0,0,0,0,0,0,0,0,0,0,1050010,0,0,3130181,0,0,0,0,0,0,0,0,0,0,0,-1020181,0,0,0,0,0,0,0
1,430,800.7248189,0,0,337134.4576,337135.5046,1,20,18,0,0,36,3,0,0,2031100,5242323,0,0,0,0,0,0,0,0,0,0,0,0,0,0,0,0,0,0,0,0,0,0,0,0,2031100,0,0,0,0,1090071,0,0,0,0,1021071,-3131181
1,431,920.8738296,1,0,337137.4222,337138.4692,1,20,18,1,1,19,7,6461200,2231302,3130101,8261201,1140130,0,3201010,0,0,2120060,0,0,0,0,0,0,0,1071111,0,0,0,1160191,-3130101,0,0,0,0,0,0,0,0,4160101,0,0,0,0,0,4101100,0,0
1,432,1258.607395,0,0,337140.5516,337141.5986,1,20,18,1,0,2,7,7303342,3091011,5451411,4091090,0,-1201130,0,0,0,0,4061151,2041061,0,0,0,0,0,0,0,3091011,0,0,0,0,3140190,0,0,0,1131060,1180161,0,4091090,0,0,0,0,0,0,0,0
1,433,603.1047246,0,0,337150.0219,337151.0689,1,20,19,0,0,22,7,5321211,1011121,5141351,9352320,0,0,0,0,0,3201070,0,0,2120141,0,0,0,0,0,0,0,0,1011121,0,2060200,0,-3081151,0,0,0,0,0,0,0,3191080,3111180,0,0,3050060,0,0
1,434,598.7862325,1,0,337152.7512,337153.7982,1,20,19,0,1,29,7,3171152,1060081,5211350,9452150,2091111,0,1080041,0,0,0,0,0,0,0,0,0,0,0,1060081,0,0,0,0,0,0,0,0,2100180,0,0,3111170,0,-2111080,0,4190020,0,0,0,0,3151050
1,435,1070.785327,1,0,337155.4923,337156.5393,1,20,19,0,1,8,7,13412281,0,3210311,5170222,0,4140021,2180080,0,0,0,0,-3081170,4011010,0,0,0,0,0,0,0,0,0,1130181,0,0,0,0,0,0,0,2080130,0,0,0,0,0,0,2150021,0,3020201
1,436,851.961198,0,0,337158.751,337159.7981,1,20,19,1,0,28,7,6221132,1141180,5251110,8131232,0,0,3120061,0,0,0,3101071,0,0,0,0,1141180,0,0,0,0,0,0,0,2091070,0,0,0,0,0,3160040,0,-3060061,1031111,4040060,0,0,0,0,0,0
1,437,772.6407619,1,0,337161.8334,337162.8803,1,20,19,0,1,30,3,1201070,7401361,0,2091161,0,0,0,0,0,0,1201070,0,0,3201191,0,0,0,0,4200170,0,0,0,0,0,0,0,0,0,0,0,0,0,0,-2091161,0,0,0,0,0,0
1,438,1965.401109,1,0,337164.6685,337165.7155,1,20,19,0,1,32,7,5382101,4220280,4050091,7260182,0,0,0,0,1181041,0,0,0,4201060,1040070,0,0,0,0,1100160,0,2080050,0,0,0,0,0,0,4050091,0,0,0,0,0,0,0,-3200011,0,4060171,0,0
1,439,1153.864137,0,0,337168.8332,337169.8801,1,20,19,1,0,4,7,5270341,7251250,3202242,4200171,0,0,0,-3130190,0,0,2140151,0,0,0,4080150,0,0,0,0,3171100,0,0,0,0,1090101,0,0,0,0,1031060,1081081,0,0,0,0,4200171,0,0,0,0
1,440,1033.301293,1,0,337172.1624,337173.2095,1,20,19,1,1,24,7,2180131,2151191,11373561,6111201,2180131,0,0,0,0,0,0,0,0,0,0,0,0,0,0,0,0,2151191,3080100,0,0,0,3091180,-1121170,0,4081111,0,0,0,0,0,4041091,0,0,2070110,0
1,441,715.8185992,0,0,337175.4329,337176.4799,1,20,19,1,0,19,7,6461200,2231302,3130101,8261201,1140130,0,3201010,0,0,2120060,0,0,0,0,0,0,0,1071111,0,0,0,1160191,-3130101,0,0,0,0,0,0,0,0,4160101,0,0,0,0,0,4101100,0,0
1,442,736.6730894,0,0,337178.3741,337179.421,1,20,19,0,0,14,3,2111110,5141190,3181100,0,0,2111110,0,0,0,0,0,0,0,0,0,4091140,0,-1050050,0,0,0,0,3181100,0,0,0,0,0,0,0,0,0,0,0,0,0,0,0,0,0
1,443,565.4343697,1,0,337181.2092,337182.2563,1,20,19,0,1,20,3,3101091,6301290,1160090,0,0,0,0,0,0,0,3101091,0,0,3101100,0,0,3200190,0,0,0,0,0,0,-1160090,0,0,0,0,0,0,0,0,0,0,0,0,0,0,0,0
1,444,980.2117121,1,0,337183.8445,337184.8915,1,20,19,0,1,13,7,4160181,8281521,10492550,4131130,0,4160181,0,0,0,0,0,0,0,4020150,0,0,-2190170,0,0,0,0,2071201,0,0,0,0,4171180,0,3120200,3201170,0,0,0,0,0,0,4131130,0,0,0
1,445,1181.522427,1,0,337187.0091,337188.0561,1,20,19,1,1,6,3,2110141,1181040,3080131,1201150,0,0,0,0,0,-2110141,0,0,0,0,0,0,0,0,0,1181040,0,0,0,0,3080131,0,0,0,0,0,0,0,0,0,0,1201150,0,0,0,0
1,446,779.9577149,1,0,337190.2678,337191.3148,1,20,19,1,1,34,3,3051201,0,6242301,3171190,0,0,0,0,3051201,0,0,0,0,0,0,0,0,0,0,0,0,0,0,3091131,0,3151170,0,0,0,0,0,0,0,0,0,0,0,-3171190,0,0
1,447,1516.527774,0,0,337193.2442,337194.2912,1,20,19,1,0,2,7,7303342,3091011,5451411,4091090,0,-1201130,0,0,0,0,4061151,2041061,0,0,0,0,0,0,0,3091011,0,0,0,0,3140190,0,0,0,1131060,1180161,0,4091090,0,0,0,0,0,0,0,0
1,448,670.9040491,1,0,337197.0089,337198.0558,1,20,19,0,1,27,3,0,0,5162260,5221290,0,0,0,0,0,0,0,0,0,0,0,0,0,0,0,0,0,0,2061160,0,0,0,0,0,0,0,-3101100,0,0,0,0,4121090,0,0,0,1100200
1,449,915.3400158,0,0,337199.7852,337200.8322,1,20,19,1,0,12,3,3100171,5052190,0,2070011,3100171,0,0,0,0,0,0,0,0,0,0,-1021120,4031070,0,0,0,0,0,0,0,0,0,0,0,0,0,0,0,0,0,2070011,0,0,0,0,0
1,450,1219.972713,0,0,337202.8557,337203.9027,1,20,19,1,0,31,3,0,5241381,1121141,3101061,0,0,0,0,0,0,0,0,0,0,0,0,3060190,0,0,0,2181191,0,0,0,0,0,1121141,0,0,0,0,0,0,0,-3101061,0,0,0,0,0
1,451,1552.339153,1,0,337206.2321,337207.2791,1,20,19,0,1,1,7,4101340,6211230,4151092,6102150,-1050170,0,0,0,3051170,0,0,0,0,0,0,0,3151190,0,0,3060040,0,0,0,2071051,0,0,0,0,0,0,2080041,0,0,0,0,0,0,0,4021070,2081080
1,452,646.5109977,0,0,337209.9849,337211.0319,1,20,19,1,0,21,7,5241201,3142231,5121041,6200242,0,0,0,1180080,4061121,0,0,0,0,1071101,2071130,0,0,0,0,0,0,0,0,0,-3010010,0,0,2111031,0,0,0,0,4070171,0,0,0,0,2130071,0,0
1,453,1002.502107,1,0,337212.7731,337213.8201,1,20,19,0,1,36,3,7251182,2190170,0,4130120,0,0,4080161,0,0,0,3171021,0,0,0,2190170,0,0,0,0,0,0,0,0,0,0,0,0,0,0,0,0,0,0,0,0,0,0,0,0,-4130120
1,454,546.784166,1,0,337215.8907,337216.9377,1,20,19,0,1,33,3,0,4101160,0,2301251,0,0,0,0,0,0,0,0,0,0,3071070,0,1030090,0,0,0,0,0,0,0,0,0,0,0,0,0,0,1121081,0,0,0,0,-1180170,0,0,0
1,455,648.46044,0,0,337218.5258,337219.5729,1,20,19,1,0,35,3,0,8281361,0,3071091,0,0,0,0,0,0,0,0,0,0,0,3010120,0,0,2200121,3071120,0,0,0,0,0,0,0,0,0,0,0,0,0,0,0,0,0,0,-3071091,0
1,456,779.6254936,0,0,337221.2787,337222.3257,1,20,19,1,0,5,3,2161031,4361362,2010080,0,0,0,0,0,-2161031,0,0,0,0,0,0,1161181,0,0,3200181,0,0,0,2010080,0,0,0,0,0,0,0,0,0,0,0,0,0,0,0,0,0
1,457,781.928715,1,0,337229.1844,337230.2314,1,20,20,0,1,1,7,5351491,4192322,6142190,2110171,-1020201,2150100,0,2181190,0,0,0,0,0,2141151,0,0,0,2051171,0,0,0,0,0,0,0,3081150,0,0,0,0,3061040,0,0,0,0,0,0,2110171,0,0
1,458,954.5290416,0,0,337232.1137,337233.1607,1,20,20,1,0,28,7,6221132,1141180,5251110,8131232,0,0,3120061,0,0,0,3101071,0,0,0,0,1141180,0,0,0,0,0,0,0,2091070,0,0,0,0,0,3160040,0,-3060061,1031111,4040060,0,0,0,0,0,0
1,459,714.1678866,1,0,337235.196,337236.243,1,20,20,0,1,29,7,4231202,4041150,7263313,5362342,1130031,0,0,0,0,0,0,3101171,0,0,0,0,0,0,0,4041150,0,0,4121141,0,0,0,1031141,0,0,0,2111031,0,-1161201,0,4201141,0,0,0,0,0
1,460,845.9434882,1,0,337238.0312,337239.0782,1,20,20,0,1,8,3,5082221,2020170,4081060,0,0,0,0,0,0,0,0,-4041160,1041061,0,0,0,0,0,0,0,2020170,0,0,0,4081060,0,0,0,0,0,0,0,0,0,0,0,0,0,0,0
1,461,1358.320753,1,0,337241.0899,337242.1369,1,20,20,0,1,32,3,0,1171190,5192271,3180160,0,0,0,0,0,0,0,0,0,0,0,0,0,0,1171190,0,0,0,0,0,0,0,2171160,3021111,0,0,0,0,0,0,0,-3180160,0,0,0,0
1,462,704.5480972,1,0,337244.7016,337245.7486,1,20,20,1,1,34,3,3051201,0,6242301,3171190,0,0,0,0,3051201,0,0,0,0,0,0,0,0,0,0,0,0,0,0,3091131,0,3151170,0,0,0,0,0,0,0,0,0,0,0,-3171190,0,0
1,463,724.0151881,0,0,337247.478,337248.525,1,20,20,0,0,20,3,1061091,3161140,4100071,1180180,0,0,0,0,1061091,0,0,0,0,0,0,0,0,3161140,0,0,0,0,0,-4100071,0,0,0,0,0,0,0,0,0,0,1180180,0,0,0,0,0
1,464,1030.549977,1,0,337250.2897,337251.3367,1,20,20,1,1,24,7,2180131,2151191,11373561,6111201,2180131,0,0,0,0,0,0,0,0,0,0,0,0,0,0,0,0,2151191,3080100,0,0,0,3091180,-1121170,0,4081111,0,0,0,0,0,4041091,0,0,2070110,0
1,465,1046.180547,0,0,337253.5249,337254.5719,1,20,20,0,0,14,7,2180272,4160040,7222342,4211250,1060151,1120121,0,0,0,0,0,0,0,0,0,0,0,-4160040,0,0,0,0,0,0,2120130,0,0,0,4091171,1011041,0,3010200,0,0,0,0,0,0,1201050,0
1,466,849.8516119,1,0,337256.7601,337257.8071,1,20,20,1,1,6,3,2110141,1181040,3080131,1201150,0,0,0,0,0,-2110141,0,0,0,0,0,0,0,0,0,1181040,0,0,0,0,3080131,0,0,0,0,0,0,0,0,0,0,1201150,0,0,0,0
1,467,828.2387487,1,0,337259.7247,337260.7717,1,20,20,1,1,19,7,6461200,2231302,3130101,8261201,1140130,0,3201010,0,0,2120060,0,0,0,0,0,0,0,1071111,0,0,0,1160191,-3130101,0,0,0,0,0,0,0,0,4160101,0,0,0,0,0,4101100,0,0
1,468,933.3846759,0,0,337262.6776,337263.7246,1,20,20,0,0,27,7,4030151,5131301,7301541,6231212,0,0,0,0,0,4030151,0,0,0,2101111,3030190,0,0,0,0,0,0,0,0,1040191,0,0,0,0,4180150,0,-2081200,4150131,0,0,0,0,2081081,0,0,0
1,469,816.9940391,0,0,337265.7598,337266.8068,1,20,20,1,0,5,3,2161031,4361362,2010080,0,0,0,0,0,-2161031,0,0,0,0,0,0,1161181,0,0,3200181,0,0,0,2010080,0,0,0,0,0,0,0,0,0,0,0,0,0,0,0,0,0
1,470,597.5170162,1,0,337268.6774,337269.7244,1,20,20,1,1,31,3,0,5241381,1121141,3101061,0,0,0,0,0,0,0,0,0,0,0,0,3060190,0,0,0,2181191,0,0,0,0,0,1121141,0,0,0,0,0,0,0,-3101061,0,0,0,0,0
1,471,777.0501048,1,0,337271.4067,337272.4537,1,20,20,0,1,30,3,0,3171100,4131181,6181151,0,0,0,0,0,0,0,0,0,0,0,0,0,3171100,0,0,0,0,0,0,0,0,0,0,4131181,0,0,0,0,-4050110,0,0,0,2131041,0,0
1,472,859.366692,1,0,337274.2655,337275.3125,1,20,20,1,1,2,7,7303342,3091011,5451411,4091090,0,-1201130,0,0,0,0,4061151,2041061,0,0,0,0,0,0,0,3091011,0,0,0,0,3140190,0,0,0,1131060,1180161,0,4091090,0,0,0,0,0,0,0,0
1,473,1008.532905,0,0,337277.3713,337278.4183,1,20,20,1,0,35,3,0,8281361,0,3071091,0,0,0,0,0,0,0,0,0,0,0,3010120,0,0,2200121,3071120,0,0,0,0,0,0,0,0,0,0,0,0,0,0,0,0,0,0,-3071091,0
1,474,1482.501075,0,0,337280.6182,337281.6653,1,20,20,0,0,33,7,0,3351161,5192271,8573523,0,0,0,0,0,0,0,0,0,0,0,2200130,0,0,0,0,0,1151031,0,0,0,0,0,1101100,0,4091171,0,3200181,0,0,1171120,0,-3011081,0,0,1191141
1,475,799.4967934,0,0,337284.3593,337285.4063,1,20,20,0,0,36,3,5371122,0,0,4211232,0,0,0,0,3190101,0,0,0,2181021,0,0,0,0,0,0,0,0,0,0,0,0,0,0,0,0,0,0,0,0,0,0,0,0,0,3010061,-1201171
1,476,595.4474661,0,0,337287.4063,337288.4533,1,20,20,0,0,22,7,4141310,6422252,2111150,3280070,0,0,0,1050160,3091150,0,0,0,0,0,1140171,4081051,0,0,1201030,0,0,0,0,0,0,-2111150,0,0,0,0,0,0,0,0,0,0,1180030,0,2100040,0
1,477,1042.660464,0,0,337290.218,337291.265,1,20,20,0,0,13,3,0,4321131,1040121,4031050,0,0,0,0,0,0,0,0,0,2180080,0,0,-2141051,0,0,0,0,0,0,0,1040121,0,0,0,0,0,0,0,0,0,0,4031050,0,0,0,0
1,478,1014.239566,0,0,337293.4414,337294.4884,1,20,20,1,0,4,7,5270341,7251250,3202242,4200171,0,0,0,-3130190,0,0,2140151,0,0,0,4080150,0,0,0,0,3171100,0,0,0,0,1090101,0,0,0,0,1031060,1081081,0,0,0,0,4200171,0,0,0,0
1,479,989.4392264,1,0,337296.6531,337297.7001,1,20,20,1,1,12,3,3100171,5052190,0,2070011,3100171,0,0,0,0,0,0,0,0,0,0,-1021120,4031070,0,0,0,0,0,0,0,0,0,0,0,0,0,0,0,0,0,2070011,0,0,0,0,0
1,480,813.7819248,1,0,337299.806,337300.853,1,20,20,1,1,21,7,5241201,3142231,5121041,6200242,0,0,0,1180080,4061121,0,0,0,0,1071101,2071130,0,0,0,0,0,0,0,0,0,-3010010,0,0,2111031,0,0,0,0,4070171,0,0,0,0,2130071,0,0
1,481,627.634052,0,0,337306.0528,337307.0999,1,20,21,0,0,27,7,1050140,6322411,11271492,0,1050140,0,0,0,0,0,0,0,0,0,3101161,0,0,0,0,1110060,0,2111190,2100091,0,2110100,0,4051150,0,0,0,-3010151,0,0,0,0,0,0,0,0,0
1,482,539.1338369,0,0,337308.9233,337309.9703,1,20,21,1,0,28,7,6221132,1141180,5251110,8131232,0,0,3120061,0,0,0,3101071,0,0,0,0,1141180,0,0,0,0,0,0,0,2091070,0,0,0,0,0,3160040,0,-3060061,1031111,4040060,0,0,0,0,0,0
1,483,820.2442644,1,0,337311.6291,337312.6762,1,20,21,0,1,32,3,1071061,3291291,0,2041121,0,0,0,0,1071061,0,0,0,0,2190190,0,1101101,0,0,0,0,0,0,0,0,0,0,0,0,0,0,0,0,0,0,0,-2041121,0,0,0,0
1,484,776.2855723,0,0,337314.5702,337315.6173,1,20,21,0,0,20,7,0,13583401,7472182,0,0,0,0,0,0,0,0,0,0,4131181,0,0,1181140,0,0,4130050,0,4141030,1130040,-2041011,0,0,0,2150021,2151110,0,0,0,0,0,0,0,0,0,0,0
1,485,791.4776716,1,0,337317.5819,337318.6289,1,20,21,0,1,29,3,3151151,3141060,0,4152090,0,0,0,0,0,3151151,0,0,0,0,0,0,0,0,0,0,0,3141060,0,0,0,0,0,0,0,0,0,1091080,-3061010,0,0,0,0,0,0,0
1,486,662.0079862,0,0,337320.5583,337321.6053,1,20,21,0,0,14,3,2141170,7301312,0,3020040,0,0,0,0,0,2141170,0,0,0,3171141,0,0,0,-4130171,0,0,0,0,0,0,0,0,0,0,0,0,0,0,0,0,3020040,0,0,0,0,0
1,487,500.2639436,1,0,337323.417,337324.4641,1,20,21,0,1,33,3,4092360,2130200,0,2191081,0,0,0,3031200,0,1061160,0,0,0,0,2130200,0,0,0,0,0,0,0,0,0,0,0,0,0,0,0,0,0,0,0,0,0,-2191081,0,0,0
1,488,718.7727896,1,0,337326.0876,337327.1346,1,20,21,1,1,21,7,5241201,3142231,5121041,6200242,0,0,0,1180080,4061121,0,0,0,0,1071101,2071130,0,0,0,0,0,0,0,0,0,-3010010,0,0,2111031,0,0,0,0,4070171,0,0,0,0,2130071,0,0
1,489,1043.716797,0,0,337328.8875,337329.9346,1,20,21,1,0,12,3,3100171,5052190,0,2070011,3100171,0,0,0,0,0,0,0,0,0,0,-1021120,4031070,0,0,0,0,0,0,0,0,0,0,0,0,0,0,0,0,0,2070011,0,0,0,0,0
1,490,525.4423153,1,0,337332.1697,337333.2168,1,20,21,0,1,22,7,8332422,2021271,4171021,8172242,0,0,2140121,0,2071171,0,4121130,0,0,0,1010091,0,0,0,0,0,1011180,0,0,0,0,-4171021,0,0,0,0,0,4031041,0,0,4141201,0,0,0,0,0
1,491,1604.046339,1,0,337334.7932,337335.8402,1,20,21,1,1,2,7,7303342,3091011,5451411,4091090,0,-1201130,0,0,0,0,4061151,2041061,0,0,0,0,0,0,0,3091011,0,0,0,0,3140190,0,0,0,1131060,1180161,0,4091090,0,0,0,0,0,0,0,0
1,492,1171.762897,1,0,337338.6284,337339.6754,1,20,21,1,1,24,7,2180131,2151191,11373561,6111201,2180131,0,0,0,0,0,0,0,0,0,0,0,0,0,0,0,0,2151191,3080100,0,0,0,3091180,-1121170,0,4081111,0,0,0,0,0,4041091,0,0,2070110,0
1,493,821.4191653,0,0,337341.9577,337343.0047,1,20,21,1,0,4,7,5270341,7251250,3202242,4200171,0,0,0,-3130190,0,0,2140151,0,0,0,4080150,0,0,0,0,3171100,0,0,0,0,1090101,0,0,0,0,1031060,1081081,0,0,0,0,4200171,0,0,0,0
1,494,748.6334415,1,0,337344.9576,337346.0046,1,20,21,1,1,31,3,0,5241381,1121141,3101061,0,0,0,0,0,0,0,0,0,0,0,0,3060190,0,0,0,2181191,0,0,0,0,0,1121141,0,0,0,0,0,0,0,-3101061,0,0,0,0,0
1,495,769.0852625,0,0,337347.8869,337348.934,1,20,21,0,0,8,3,3061350,3081050,0,3060201,0,0,0,0,0,2011150,0,-1050200,0,0,0,0,0,0,0,3081050,0,0,0,0,0,0,0,0,0,0,0,3060201,0,0,0,0,0,0,0,0
1,496,824.5854692,0,0,337350.9104,337351.9574,1,20,21,1,0,35,3,0,8281361,0,3071091,0,0,0,0,0,0,0,0,0,0,0,3010120,0,0,2200121,3071120,0,0,0,0,0,0,0,0,0,0,0,0,0,0,0,0,0,0,-3071091,0
1,497,748.2812022,0,0,337353.8868,337354.9338,1,20,21,0,0,13,3,0,5351402,0,3101120,0,0,0,0,0,0,0,0,0,0,0,0,-1111131,3170141,1070130,0,0,0,0,0,0,0,0,0,0,0,0,0,0,0,0,3101120,0,0,0,0
1,498,749.2027988,0,0,337356.6867,337357.7337,1,20,21,1,0,5,3,2161031,4361362,2010080,0,0,0,0,0,-2161031,0,0,0,0,0,0,1161181,0,0,3200181,0,0,0,2010080,0,0,0,0,0,0,0,0,0,0,0,0,0,0,0,0,0
1,499,716.6639735,1,0,337359.5454,337360.5925,1,20,21,1,1,19,7,6461200,2231302,3130101,8261201,1140130,0,3201010,0,0,2120060,0,0,0,0,0,0,0,1071111,0,0,0,1160191,-3130101,0,0,0,0,0,0,0,0,4160101,0,0,0,0,0,4101100,0,0
1,500,824.9962225,1,0,337362.3218,337363.3689,1,20,21,1,1,6,3,2110141,1181040,3080131,1201150,0,0,0,0,0,-2110141,0,0,0,0,0,0,0,0,0,1181040,0,0,0,0,3080131,0,0,0,0,0,0,0,0,0,0,1201150,0,0,0,0
